num,pic,trials.thisRepN,trials.thisTrialN,trials.thisN,trials.thisIndex,key_resp_2.keys,key_resp_2.rt,ratingBekannt.response,ratingBekannt.rt,key_resp_5.keys,key_resp_5.rt,ratingK1.response,ratingK1.rt,ratingK2.response,ratingK2.rt,ratingK3.response,ratingK3.rt,key_resp_6.keys,inputText,key_resp_4.keys,key_resp_4.rt,key_resp_6.rt,date,frameRate,expName,session,participant,
,,,,,,space,49.4621231465,,,,,,,,,,,,,,,,2017_Feb_06_1227,60.035396594,famFaceGrey,001,10,
109,./greyInner/JoachimLoew4_1_cut.png,0,0,0,108,,,None,None,1,4.71511859914,None,None,None,None,sport,2.903,None,jogi löw,"['j', 'o', 'g', 'i', 'space', 'l', u'\xf6', 'w', 'return']","[2.5827223525304817, 2.7825082633175953, 3.0489107561704714, 3.199139216370668, 3.382503066666004, 3.649061779846761, 3.865339039812852, 4.1155206018363515, 5.448958295908824]",,2017_Feb_06_1227,60.035396594,famFaceGrey,001,10,
120,./greyInner/JudithRakers8_1_cut.png,0,1,1,119,,,2.nein,11.819,None,,None,None,host,4.023,None,None,None,,['return'],[2.149763648588305],,2017_Feb_06_1227,60.035396594,famFaceGrey,001,10,
192,./greyInner/TomCruise4_1_cut.png,0,2,2,191,,,1.ja,13.985,None,,dummy,2.006,None,None,None,None,None,tom cruise,"['t', 'o', 'm', 'space', 'c', 'r', 'u', 'i', 's', 'e', 'return']","[2.4161626128507123, 2.632583582686948, 2.932390600861254, 3.132533540857139, 3.2657904427803714, 3.54879110487218, 3.982124160195326, 4.08203363580833, 4.215331597694558, 4.415371567002012, 5.048232304439125]",,2017_Feb_06_1227,60.035396594,famFaceGrey,001,10,
147,./greyInner/MilaKunis10_1_cut.png,0,3,3,146,,,1.ja,10.708,None,,act,2.079,None,None,None,None,None,,['return'],[1.9835246898690002],,2017_Feb_06_1227,60.035396594,famFaceGrey,001,10,
188,./greyInner/TaylorSwift3_1_cut.png,0,4,4,187,,,1.ja,2.195,None,,None,None,music,2.028,None,None,None,taylor swift,"['t', 'a', 'y', 'l', 'o', 'r', 'space', 's', 'w', 'i', 'f', 't', 'return']","[1.7334120957518735, 1.8996927559960568, 2.1331468740536366, 2.333159897760652, 2.5165259935226914, 2.6495974840506733, 2.7330505756092407, 2.8994858522764844, 3.08275571375043, 3.166161329726947, 3.349262139634675, 3.582491711019884, 3.765896942059271]",,2017_Feb_06_1227,60.035396594,famFaceGrey,001,10,
217,./greyInner/notfamousface2_cut.png,0,5,5,216,,,2.nein,8.467,None,,act,2.969,None,None,None,None,None,natalie portman,"['n', 'a', 't', 'a', 'l', 'i', 'e', 'space', 'p', 'o', 'r', 't', 'm', 'n', 'backspace', 'a', 'n', 'return']","[6.481287242669623, 6.581436020878982, 6.864503405410687, 7.131117613697597, 7.18109881593341, 7.414364956348209, 7.547626669985675, 7.664103199084366, 7.847517732771621, 8.013947556162293, 8.080653956897322, 8.230570938784695, 8.347249239107668, 8.547122402315836, 9.213353662292093, 9.563107879920153, 9.747712190189759, 9.97983827507096]",,2017_Feb_06_1227,60.035396594,famFaceGrey,001,10,
68,./greyInner/EmmaWatson(HermioneGranger)3_1_cut.png,0,6,6,67,,,1.ja,1.625,None,,act,1.043,None,None,None,None,None,emma watson,"['e', 'm', 'm', 'a', 'space', 'w', 'a', 't', 's', 'o', 'n', 'return']","[1.5163341665083863, 1.7162381246887435, 1.8829213650385555, 2.0328271195921843, 2.149428432484683, 2.2994795008135043, 2.4660783757706213, 2.7492593167621635, 2.9990273921278003, 3.0658232907508136, 3.19901603648168, 3.7487855232836864]",,2017_Feb_06_1227,60.035396594,famFaceGrey,001,10,
186,./greyInner/TaylorSwift1_2_cut.png,0,7,7,185,,,1.ja,2.9,None,,None,None,music,2.133,None,None,None,taylor swift,"['t', 'a', 'y', 'l', 'o', 'r', 'space', 's', 'w', 'i', 'f', 't', 'return']","[1.5165763561335552, 1.6663095305307252, 1.916449711810401, 2.0996820419120468, 2.2996995565524685, 2.4160012600277696, 2.499438312538132, 2.6493488788064496, 2.8327108044161378, 2.915866211243383, 3.0994626277349653, 3.3157982698357955, 3.4824616217658786]",,2017_Feb_06_1227,60.035396594,famFaceGrey,001,10,
174,./greyInner/SahraWagenknecht6_2_cut.png,0,8,8,173,,,1.ja,4.554,None,,None,None,None,None,polit,0.997,None,sarah wagenknecht,"['s', 'a', 'r', 'a', 'h', 'space', 'w', 'a', 'g', 'e', 'n', 'k', 'n', 'e', 'c', 'h', 't', 'return']","[1.1834379506972255, 1.3166993435538643, 1.616609011635319, 1.7832229632974759, 2.799542694662705, 3.0161192432649386, 3.082756034531485, 3.882413889559075, 4.082183440516928, 4.198926538593923, 4.3156494274701345, 4.548792067215118, 4.765477360562954, 4.832195950974437, 5.048635526106409, 5.098465640509858, 5.265154013354731, 5.6816932230531165]",,2017_Feb_06_1227,60.035396594,famFaceGrey,001,10,
185,./greyInner/SigmarGabriel8_2_cut.png,0,9,9,184,,,1.ja,2.042,None,,None,None,None,None,polit,0.874,None,sigmar gabriel,"['s', 'i', 'g', 'm', 'a', 'r', 'space', 'g', 'a', 'b', 'r', 'i', 'e', 'l', 'return']","[0.9500646694416446, 1.200175018092068, 1.3499649707191566, 1.449943093457705, 1.583348837746371, 1.79970372670482, 1.883159063730318, 2.016484933559923, 2.1831065839651274, 2.2662597453256694, 2.3996815286625406, 2.4828478420424744, 2.5828506649147585, 2.6993018523176033, 3.249267657067321]",,2017_Feb_06_1227,60.035396594,famFaceGrey,001,10,
41,./greyInner/CobieSmulders(Robin)12_1_cut.png,0,10,10,40,,,1.ja,1.986,None,,act,5.776,None,None,None,None,None,,['return'],[0.9669480129543899],,2017_Feb_06_1227,60.035396594,famFaceGrey,001,10,
3,./greyInner/AlysonHannigan(Lily)14_2_cut.png,0,11,11,2,,,1.ja,2.012,None,,act,1.512,None,None,None,None,None,willow,"['w', 'i', 'l', 'l', 'o', 'w', 'return']","[5.515406147189651, 5.631889412688452, 5.815127196066442, 5.965096786031381, 6.131441602467703, 6.181625217489454, 6.748258480165532]",,2017_Feb_06_1227,60.035396594,famFaceGrey,001,10,
182,./greyInner/SigmarGabriel11_3_cut.png,0,12,12,181,,,1.ja,1.267,None,,None,None,None,None,polit,0.708,None,gabriel,"['g', 'a', 'b', 'r', 'i', 'e', 'l', 'return']","[1.216497315704828, 1.333274095782599, 1.4332929577030882, 1.583118837797656, 1.7988154842253152, 1.965535935166372, 2.032401122476813, 2.548732722737441]",,2017_Feb_06_1227,60.035396594,famFaceGrey,001,10,
32,./greyInner/BritneySpears14_2_cut.png,0,13,13,31,,,1.ja,1.361,None,,None,None,music,1.645,None,None,None,britnes spears,"['b', 'r', 'i', 't', 'n', 'e', 's', 'space', 's', 'p', 'e', 'a', 'r', 's', 'return']","[0.9839670468134045, 1.2164411790367922, 1.4831272422588881, 1.5997737852665068, 1.7330576327904055, 1.8830038057451475, 2.099670493797248, 2.199408351596503, 3.082035560494205, 3.131843861792049, 3.3816658283590186, 3.5317903555278463, 3.8155717984775492, 3.9814521240830345, 4.448638156510242]",,2017_Feb_06_1227,60.035396594,famFaceGrey,001,10,
56,./greyInner/ElvisPresley1_1_cut.png,0,14,14,55,,,1.ja,1.208,None,,None,None,music,1.323,None,None,None,elvis presley,"['e', 'l', 'v', 'i', 's', 'space', 'p', 'r', 'e', 's', 'l', 'e', 'y', 'return']","[0.8668810338897401, 1.0333913733018107, 1.3166326211139676, 1.4665990032692662, 1.6166670729892303, 1.7498165132906252, 2.3997370237684663, 2.515968476213402, 2.7327131140389156, 2.899368767225951, 3.432438718005187, 3.6158715362071234, 3.9322058310278862, 4.1488683489276355]",,2017_Feb_06_1227,60.035396594,famFaceGrey,001,10,
38,./greyInner/CarenMiosga2_11_cut.png,0,15,15,37,,,2.nein,7.03,None,,act,3.622,None,None,None,None,None,,['return'],[1.732935736025638],,2017_Feb_06_1227,60.035396594,famFaceGrey,001,10,
224,./greyInner/notfamousface9_1_cut.png,0,16,16,223,,,2.nein,4.793,None,,None,None,music,1.977,None,None,None,,['return'],[1.3499264770036916],,2017_Feb_06_1227,60.035396594,famFaceGrey,001,10,
183,./greyInner/SigmarGabriel3_3_cut.png,0,17,17,182,,,1.ja,6.742,None,,None,None,None,None,polit,1.564,None,gabriel,"['g', 'a', 'b', 'r', 'i', 'e', 'l', 'lshift', u'?', 'return']","[1.0168673044647676, 1.5999219860705125, 1.7166211371556983, 1.8996658103953905, 1.9662519182702454, 2.099824147877598, 2.199764418462564, 2.6994930377700257, 2.9829254710348323, 3.5659224120674935]",,2017_Feb_06_1227,60.035396594,famFaceGrey,001,10,
1,./greyInner/AlysonHannigan(Lily)1_1_cut.png,0,18,18,0,,,1.ja,1.812,None,,act,1.077,None,None,None,None,None,willow,"['w', 'i', 'l', 'l', 'o', 'w', 'return']","[1.0167030646130115, 1.1834725950409393, 1.4000055174324189, 1.5167094802320662, 1.6832515769592646, 1.7832181515830143, 2.3162913101721188]",,2017_Feb_06_1227,60.035396594,famFaceGrey,001,10,
160,./greyInner/NicoleKidman8_2_cut.png,0,19,19,159,,,1.ja,7.925,None,,act,0.928,None,None,None,None,None,,['return'],[0.800209919060535],,2017_Feb_06_1227,60.035396594,famFaceGrey,001,10,
111,./greyInner/JoshRadnor(Ted)1_2_cut.png,0,20,20,110,,,1.ja,6.261,None,,act,1.423,None,None,None,None,None,,['return'],[1.0334141487501256],,2017_Feb_06_1227,60.035396594,famFaceGrey,001,10,
69,./greyInner/EmmaWatson(HermioneGranger)4_1_cut.png,0,21,21,68,,,1.ja,1.293,None,,act,0.593,None,None,None,None,None,emma watson,"['e', 'm', 'm', 'a', 'space', 'w', 'a', 't', 's', 'o', 'n', 'return']","[1.0000513249538017, 1.1832063468439173, 1.3332230916100798, 1.4494275984541218, 1.5832153928670323, 1.6996835816605653, 1.8829101377048119, 2.1994510154643194, 2.449405143786862, 2.4742043990618185, 3.3323512089593805, 3.5991203544501786]",,2017_Feb_06_1227,60.035396594,famFaceGrey,001,10,
18,./greyInner/BastianSchweinsteiger14_1_cut.png,0,22,22,17,,,1.ja,1.773,None,,None,None,None,None,sport,1.546,None,schweinsteiger,"['s', 'c', 'h', 'w', 'e', 'i', 'n', 's', 't', 'e', 'i', 'g', 'e', 'r', 'return']","[0.8166778512295423, 1.100014050206255, 1.2000175146404217, 1.3665701971392537, 1.5497297099627758, 1.5998340920873488, 1.6497495342262027, 1.9663879293975697, 2.2333315797309297, 2.4326372814198294, 2.4827564194686147, 2.6328745310183876, 2.8160539322614113, 2.840870830489166, 3.232277814275676]",,2017_Feb_06_1227,60.035396594,famFaceGrey,001,10,
5,./greyInner/AlysonHannigan(Lily)8_3_cut.png,0,23,23,4,,,1.ja,1.321,None,,act,0.712,None,None,None,None,None,willow,"['w', 'i', 'l', 'l', 'o', 'w', 'return']","[0.7337142714166021, 0.9333539060855855, 1.1168900157567805, 1.2669892012297623, 1.3999965355656059, 1.516865700559947, 1.6499718354316428]",,2017_Feb_06_1227,60.035396594,famFaceGrey,001,10,
45,./greyInner/CobieSmulders(Robin)5_1_cut.png,0,24,24,44,,,1.ja,3.479,None,,act,3.829,None,None,None,None,None,,['return'],[1.0336290719935732],,2017_Feb_06_1227,60.035396594,famFaceGrey,001,10,
167,./greyInner/RobertSeanLeonard(Wilson)10_1_cut.png,0,25,25,166,,,1.ja,2.387,None,,act,1.152,None,None,None,None,None,wilson,"['w', 'i', 'l', 's', 'o', 'n', 'return']","[0.8500031436535664, 0.983162207383657, 1.1998661060272298, 1.4164208415240864, 1.4997748117657466, 1.6830097081151507, 2.3826586454320022]",,2017_Feb_06_1227,60.035396594,famFaceGrey,001,10,
187,./greyInner/TaylorSwift2_1_cut.png,0,26,26,186,,,1.ja,1.269,None,,None,None,music,0.926,None,None,None,taylor swift,"['t', 'a', 'y', 'l', 'o', 'r', 'space', 's', 'w', 'i', 'f', 't', 'return']","[1.3498777182978756, 1.5165474858470134, 1.749763905213058, 1.8494748174114193, 1.999590683494489, 2.182883641197577, 2.332603984356183, 2.482873504519148, 2.682644017819939, 2.799207478559083, 2.949224223325018, 3.115866403711834, 3.2657407217313903]",,2017_Feb_06_1227,60.035396594,famFaceGrey,001,10,
170,./greyInner/RobertSeanLeonard(Wilson)8_1_cut.png,0,27,27,169,,,1.ja,1.163,None,,act,0.863,None,None,None,None,None,wilson,"['w', 'i', 'l', 's', 'o', 'n', 'return']","[0.7170176224228726, 0.9001450571504392, 1.083585574095423, 1.1502140250570392, 1.267036997592868, 1.4001931742945999, 1.6500010264992397]",,2017_Feb_06_1227,60.035396594,famFaceGrey,001,10,
42,./greyInner/CobieSmulders(Robin)2_1_cut.png,0,28,28,41,,,1.ja,6.792,None,,act,1.394,None,None,None,None,None,,['return'],[6.931017658350356],,2017_Feb_06_1227,60.035396594,famFaceGrey,001,10,
200,./greyInner/UrsulavonderLeyen8_2_cut.png,0,29,29,199,,,1.ja,4.874,None,,act,1.025,None,None,None,None,None,,['return'],[0.48363728398589956],,2017_Feb_06_1227,60.035396594,famFaceGrey,001,10,
77,./greyInner/GeorgeClooney15_1_cut.png,0,30,30,76,,,1.ja,1.644,None,,act,0.661,None,None,None,None,None,george cloney,"['g', 'e', 'o', 'r', 'g', 'e', 'space', 'c', 'l', 'o', 'n', 'e', 'y', 'return']","[0.8334514876539743, 1.0831736913421537, 1.299927631815308, 1.4164843561541147, 1.616311968466107, 1.8327505812551408, 2.066275271124141, 2.3326091168516996, 2.4326661517063712, 2.6159684120573274, 3.165745597602154, 3.315638841698501, 3.59896381334147, 3.8485971607037754]",,2017_Feb_06_1227,60.035396594,famFaceGrey,001,10,
143,./greyInner/MariskaHargitay(Liv)4_4_cut.png,0,31,31,142,,,1.ja,10.341,None,,act,1.278,None,None,None,None,None,wolke hegenbarth,"['w', 'o', 'l', 'k', 'e', 'space', 'h', 'e', 'g', 'e', 'n', 'b', 'a', 'r', 't', 'h', 'return']","[0.8668370868983857, 1.0501053444675108, 1.2331666983170635, 1.416675541606537, 1.516613887505855, 1.6497553082833747, 1.8164164147467545, 1.9331178112986436, 1.9996574059341583, 2.1330015602786716, 2.5327998532106903, 2.7493956486703155, 2.8826506259078997, 3.0993965468571787, 3.5824160067134017, 3.765630693862022, 3.832345434901981]",,2017_Feb_06_1227,60.035396594,famFaceGrey,001,10,
161,./greyInner/OmarEpps(DrEricForeman)1_5_cut.png,0,32,32,160,,,1.ja,2.527,None,,act,1.899,None,None,None,None,None,dr house untertan,"['d', 'r', 'space', 'h', 'o', 'u', 's', 'e', 'space', 'u', 'n', 't', 'e', 'r', 't', 'a', 'n', 'return']","[1.6661221944498266, 1.866348858276524, 1.9830066286178862, 2.26622317629608, 2.449492075427088, 2.6324212675210674, 2.7159930480349885, 2.932498704044974, 3.6489238440337886, 3.915536769196933, 4.081906285767218, 4.13199334571982, 4.2655697454795245, 4.332150079297207, 4.531776241165744, 4.698589718585254, 4.748554881773089, 5.264982395540983]",,2017_Feb_06_1227,60.035396594,famFaceGrey,001,10,
108,./greyInner/JoachimLoew15_1_cut.png,0,33,33,107,,,1.ja,1.511,None,,None,None,None,None,sport,0.696,None,jogi löw,"['j', 'o', 'g', 'i', 'space', 'l', u'\xf6', 'w', 'return']","[1.2668801357031043, 1.433358717800047, 1.6834122882203246, 1.883289300800243, 2.0999707447763285, 2.366431940545226, 2.5827666203031185, 2.766263915478021, 3.165778317259992]",,2017_Feb_06_1227,60.035396594,famFaceGrey,001,10,
95,./greyInner/JanHofer9_2_cut.png,0,34,34,94,,,1.ja,4.079,None,,act,1.43,None,None,None,None,None,,['return'],[1.1499750432412839],,2017_Feb_06_1227,60.035396594,famFaceGrey,001,10,
129,./greyInner/KatjaBurkard5_3_cut.png,0,35,35,128,,,1.ja,2.356,None,,act,2.386,None,None,None,None,None,,['return'],[0.7167574690638503],,2017_Feb_06_1227,60.035396594,famFaceGrey,001,10,
84,./greyInner/HughLaurie(DrHouse)8_1_cut.png,0,36,36,83,,,1.ja,2.607,None,,act,1.193,None,None,None,None,None,dr house,"['d', 'r', 'space', 'h', 'o', 'u', 's', 'e', 'return']","[2.5826514599382335, 2.8160404594609645, 2.9324544362723373, 3.2492371828759588, 3.4490647951877236, 3.5990776905823623, 3.698933595774861, 3.882162076504983, 6.081343635962412]",,2017_Feb_06_1227,60.035396594,famFaceGrey,001,10,
208,./greyInner/WillSmith4_1_cut.png,0,37,37,207,,,1.ja,2.008,None,,act,0.791,None,None,None,None,None,will smith,"['w', 'i', 'l', 'l', 'space', 's', 'm', 'i', 't', 'h', 'return']","[0.7169624480977745, 0.9168737842401242, 1.1499246806306473, 1.2663739433476167, 1.4998158717287424, 1.7163779851875915, 1.883102285500172, 2.1994474868736233, 2.3494991967645547, 2.4325253288648128, 2.7325738951021776]",,2017_Feb_06_1227,60.035396594,famFaceGrey,001,10,
152,./greyInner/NeilPatrickHarris(Barney)11_2_cut.png,0,38,38,151,,,1.ja,6.528,None,,act,0.563,None,None,None,None,None,,['return'],[1.0833898977093668],,2017_Feb_06_1227,60.035396594,famFaceGrey,001,10,
93,./greyInner/JanHofer5_1_cut.png,0,39,39,92,,,2.nein,5.377,None,,act,4.427,None,None,None,None,None,,['return'],[1.0671112263071336],,2017_Feb_06_1227,60.035396594,famFaceGrey,001,10,
220,./greyInner/notfamousface5_1_cut.png,0,40,40,219,,,2.nein,5.254,None,,None,None,None,None,polit,4.887,None,,['return'],[1.2502527753968025],,2017_Feb_06_1227,60.035396594,famFaceGrey,001,10,
61,./greyInner/EmilyDeschanel15_1_cut.png,0,41,41,60,,,1.ja,4.426,None,,act,0.828,None,None,None,None,None,,['return'],[1.0166443616972174],,2017_Feb_06_1227,60.035396594,famFaceGrey,001,10,
216,./greyInner/notfamousface14_6_cut.png,0,42,42,215,,,2.nein,3.654,None,,None,None,music,1.984,None,None,None,,['return'],[1.2504327335157086],,2017_Feb_06_1227,60.035396594,famFaceGrey,001,10,
74,./greyInner/GuentherJauch7_1_cut.png,0,43,43,73,,,1.ja,1.362,None,,None,None,host,1.363,None,None,None,guenther jauch,"['g', 'u', 'e', 'n', 't', 'h', 'e', 'r', 'space', 'h', 'backspace', 'j', 'a', 'u', 'c', 'h', 'return']","[0.8504111770350846, 1.166911636393479, 1.9665277898961904, 2.1997294533377953, 2.349773464485679, 2.5163145988697124, 2.6330878503570148, 2.7163542473965663, 2.8827997890543884, 3.182570238199105, 3.615978356267078, 3.9158761554529065, 4.0162398569059405, 4.099049782638758, 4.215728724523615, 4.241855371413067, 4.4988439054184255]",,2017_Feb_06_1227,60.035396594,famFaceGrey,001,10,
9,./greyInner/AngelaMerkel5_1_cut.png,0,44,44,8,,,1.ja,1.646,None,,None,None,None,None,polit,1.245,None,angela merkel,"['a', 'n', 'g', 'e', 'l', 'a', 'space', 'm', 'e', 'backspace', 'r', 'backspace', 'e', 'r', 'k', 'e', 'l', 'return']","[0.9667966043409706, 1.1333406257538172, 1.3332333566006582, 1.5498583431278803, 1.7499284658458691, 1.8663190256470443, 1.9830371028090212, 2.199647333412031, 2.2660531623869247, 2.6158349671777614, 3.0824836914960088, 3.4321872257323776, 3.5157955752756607, 3.6656240216179867, 3.7325738951019503, 3.8822066650584475, 3.948909216421953, 4.215494554422321]",,2017_Feb_06_1227,60.035396594,famFaceGrey,001,10,
198,./greyInner/UrsulavonderLeyen5_1_cut.png,0,45,45,197,,,2.nein,4.656,None,,dummy,2.609,None,None,None,None,None,,['return'],[1.466437650446096],,2017_Feb_06_1227,60.035396594,famFaceGrey,001,10,
29,./greyInner/Beyonce5_3_cut.png,0,46,46,28,,,1.ja,1.382,None,,None,None,music,0.992,None,None,None,beyonce,"['b', 'e', 'y', 'o', 'n', 'c', 'e', 'return']","[0.933300014884253, 1.1166192766261247, 1.4498632189984164, 1.5331495044574694, 1.682927588189159, 1.8329831474513867, 2.016217723019736, 2.216032504093164]",,2017_Feb_06_1227,60.035396594,famFaceGrey,001,10,
223,./greyInner/notfamousface8_9_cut.png,0,47,47,222,,,2.nein,3.305,None,,None,None,music,2.998,None,None,None,,['return'],[0.9835420120409708],,2017_Feb_06_1227,60.035396594,famFaceGrey,001,10,
35,./greyInner/BritneySpears8_5_cut.png,0,48,48,34,,,1.ja,1.121,None,,None,None,music,0.956,None,None,None,britney spears,"['b', 'r', 'i', 't', 'n', 'e', 'y', 'space', 's', 'e', 'backspace', 'p', 'e', 'a', 's', 'e', 'backspace', 'backspace', 'r', 's', 'return']","[1.0499484825777472, 1.2832431724980324, 1.7493892330512608, 1.9162437704337663, 2.1660798513630652, 2.2993431689053523, 2.5825696607935242, 2.6658986101203936, 2.8492011912521775, 3.082457387457225, 3.3989700364920736, 3.5656651457372845, 3.6656317203612616, 3.798806181577447, 3.865445859872807, 4.148681333627792, 4.448660290396674, 4.581812296945827, 4.6817686065789985, 4.881823331810892, 5.547988510909136]",,2017_Feb_06_1227,60.035396594,famFaceGrey,001,10,
145,./greyInner/MariskaHargitay(Liv)8_8_cut.png,0,49,49,144,,,1.ja,2.945,None,,act,1.085,None,None,None,None,None,,['return'],[0.7833743719108952],,2017_Feb_06_1227,60.035396594,famFaceGrey,001,10,
180,./greyInner/Shakira9_1_cut.png,0,50,50,179,,,1.ja,6.325,None,,dummy,1.228,None,None,None,None,None,die aus sin city,"['s', 'i', 'n', 'space', 'c', 'i', 't', 'y', 'backspace', 'backspace', 'backspace', 'backspace', 'backspace', 'backspace', 'backspace', 'backspace', 'd', 'i', 'e', 'space', 'a', 'u', 's', 'space', 's', 'i', 'n', 'space', 'c', 'i', 't', 'y', 'return']","[1.883056093041887, 2.082821794628444, 2.282889030317847, 2.4492989652890174, 2.632559524115095, 2.6993852553673605, 2.8990755734280356, 3.1821878672942603, 5.448260918100914, 5.614762275645944, 5.764854403937761, 5.914758233805742, 6.0480632528729075, 6.198061392343334, 6.347722711805318, 6.497730795485495, 6.7311124170462335, 7.547292095443936, 7.664022041501539, 7.714052002443168, 7.847229029907112, 7.871496751130508, 7.9640106216993445, 8.030613730964888, 8.197202661712254, 8.297055038314284, 8.430327337723384, 8.647023858404737, 9.080151934694186, 9.146830427485611, 9.363373614867896, 9.613218677664008, 9.829805170475993]",,2017_Feb_06_1227,60.035396594,famFaceGrey,001,10,
51,./greyInner/DannFlorek(DonaldDonCragen)1_1_cut.png,0,51,51,50,,,1.ja,5.36,None,,act,0.913,None,None,None,None,None,,['return'],[1.4995435286932661],,2017_Feb_06_1227,60.035396594,famFaceGrey,001,10,
127,./greyInner/KatjaBurkard10_1_cut.png,0,52,52,126,,,1.ja,4.208,None,,act,1.429,None,None,None,None,None,,['return'],[0.9335935294629962],,2017_Feb_06_1227,60.035396594,famFaceGrey,001,10,
144,./greyInner/MariskaHargitay(Liv)6_5_cut.png,0,53,53,143,,,1.ja,4.777,None,,act,0.548,None,None,None,None,None,,['return'],[0.7669410840856017],,2017_Feb_06_1227,60.035396594,famFaceGrey,001,10,
172,./greyInner/SahraWagenknecht2_2_cut.png,0,54,54,171,,,1.ja,2.217,None,,None,None,None,None,polit,0.981,None,sarah wagenknecht,"['s', 'a', 'r', 'a', 'h', 'space', 'w', 'a', 'g', 'e', 'n', 'k', 'n', 'e', 'c', 'h', 't', 'return']","[0.8003164183394347, 0.9669069529913941, 1.2168588358474608, 1.3668008386498514, 1.4501358828149478, 1.5833481961844882, 1.699942131114767, 1.833134556064806, 2.0331408433717115, 2.166182501270214, 2.2663582250804666, 2.482866447337983, 2.6495034952292826, 2.732877033109844, 2.9329657611233415, 2.9596823241993206, 3.1660692655912044, 3.2160992265330606]",,2017_Feb_06_1227,60.035396594,famFaceGrey,001,10,
99,./greyInner/JasonSegel(Marshall)7_1_cut.png,0,55,55,98,,,2.nein,13.839,None,,None,None,music,2.328,None,None,None,,['return'],[1.3163474468401546],,2017_Feb_06_1227,60.035396594,famFaceGrey,001,10,
96,./greyInner/JasonSegel(Marshall)11_1_cut.png,0,56,56,95,,,2.nein,8.031,None,,None,None,None,None,polit,3.929,None,,['return'],[1.333876522426408],,2017_Feb_06_1227,60.035396594,famFaceGrey,001,10,
137,./greyInner/LisaEdelstein(DrLisaCuddy)10_1_cut.png,0,57,57,136,,,1.ja,5.693,None,,act,10.308,None,None,None,None,None,,['return'],[1.3000033361220176],,2017_Feb_06_1227,60.035396594,famFaceGrey,001,10,
75,./greyInner/GuentherJauch9_1_cut.png,0,58,58,74,,,1.ja,1.383,None,,None,None,host,1.671,None,None,None,der jauch,"['d', 'e', 'r', 'space', 'j', 'a', 'u', 'c', 'h', 'return']","[1.1498095202657623, 1.3498523766020298, 1.4830765588671966, 1.566365410574008, 1.6162385096261005, 1.716466520732638, 1.8493978299809442, 1.9328182018816733, 1.99967055795355, 2.4660867160755515]",,2017_Feb_06_1227,60.035396594,famFaceGrey,001,10,
126,./greyInner/KatjaBurkard1_1_cut.png,0,59,59,125,,,1.ja,8.906,None,,None,None,host,0.993,None,None,None,,['return'],[1.0665982975510815],,2017_Feb_06_1227,60.035396594,famFaceGrey,001,10,
97,./greyInner/JasonSegel(Marshall)14_1_cut.png,0,60,60,96,,,2.nein,6.638,None,,act,4.335,None,None,None,None,None,,['return'],[1.2331785672126898],,2017_Feb_06_1227,60.035396594,famFaceGrey,001,10,
63,./greyInner/EmilyDeschanel5_1_cut.png,0,61,61,62,,,2.nein,8.589,None,,None,None,music,2.593,None,None,None,,['return'],[1.3498520558209748],,2017_Feb_06_1227,60.035396594,famFaceGrey,001,10,
162,./greyInner/OmarEpps(DrEricForeman)2_2_cut.png,0,62,62,161,,,1.ja,4.519,None,,act,1.136,None,None,None,None,None,omar eps der aus dr house,"['o', 'm', 'a', 'r', 'space', 'e', 'p', 's', 'space', 'd', 'e', 'r', 'space', 'a', 'u', 's', 'space', 'd', 'r', 'space', 'h', 'o', 'u', 's', 'e', 'return']","[1.0000128312383367, 1.216606381231486, 1.3666664314273476, 2.0330946509134264, 2.132872606332512, 2.2992774088083934, 2.6660500187335856, 2.815952244696973, 3.582215839393939, 3.699076343302295, 3.8821973624105794, 4.032361345637582, 4.115465748292081, 4.398604025416034, 4.465436493068637, 4.582023370817751, 4.648676842694158, 4.815018451320839, 4.981920464285622, 5.048441132844346, 5.364958272812601, 5.548195735409536, 5.664896811180597, 5.7648495922233, 5.91469022824208, 5.981326698727571]",,2017_Feb_06_1227,60.035396594,famFaceGrey,001,10,
59,./greyInner/ElvisPresley5_2_cut.png,0,63,63,58,,,1.ja,1.548,None,,None,None,music,1.066,None,None,None,elvis,"['e', 'l', 'v', 'i', 's', 'return']","[0.8497702566760381, 1.049861871718349, 1.6830020093718758, 1.7663434691562543, 1.9497316988044986, 2.199351252585302]",,2017_Feb_06_1227,60.035396594,famFaceGrey,001,10,
140,./greyInner/LisaEdelstein(DrLisaCuddy)9_1_cut.png,0,64,64,139,,,1.ja,4.495,None,,act,0.73,None,None,None,None,None,,['return'],[0.9502192858644776],,2017_Feb_06_1227,60.035396594,famFaceGrey,001,10,
2,./greyInner/AlysonHannigan(Lily)12_2_cut.png,0,65,65,1,,,1.ja,3.036,None,,act,0.915,None,None,None,None,None,willow,"['w', 'i', 'l', 'l', 'o', 'w', 'return']","[0.6503105801259608, 0.8000703793427419, 0.9999429009890264, 1.1334147261557064, 1.316457795490578, 1.4166274244626038, 1.8831013231572342]",,2017_Feb_06_1227,60.035396594,famFaceGrey,001,10,
138,./greyInner/LisaEdelstein(DrLisaCuddy)2_2_cut.png,0,66,66,137,,,1.ja,5.989,None,,act,1.541,None,None,None,None,None,chefin von house,"['c', 'h', 'e', 'f', 'i', 'n', 'space', 'v', 'o', 'n', 'space', 'h', 'o', 'u', 's', 'e', 'return']","[1.0001969595098217, 1.1164871148703241, 1.266214194429267, 1.4331684946905625, 1.4663022808808819, 1.6163482167146412, 1.716470049323334, 1.8162890647054155, 1.8995301200491213, 2.0661610731021938, 2.1329386872102987, 2.4494192581491916, 2.832747052664672, 3.0155854637466746, 3.0658730117995674, 3.248986973726687, 3.4988798328859048]",,2017_Feb_06_1227,60.035396594,famFaceGrey,001,10,
101,./greyInner/JimParsons(SheldonCooper)1_1_cut.png,0,67,67,100,,,1.ja,3.145,None,,act,2.096,None,None,None,None,None,sheldon,"['s', 'h', 'e', 'l', 'd', 'o', 'n', 'return']","[0.7168434383613658, 0.9502994811045937, 1.050082248238141, 1.1667676057422796, 1.3333465922796677, 1.3834208209939334, 1.5162632739161381, 1.766443873596927]",,2017_Feb_06_1227,60.035396594,famFaceGrey,001,10,
202,./greyInner/Usher11_1_cut.png,0,68,68,201,,,1.ja,2.577,None,,None,None,music,0.911,None,None,None,,['return'],[1.8329350303074534],,2017_Feb_06_1227,60.035396594,famFaceGrey,001,10,
159,./greyInner/NicoleKidman7_1_cut.png,0,69,69,158,,,1.ja,2.279,None,,act,0.712,None,None,None,None,None,nicole kidman,"['n', 'i', 'c', 'o', 'l', 'e', 'space', 'k', 'i', 'd', 'm', 'a', 'n', 'return']","[0.7835870496876396, 0.9835676745176443, 1.1000400334637561, 1.2167991705887289, 1.399930775468647, 1.4500550460127215, 1.5998591130021396, 2.0164130786245096, 2.1997769289200733, 2.33287055333426, 2.54926618147465, 2.632791769530286, 2.7161139824570455, 2.932665189363206]",,2017_Feb_06_1227,60.035396594,famFaceGrey,001,10,
142,./greyInner/MariskaHargitay(Liv)14_1_cut.png,0,70,70,141,,,2.nein,11.224,None,,None,None,music,1.328,None,None,None,,['return'],[1.1673835051865353],,2017_Feb_06_1227,60.035396594,famFaceGrey,001,10,
36,./greyInner/CarenMiosga1_1_cut.png,0,71,71,35,,,2.nein,5.458,None,,None,None,host,0.911,None,None,None,,['return'],[1.1002565606122516],,2017_Feb_06_1227,60.035396594,famFaceGrey,001,10,
103,./greyInner/JimParsons(SheldonCooper)6_1_cut.png,0,72,72,102,,,1.ja,4.41,None,,act,4.077,None,None,None,None,None,,['return'],[1.9664305932651587],,2017_Feb_06_1227,60.035396594,famFaceGrey,001,10,
60,./greyInner/ElvisPresley6_1_cut.png,0,73,73,59,,,1.ja,1.262,None,,None,None,music,0.595,None,None,None,elvis,"['e', 'l', 'v', 'i', 's', 'return']","[0.8167644620889405, 0.9835676745176443, 1.2331291669447637, 1.3166085625421147, 1.5331802994298869, 1.6499853082320897]",,2017_Feb_06_1227,60.035396594,famFaceGrey,001,10,
168,./greyInner/RobertSeanLeonard(Wilson)11_2_cut.png,0,74,74,167,,,1.ja,1.269,None,,act,0.827,None,None,None,None,None,wilson,"['w', 'i', 'l', 's', 'o', 'n', 'return']","[0.6168460687649713, 0.783529950676666, 0.9666160046601817, 1.049889779661953, 1.133104851747703, 1.2665978484578773, 1.7330640484096875]",,2017_Feb_06_1227,60.035396594,famFaceGrey,001,10,
16,./greyInner/BastianSchweinsteiger1_1_cut.png,0,75,75,15,,,1.ja,1.573,None,,None,None,None,None,sport,1.19,None,schweinsteiger,"['s', 'c', 'h', 'w', 'e', 'i', 'n', 's', 't', 'e', 'i', 'g', 'e', 'r', 'return']","[0.7167192961296678, 0.9499068452091706, 1.0000115481145713, 1.1832381041590452, 1.3332349605054787, 1.4163669503227538, 1.4832029465655978, 1.566489552805706, 1.7831129354281074, 1.9829883441032052, 2.066010626831712, 2.182826221405776, 2.349557258118466, 2.4160096003327, 2.4827872144408047]",,2017_Feb_06_1227,60.035396594,famFaceGrey,001,10,
114,./greyInner/JoshRadnor(Ted)7_1_cut.png,0,76,76,113,,,1.ja,4.84,None,,act,0.492,None,None,None,None,None,,['return'],[0.6833632087334536],,2017_Feb_06_1227,60.035396594,famFaceGrey,001,10,
115,./greyInner/JoshRadnor(Ted)9_1_cut.png,0,77,77,114,,,2.nein,7.094,None,,act,2.895,None,None,None,None,None,,['return'],[1.2665670534856872],,2017_Feb_06_1227,60.035396594,famFaceGrey,001,10,
58,./greyInner/ElvisPresley4_10_cut.png,0,78,78,57,,,1.ja,1.108,None,,None,None,music,0.713,None,None,None,elvis,"['e', 'l', 'v', 'i', 's', 'return']","[0.7002587419226529, 0.8336474848206308, 1.2834850413421464, 1.3501237572945683, 1.5167816559483072, 1.7832585699841275]",,2017_Feb_06_1227,60.035396594,famFaceGrey,001,10,
157,./greyInner/NicoleKidman3_1_cut.png,0,79,79,156,,,1.ja,1.228,None,,act,0.581,None,None,None,None,None,nicole kidman,"['n', 'i', 'c', 'o', 'l', 'e', 'space', 'k', 'i', 'd', 'm', 'a', 'n', 'return']","[0.7669808609248321, 1.0332919312040758, 1.3167330255546403, 1.4333490943713514, 1.616606445387788, 1.6998301785595231, 1.7997544100967389, 1.9165122640977188, 2.0496944240571793, 2.1494326026370345, 2.2495047141969735, 2.382969161401661, 2.4330068210863374, 2.616081647736337]",,2017_Feb_06_1227,60.035396594,famFaceGrey,001,10,
70,./greyInner/EmmaWatson(HermioneGranger)9_1_cut.png,0,80,80,69,,,1.ja,1.629,None,,act,0.564,None,None,None,None,None,emma watson,"['e', 'm', 'm', 'a', 'space', 'w', 'a', 't', 's', 'o', 'n', 'return']","[0.6335488125971551, 0.8000245076652845, 0.9333353007898495, 1.0333734095679574, 1.1667618316848802, 1.283288081832552, 1.466696841462408, 1.7162968276045376, 1.9331277555083943, 2.066299650477049, 2.0912403701554467, 2.3162200967988156]",,2017_Feb_06_1227,60.035396594,famFaceGrey,001,10,
105,./greyInner/JimParsons(SheldonCooper)9_3_cut.png,0,81,81,104,,,2.nein,11.949,None,,dummy,1.26,None,None,None,None,None,,['return'],[1.050038301246559],,2017_Feb_06_1227,60.035396594,famFaceGrey,001,10,
19,./greyInner/BastianSchweinsteiger3_1_cut.png,0,82,82,18,,,1.ja,1.329,None,,None,None,None,None,sport,1.013,None,schweinsteiger,"['s', 'c', 'h', 'w', 'e', 'i', 'n', 's', 't', 'e', 'i', 'g', 'e', 'r', 'return']","[0.7004717404804524, 0.8835783244455797, 0.9336223997495381, 1.1167277005906726, 1.266785505319831, 1.3334226173674324, 1.4001254895117654, 1.46670325708169, 1.6665873268425457, 1.8667350785528924, 1.9165905346519594, 2.049584075406756, 2.166484035373287, 2.2330268378182154, 2.366450225059907]",,2017_Feb_06_1227,60.035396594,famFaceGrey,001,10,
176,./greyInner/Shakira1_1_cut.png,0,83,83,175,,,1.ja,5.091,None,,None,None,music,0.994,None,None,None,,['return'],[2.549487199556552],,2017_Feb_06_1227,60.035396594,famFaceGrey,001,10,
165,./greyInner/OmarEpps(DrEricForeman)9_1_cut.png,0,84,84,164,,,2.nein,2.412,None,,None,None,music,0.629,None,None,None,,['return'],[0.9335566396528066],,2017_Feb_06_1227,60.035396594,famFaceGrey,001,10,
43,./greyInner/CobieSmulders(Robin)3_4_cut.png,0,85,85,42,,,1.ja,5.413,None,,act,0.775,None,None,None,None,None,,['return'],[1.1167299460573759],,2017_Feb_06_1227,60.035396594,famFaceGrey,001,10,
98,./greyInner/JasonSegel(Marshall)6_1_cut.png,0,86,86,97,,,2.nein,6.268,None,,None,None,None,None,polit,2.455,None,,['return'],[1.150089241263231],,2017_Feb_06_1227,60.035396594,famFaceGrey,001,10,
131,./greyInner/LeonardoDiCaprio1_1_cut.png,0,87,87,130,,,1.ja,1.408,None,,act,0.786,None,None,None,None,None,leonardo dicaprio,"['l', 'e', 'o', 'n', 'a', 'r', 'd', 'space', 'backspace', 'o', 'space', 'd', 'i', 'c', 'a', 'p', 'r', 'o', 'backspace', 'i', 'o', 'return']","[0.8001274783537156, 1.0501646889451877, 1.1500642203484404, 1.3332176383337355, 1.433101130688783, 1.6498108033895278, 1.8497891827528292, 1.96624325718426, 2.2828665756503597, 2.49944825674811, 2.5994690433542473, 2.6991433865232466, 2.9325189132455307, 3.5657838346926383, 3.782274093216529, 3.8655299044842195, 4.0656468612226035, 4.664971553144369, 4.998510614000452, 5.231725750242504, 5.298305121717249, 5.564860627088365]",,2017_Feb_06_1227,60.035396594,famFaceGrey,001,10,
212,./greyInner/notfamousface11_1_cut.png,0,88,88,211,,,1.ja,8.315,None,,act,1.502,None,None,None,None,None,,['return'],[1.18332118642752],,2017_Feb_06_1227,60.035396594,famFaceGrey,001,10,
197,./greyInner/UrsulavonderLeyen4_1_cut.png,0,89,89,196,,,1.ja,7.589,None,,None,None,None,None,polit,1.595,None,hillary clinton,"['h', 'i', 'l', 'l', 'a', 'r', 'y', 'space', 'c', 'l', 'i', 'n', 't', 'o', 'n', 'return']","[1.016799619681933, 1.1002087642489187, 1.3332763412493023, 1.467059965509634, 1.5665521050930238, 1.7830417220548043, 2.0163181274604085, 2.0998061841435174, 2.333017471014273, 2.3996375816707314, 2.598764929145773, 2.765363483321835, 2.9154761415952635, 2.965308501465188, 3.1152107274285754, 3.432384185241972]",,2017_Feb_06_1227,60.035396594,famFaceGrey,001,10,
133,./greyInner/LeonardoDiCaprio3_1_cut.png,0,90,90,132,,,1.ja,1.748,None,,act,1.563,None,None,None,None,None,leonardo di caprio,"['l', 'e', 'o', 'n', 'a', 'r', 'd', 'o', 'space', 'd', 'i', 'space', 'c', 'a', 'p', 'r', 'i', 'o', 'return']","[0.6835964164915822, 0.8669580213202153, 0.9664216113981183, 1.1667855694759055, 1.2500635146300283, 1.4166492375677535, 1.6499843458889245, 1.6742879945800269, 1.766378113499968, 1.9997436960125015, 2.0248829791055414, 2.1995016988557836, 2.516203608657406, 2.7160337872169293, 2.8327723943602905, 2.99926380769557, 3.1993162874607606, 3.282570174042803, 3.49907165990021]",,2017_Feb_06_1227,60.035396594,famFaceGrey,001,10,
110,./greyInner/JoachimLoew8_1_cut.png,0,91,91,109,,,1.ja,1.273,None,,None,None,None,None,sport,1.539,None,jogi löw,"['j', 'o', 'g', 'i', 'space', 'l', u'\xf6', 'w', 'return']","[1.0667647828697682, 1.2332901989868787, 1.566563653207595, 1.6331346843771826, 1.8496313585201278, 2.266143301837019, 2.8160279490034554, 3.0826867458440574, 3.282487091774101]",,2017_Feb_06_1227,60.035396594,famFaceGrey,001,10,
10,./greyInner/AngelaMerkel6_1_cut.png,0,92,92,9,,,1.ja,1.476,None,,None,None,None,None,polit,0.703,None,angela merkel,"['a', 'n', 'g', 'w', 'e', 'l', 'a', 'backspace', 'backspace', 'backspace', 'backspace', 'e', 'l', 'a', 'space', 'm', 'e', 'r', 'k', 'e', 'l', 'return']","[0.4005870933140159, 0.6334554653378746, 0.7504715480120012, 0.9671353490355159, 1.017130665633431, 1.2169031036200977, 1.8167278930593511, 1.9833434486263286, 2.116552874967283, 2.26658341331472, 2.3832755072189684, 3.049511578909687, 3.1829131530460018, 3.249469749072432, 3.315890654752593, 3.4327373650796744, 3.615936333961372, 3.682605524104929, 3.832448405590412, 3.8991878467643346, 4.298762234585865]",,2017_Feb_06_1227,60.035396594,famFaceGrey,001,10,
4,./greyInner/AlysonHannigan(Lily)5_4_cut.png,0,93,93,3,,,1.ja,1.983,None,,act,0.666,None,None,None,None,None,willow,"['w', 'i', 'l', 'l', 'o', 'w', 'return']","[0.5501964462603155, 0.7332953314823953, 0.9332916745793227, 1.0499667670926556, 1.1998792580466215, 1.2832970636995924, 1.433042427772989]",,2017_Feb_06_1227,60.035396594,famFaceGrey,001,10,
79,./greyInner/GeorgeClooney3_1_cut.png,0,94,94,78,,,1.ja,2.179,None,,act,2.179,None,None,None,None,None,clooney,"['c', 'l', 'o', 'o', 'n', 'e', 'y', 'return']","[0.7336186786903909, 0.900124527169055, 1.1002199915828896, 1.1833446034377175, 1.5999117210797067, 1.6831563050141085, 1.8996946806819324, 2.0665963728656607]",,2017_Feb_06_1227,60.035396594,famFaceGrey,001,10,
113,./greyInner/JoshRadnor(Ted)6_2_cut.png,0,95,95,112,,,2.nein,4.628,None,,dummy,0.88,None,None,None,None,None,,['return'],[1.2000563291367143],,2017_Feb_06_1227,60.035396594,famFaceGrey,001,10,
117,./greyInner/JudithRakers2_1_cut.png,0,96,96,116,,,2.nein,4.031,None,,act,1.183,None,None,None,None,None,,['return'],[1.116664185960417],,2017_Feb_06_1227,60.035396594,famFaceGrey,001,10,
92,./greyInner/JanHofer3_1_cut.png,0,97,97,91,,,1.ja,2.488,None,,None,None,None,None,polit,1.13,None,,['return'],[1.3335079451028378],,2017_Feb_06_1227,60.035396594,famFaceGrey,001,10,
178,./greyInner/Shakira3_1_cut.png,0,98,98,177,,,1.ja,2.696,None,,None,None,music,1.163,None,None,None,beyonce,"['b', 'e', 'o', 'backspace', 'y', 'o', 'n', 'c', 'e', 'return']","[0.7834574541795973, 0.9166970339308591, 1.2499926220377802, 1.733165094412243, 1.899521458963136, 1.9498263291879994, 2.1329059675524604, 2.2830943301323714, 2.499738242736157, 2.6494172051509395]",,2017_Feb_06_1227,60.035396594,famFaceGrey,001,10,
210,./greyInner/WillSmith6_1_cut.png,0,99,99,209,,,1.ja,1.211,None,,dummy,0.629,None,None,None,None,None,will smith,"['w', 'i', 'l', 'l', 'space', 's', 'm', 'i', 't', 'h', 'return']","[0.5670435415242991, 0.7668413212068117, 0.9832869911772377, 1.1166115778830772, 1.183407476505863, 1.3000116764269478, 1.3833678921355386, 1.583270887972958, 1.7165082222575165, 1.799792903811749, 1.9997273361834687]",,2017_Feb_06_1227,60.035396594,famFaceGrey,001,10,
48,./greyInner/CristinMilioti(Tracy_Mutter)4_2_cut.png,0,100,100,47,,,2.nein,5.892,None,,dummy,1.145,None,None,None,None,None,,['return'],[1.1672324173539437],,2017_Feb_06_1227,60.035396594,famFaceGrey,001,10,
57,./greyInner/ElvisPresley2_1_cut.png,0,101,101,56,,,1.ja,1.446,None,,None,None,music,0.979,None,None,None,elvis,"['e', 'l', 'v', 'i', 's', 'return']","[0.5334199228072976, 0.716854986475937, 0.9332618419500704, 1.000062873068373, 1.1835479785668213, 1.283502363514117]",,2017_Feb_06_1227,60.035396594,famFaceGrey,001,10,
156,./greyInner/NicoleKidman14_1_cut.png,0,102,102,155,,,1.ja,1.206,None,,act,0.58,None,None,None,None,None,nicole kidman,"['n', 'i', 'c', 'o', 'l', 'e', 'space', 'k', 'i', 'd', 'm', 'a', 'n', 'return']","[0.6835049939179498, 0.83353777773209, 0.9335296940519129, 1.033409337035664, 1.2334707986676676, 1.3333876522426635, 1.4499793417062392, 1.7497837936325595, 1.9828064612984235, 2.116422958678413, 2.232783365069281, 2.3830015602786716, 2.4328368071774094, 2.6161515779856472]",,2017_Feb_06_1227,60.035396594,famFaceGrey,001,10,
196,./greyInner/UrsulavonderLeyen1_1_cut.png,0,103,103,195,,,1.ja,5.072,None,,None,None,None,None,polit,1.214,None,hillary,"['h', 'i', 'l', 'l', 'a', 'r', 'y', 'return']","[0.6503089762211403, 0.8169219655405868, 1.0168679460266503, 1.1669219013842849, 1.2169351817160532, 1.4168166852291506, 1.6500138577375765, 1.9166944676833282]",,2017_Feb_06_1227,60.035396594,famFaceGrey,001,10,
49,./greyInner/CristinMilioti(Tracy_Mutter)8_1_cut.png,0,104,104,48,,,2.nein,3.453,None,,act,0.937,None,None,None,None,None,,['return'],[1.0165824509717822],,2017_Feb_06_1227,60.035396594,famFaceGrey,001,10,
146,./greyInner/MilaKunis1_3_cut.png,0,105,105,145,,,1.ja,2.193,None,,None,None,music,0.506,None,None,None,,['return'],[1.2165476783156919],,2017_Feb_06_1227,60.035396594,famFaceGrey,001,10,
195,./greyInner/TomCruise7_1_cut.png,0,106,106,194,,,1.ja,1.291,None,,act,0.847,None,None,None,None,None,tom cruise,"['t', 'o', 'm', 'space', 'c', 'r', 'u', 'i', 's', 'e', 'return']","[0.6499330209355776, 0.8666972263995376, 1.0664154524038167, 1.1498470516380621, 1.2500259832579559, 1.4832077582800594, 1.7663819628717192, 1.8328243608762023, 1.9328525254445594, 2.1328318671505713, 2.266233762067941]",,2017_Feb_06_1227,60.035396594,famFaceGrey,001,10,
222,./greyInner/notfamousface7_cut.png,0,107,107,221,,,2.nein,5.862,None,,dummy,1.05,None,None,None,None,None,,['return'],[1.033573256106365],,2017_Feb_06_1227,60.035396594,famFaceGrey,001,10,
73,./greyInner/GuentherJauch4_1_cut.png,0,108,108,72,,,1.ja,1.028,None,,None,None,host,1.361,None,None,None,jauch,"['j', 'a', 'u', 'c', 'h', 'return']","[1.1671031426269565, 1.3000309232845666, 1.3834862603098372, 1.483470157105785, 1.5334882491517874, 1.7331381488115767]",,2017_Feb_06_1227,60.035396594,famFaceGrey,001,10,
106,./greyInner/JoachimLoew1_1_cut.png,0,109,109,105,,,1.ja,1.504,None,,None,None,None,None,sport,0.905,None,löw,"['l', u'\xf6', 'w', 'return']","[0.56690849274014, 0.7167032570814627, 0.8500679414073602, 0.9832828210246589]",,2017_Feb_06_1227,60.035396594,famFaceGrey,001,10,
40,./greyInner/CarenMiosga9_1_cut.png,0,110,110,39,,,2.nein,6.427,None,,None,None,host,2.277,None,None,None,,['return'],[1.1335022993580424],,2017_Feb_06_1227,60.035396594,famFaceGrey,001,10,
47,./greyInner/CristinMilioti(Tracy_Mutter)2_1_cut.png,0,111,111,46,,,2.nein,7.277,None,,None,None,music,1.03,None,None,None,,['return'],[1.1498509010095859],,2017_Feb_06_1227,60.035396594,famFaceGrey,001,10,
21,./greyInner/BenedictCumberbatch16_1_cut.png,0,112,112,20,,,1.ja,1.477,None,,act,0.928,None,None,None,None,None,cumberbatch,"['c', 'u', 'm', 'b', 'e', 'r', 'b', 'a', 't', 'c', 'h', 'return']","[0.6835890385295897, 0.9167499627894813, 1.1329989940309133, 1.3331772199326224, 1.4165597396797693, 1.5663400688781621, 1.6997971381206298, 1.783055194855251, 1.9995120921591933, 2.2328863357574846, 2.299499389233006, 2.5160255752243756]",,2017_Feb_06_1227,60.035396594,famFaceGrey,001,10,
26,./greyInner/Beyonce1_1_cut.png,0,113,113,25,,,1.ja,1.394,None,,None,None,music,0.629,None,None,None,beyonce,"['b', 'e', 'y', 'y', 'backspace', 'o', 'n', 'c', 'e', 'return']","[0.7668429251116322, 1.2667967326533471, 1.5832885309257563, 2.216552810810981, 2.732993797379322, 2.9495770823816656, 3.2159183060712166, 3.315777098292301, 3.54905157901203, 3.732581914626053]",,2017_Feb_06_1227,60.035396594,famFaceGrey,001,10,
89,./greyInner/Ice-T(OdafinFinTutuola)6_1_cut.png,0,114,114,88,,,1.ja,3.694,None,,act,1.087,None,None,None,None,None,,['return'],[4.332285769643477],,2017_Feb_06_1227,60.035396594,famFaceGrey,001,10,
136,./greyInner/LisaEdelstein(DrLisaCuddy)1_1_cut.png,0,115,115,135,,,1.ja,2.279,None,,act,2.28,None,None,None,None,None,lisa cuddie,"['l', 'i', 's', 'a', 'space', 'c', 'u', 'd', 'd', 'i', 'e', 'return']","[0.6669636029089361, 0.9001078465587398, 1.099969140871508, 1.2498482706055256, 1.3498828507931648, 1.616494172051489, 1.7497879637851383, 1.8997703849884147, 2.049704047485875, 2.082870232553205, 2.266363357575756, 2.4161465738027346]",,2017_Feb_06_1227,60.035396594,famFaceGrey,001,10,
7,./greyInner/AngelaMerkel3_1_cut.png,0,116,116,6,,,1.ja,1.453,None,,None,None,None,None,polit,1.403,None,merkel,"['m', 'e', 'r', 'k', 'e', 'l', 'return']","[0.7167587521876158, 0.8334367317295346, 1.0500331687512698, 1.1500408033382428, 1.2332911613295892, 1.3498196569439642, 1.7498736123015988]",,2017_Feb_06_1227,60.035396594,famFaceGrey,001,10,
107,./greyInner/JoachimLoew12_1_cut.png,0,117,117,106,,,1.ja,7.645,None,,act,0.897,None,None,None,None,None,,['return'],[1.1170561802941847],,2017_Feb_06_1227,60.035396594,famFaceGrey,001,10,
119,./greyInner/JudithRakers7_1_cut.png,0,118,118,118,,,1.ja,5.776,None,,act,0.713,None,None,None,None,None,,['return'],[0.9331508517375369],,2017_Feb_06_1227,60.035396594,famFaceGrey,001,10,
194,./greyInner/TomCruise6_1_cut.png,0,119,119,193,,,1.ja,1.467,None,,act,0.712,None,None,None,None,None,cruise,"['c', 'r', 'u', 'i', 's', 'e', 'return']","[0.7339766702421002, 0.9672505093999462, 1.1838373229929857, 1.2069438171392903, 1.2838282769698708, 1.4670545122330623, 1.6170536140466538]",,2017_Feb_06_1227,60.035396594,famFaceGrey,001,10,
44,./greyInner/CobieSmulders(Robin)4_7_cut.png,0,120,120,43,,,1.ja,9.261,None,,act,0.88,None,None,None,None,None,,['return'],[0.6667833240094296],,2017_Feb_06_1227,60.035396594,famFaceGrey,001,10,
193,./greyInner/TomCruise5_1_cut.png,0,121,121,192,,,1.ja,1.761,None,,act,0.694,None,None,None,None,None,cruise,"['c', 'r', 'i', 'u', 's', 'e', 'backspace', 'backspace', 'backspace', 'backspace', 'u', 'i', 's', 'e', 'return']","[0.6001667419432124, 0.8668896949757254, 1.1998821450752075, 1.2666045848582144, 1.3829011558377715, 1.549852248289426, 2.1328273762169374, 2.2660438597390566, 2.416011845799403, 2.5660253827559245, 3.0159232460978274, 3.0490201424781844, 3.165837340956841, 3.382279803117399, 3.6155677566375743]",,2017_Feb_06_1227,60.035396594,famFaceGrey,001,10,
199,./greyInner/UrsulavonderLeyen7_1_cut.png,0,122,122,198,,,2.nein,1.83,None,,None,None,host,3.146,None,None,None,,['return'],[1.199717905223224],,2017_Feb_06_1227,60.035396594,famFaceGrey,001,10,
211,./greyInner/notfamousface10_4_cut.png,0,123,123,210,,,1.ja,3.58,None,,None,None,None,None,polit,1.099,None,,['return'],[1.0665498596263205],,2017_Feb_06_1227,60.035396594,famFaceGrey,001,10,
112,./greyInner/JoshRadnor(Ted)3_1_cut.png,0,124,124,111,,,1.ja,2.68,None,,act,0.766,None,None,None,None,None,,['return'],[0.8002718297857427],,2017_Feb_06_1227,60.035396594,famFaceGrey,001,10,
135,./greyInner/LeonardoDiCaprio7_1_cut.png,0,125,125,134,,,1.ja,1.519,None,,act,0.67,None,None,None,None,None,dicaprio,"['d', 'i', 'c', 'a', 'p', 'r', 'i', 'o', 'return']","[0.9000664658151436, 1.116627616931055, 1.2664332878252935, 1.4829511335119605, 1.5662714217528446, 2.0495574505871446, 2.1495756709455236, 2.1995478913145234, 2.6160864594507984]",,2017_Feb_06_1227,60.035396594,famFaceGrey,001,10,
71,./greyInner/GuentherJauch2_1_cut.png,0,126,126,70,,,1.ja,1.445,None,,None,None,host,1.562,None,None,None,jauch,"['j', 'a', 'u', 'c', 'h', 'return']","[0.6835790943200664, 0.8337023383651285, 0.9345558723448448, 1.066815466261687, 1.1334541822138817, 1.333485169654523]",,2017_Feb_06_1227,60.035396594,famFaceGrey,001,10,
14,./greyInner/BarackObama4_1_cut.png,0,127,127,13,,,1.ja,2.13,None,,None,None,None,None,polit,0.729,None,obama,"['o', 'a', 'b', 'backspace', 'backspace', 'b', 'a', 'm', 'a', 'return']","[0.6668250255343082, 0.8665429307575323, 0.9333747568480248, 1.3998412775808902, 1.5498830432620707, 1.7663803589666713, 1.9163502697128934, 2.0162796337453983, 2.1662957369494507, 2.5825738309458757]",,2017_Feb_06_1227,60.035396594,famFaceGrey,001,10,
25,./greyInner/BenedictCumberbatch6_5_cut.png,0,128,128,24,,,1.ja,1.288,None,,act,0.575,None,None,None,None,None,cumberbatch,"['c', 'u', 'm', 'b', 'e', 'r', 'b', 'a', 'c', 'backspace', 't', 'c', 'h', 'return']","[0.39987303489624537, 0.5671888552997189, 0.7504795675363312, 0.9338187176977044, 1.0004869454983236, 1.1500132161759211, 1.3502264072021717, 1.4335944918061614, 1.6167222473145557, 1.8999840251085516, 1.9832545923004545, 2.2332353454426084, 2.2575986593924426, 2.466467803856631]",,2017_Feb_06_1227,60.035396594,famFaceGrey,001,10,
139,./greyInner/LisaEdelstein(DrLisaCuddy)6_3_cut.png,0,129,129,138,,,1.ja,1.458,None,,act,0.841,None,None,None,None,None,lisa cuddie,"['l', 'i', 's', 'a', 'space', 'c', 'u', 'd', 'd', 'i', 'e', 'return']","[0.7666209446870198, 0.9833357498832811, 1.1162891930175647, 1.2500259832577285, 1.3499194198225268, 1.4998841980732323, 1.5662694970665143, 1.716415516559664, 1.8496169233767432, 1.91607824745779, 2.049613587254953, 2.132921365038328]",,2017_Feb_06_1227,60.035396594,famFaceGrey,001,10,
218,./greyInner/notfamousface3_3_cut.png,0,130,130,217,,,2.nein,4.114,None,,act,1.541,None,None,None,None,None,,['return'],[1.1166532794081832],,2017_Feb_06_1227,60.035396594,famFaceGrey,001,10,
65,./greyInner/EmilyDeschanel8_3_cut.png,0,131,131,64,,,2.nein,3.754,None,,None,None,music,3.64,None,None,None,,['return'],[1.11696507850138],,2017_Feb_06_1227,60.035396594,famFaceGrey,001,10,
201,./greyInner/Usher1_1_cut.png,0,132,132,200,,,1.ja,2.729,None,,act,1.169,None,None,None,None,None,,['return'],[2.5658996366191786],,2017_Feb_06_1227,60.035396594,famFaceGrey,001,10,
124,./greyInner/KaleyCuoco(Penny)5_2_cut.png,0,133,133,123,,,1.ja,2.451,None,,act,1.151,None,None,None,None,None,penny,"['p', 'e', 'n', 'n', 'y', 'return']","[0.6168354829933378, 0.8666965848374275, 1.0334997972663587, 1.1499144156396142, 1.2832284165738201, 1.4331319256607458]",,2017_Feb_06_1227,60.035396594,famFaceGrey,001,10,
100,./greyInner/JasonSegel(Marshall)9_1_cut.png,0,134,134,99,,,1.ja,12.158,None,,act,0.68,None,None,None,None,None,,['return'],[1.167176922248018],,2017_Feb_06_1227,60.035396594,famFaceGrey,001,10,
50,./greyInner/CristinMilioti(Tracy_Mutter)9_1_cut.png,0,135,135,49,,,1.ja,2.885,None,,act,0.902,None,None,None,None,None,willow,"['w', 'i', 'l', 'l', 'o', 'w', 'return']","[0.866683112037208, 1.0666409614186705, 1.2997810349161227, 1.4330629577543732, 1.5997218187508224, 1.749573682103346, 2.1662543562051724]",,2017_Feb_06_1227,60.035396594,famFaceGrey,001,10,
78,./greyInner/GeorgeClooney16_1_cut.png,0,136,136,77,,,2.nein,5.823,None,,act,0.908,None,None,None,None,None,,['return'],[1.133930541940117],,2017_Feb_06_1227,60.035396594,famFaceGrey,001,10,
13,./greyInner/BarackObama2_1_cut.png,0,137,137,12,,,1.ja,1.045,None,,None,None,None,None,polit,0.647,None,obama,"['o', 'b', 'a', 'm', 'a', 'return']","[0.6667907019714221, 0.9001399246549227, 1.016723273813568, 1.1167633072773242, 1.2165775109451715, 1.3499255146612086]",,2017_Feb_06_1227,60.035396594,famFaceGrey,001,10,
221,./greyInner/notfamousface6_8_cut.png,0,138,138,220,,,1.ja,7.166,None,,dummy,0.927,None,None,None,None,None,,['return'],[0.7167529781304438],,2017_Feb_06_1227,60.035396594,famFaceGrey,001,10,
8,./greyInner/AngelaMerkel4_1_cut.png,0,139,139,7,,,1.ja,0.944,None,,None,None,None,None,polit,0.959,None,merkel,"['m', 'e', 'r', 'k', 'e', 'l', 'return']","[0.6167594579055731, 0.7668679460266503, 0.9165985541758346, 1.0166238317156058, 1.1165618568338687, 1.266474668569117, 1.5165587131805296]",,2017_Feb_06_1227,60.035396594,famFaceGrey,001,10,
90,./greyInner/Ice-T(OdafinFinTutuola)7_1_cut.png,0,140,140,89,,,1.ja,1.876,None,,dummy,1.327,None,None,None,None,None,,['return'],[1.1832506146160995],,2017_Feb_06_1227,60.035396594,famFaceGrey,001,10,
55,./greyInner/DannFlorek(DonaldDonCragen)8_1_cut.png,0,141,141,54,,,1.ja,2.798,None,,None,None,None,None,polit,1.98,None,,['return'],[1.067012104990681],,2017_Feb_06_1227,60.035396594,famFaceGrey,001,10,
125,./greyInner/KaleyCuoco(Penny)7_1_cut.png,0,142,142,124,,,1.ja,4.074,None,,act,0.794,None,None,None,None,None,penny,"['p', 'e', 'n', 'n', 'y', 'return']","[0.8666824704750979, 1.1499147364206692, 1.2996793473516846, 1.416510660192671, 1.5497393333912441, 1.9163971037328338]",,2017_Feb_06_1227,60.035396594,famFaceGrey,001,10,
123,./greyInner/KaleyCuoco(Penny)3_1_cut.png,0,143,143,122,,,1.ja,1.563,None,,act,0.83,None,None,None,None,None,penny,"['p', 'e', 'n', 'n', 'y', 'return']","[0.766900986465771, 0.9834117749710458, 1.1333804025930476, 1.249993905161773, 1.4499677935918953, 1.5831281404457513]",,2017_Feb_06_1227,60.035396594,famFaceGrey,001,10,
154,./greyInner/NeilPatrickHarris(Barney)2_2_cut.png,0,144,144,153,,,2.nein,4.229,None,,dummy,1.48,None,None,None,None,None,,['return'],[1.1002138967446626],,2017_Feb_06_1227,60.035396594,famFaceGrey,001,10,
52,./greyInner/DannFlorek(DonaldDonCragen)10_1_cut.png,0,145,145,51,,,2.nein,3.668,None,,None,None,None,None,polit,0.803,None,,['return'],[0.650579394570741],,2017_Feb_06_1227,60.035396594,famFaceGrey,001,10,
66,./greyInner/EmmaWatson(HermioneGranger)11_2_cut.png,0,146,146,65,,,1.ja,1.251,None,,dummy,0.678,None,None,None,None,None,emma watson,"['e', 'm', 'm', 'a', 'space', 'w', 'a', 't', 's', 'o', 'm', 'backspace', 'n', 'return']","[0.8168096922045152, 0.9499094114567015, 1.0999550265096332, 1.2333566006459478, 1.3497811632287267, 1.466505656010213, 1.6165320242048438, 1.8496589456831316, 2.0328867848511436, 2.5160983925024993, 2.682771688642333, 3.0825500931550778, 3.315781589225935, 3.549028162002287]",,2017_Feb_06_1227,60.035396594,famFaceGrey,001,10,
33,./greyInner/BritneySpears5_1_cut.png,0,147,147,32,,,1.ja,1.303,None,,None,None,music,0.645,None,None,None,britney,"['b', 'r', 'i', 't', 'n', 'e', 'y', 'return']","[0.7681581270494462, 0.9331409075275587, 1.2997127085714055, 1.782923995442161, 1.882951518448408, 2.066207586341079, 2.2660310285004925, 2.4162206742043963]",,2017_Feb_06_1227,60.035396594,famFaceGrey,001,10,
155,./greyInner/NeilPatrickHarris(Barney)3_7_cut.png,0,148,148,154,,,1.ja,3.484,None,,act,0.551,None,None,None,None,None,,['return'],[0.6005311491144312],,2017_Feb_06_1227,60.035396594,famFaceGrey,001,10,
15,./greyInner/BarackObama5_2_cut.png,0,149,149,14,,,1.ja,1.513,None,,None,None,None,None,polit,0.812,None,obama,"['o', 'b', 'a', 'm', 'a', 'return']","[0.6504308729863624, 0.9167926266572977, 1.033700606147704, 1.1336444053235937, 1.2669086852088185, 1.3668964313760625]",,2017_Feb_06_1227,60.035396594,famFaceGrey,001,10,
141,./greyInner/MariskaHargitay(Liv)13_1_cut.png,0,150,150,140,,,1.ja,4.244,None,,None,None,music,0.546,None,None,None,,['return'],[0.7999452747681062],,2017_Feb_06_1227,60.035396594,famFaceGrey,001,10,
189,./greyInner/TaylorSwift7_1_cut.png,0,151,151,188,,,1.ja,1.252,None,,None,None,music,0.747,None,None,None,tayor swift,"['t', 'a', 'y', 'o', 'r', 'space', 's', 'i', 'backspace', 'w', 'i', 'f', 't', 'return']","[0.7501947140426637, 1.1165631399576341, 1.3499608005663504, 1.44995047141947, 1.7498226081288522, 1.866422637897358, 2.0662675723806387, 2.2662882948307015, 2.5660741414617405, 2.64947205869521, 2.7325886510261626, 2.9494340140731765, 3.1324231922067156, 3.282398877009655]",,2017_Feb_06_1227,60.035396594,famFaceGrey,001,10,
64,./greyInner/EmilyDeschanel6_12_cut.png,0,152,152,63,,,1.ja,3.743,None,,act,0.423,None,None,None,None,None,,['return'],[0.533684567099499],,2017_Feb_06_1227,60.035396594,famFaceGrey,001,10,
37,./greyInner/CarenMiosga13_1_cut.png,0,153,153,36,,,2.nein,2.522,None,,None,None,host,1.76,None,None,None,,['return'],[0.9333115629988242],,2017_Feb_06_1227,60.035396594,famFaceGrey,001,10,
82,./greyInner/HughLaurie(DrHouse)4_1_cut.png,0,154,154,81,,,1.ja,1.176,None,,act,0.642,None,None,None,None,None,hugh laurie,"['h', 'u', 'g', 'h', 'space', 'l', 'a', 'u', 'r', 'i', 'e', 'return']","[0.6668198930387916, 0.7667104425754587, 0.933124547699208, 0.9999611855041621, 1.1507128394505344, 1.3330771362730047, 1.4663510395871526, 1.6494213753035183, 1.8162775165910716, 1.8996228257469738, 2.032833214430866, 2.5328004947728004]",,2017_Feb_06_1227,60.035396594,famFaceGrey,001,10,
12,./greyInner/BarackObama11_2_cut.png,0,155,155,11,,,1.ja,1.325,None,,None,None,None,None,polit,0.621,None,obama,"['o', 'b', 'a', 'm', 'a', 'return']","[1.0999457238613104, 1.3166557173431102, 1.4161507439553134, 1.5333082910328812, 1.6333621180783666, 1.7500012831237655]",,2017_Feb_06_1227,60.035396594,famFaceGrey,001,10,
203,./greyInner/Usher2_1_cut.png,0,156,156,202,,,1.ja,2.278,None,,None,None,music,0.595,None,None,None,,['return'],[0.7338182044477435],,2017_Feb_06_1227,60.035396594,famFaceGrey,001,10,
121,./greyInner/KaleyCuoco(Penny)10_1_cut.png,0,157,157,120,,,1.ja,1.301,None,,act,0.442,None,None,None,None,None,penny,"['p', 'e', 'n', 'n', 'y', 'return']","[0.5169141384853901, 0.7667970534344022, 0.9166598233396144, 1.0667436113267286, 1.1832833342746198, 1.3333003998213826]",,2017_Feb_06_1227,60.035396594,famFaceGrey,001,10,
86,./greyInner/Ice-T(OdafinFinTutuola)10_1_cut.png,0,158,158,85,,,1.ja,1.397,None,,act,0.464,None,None,None,None,None,,['return'],[0.6000766024935729],,2017_Feb_06_1227,60.035396594,famFaceGrey,001,10,
80,./greyInner/GeorgeClooney4_2_cut.png,0,159,159,79,,,1.ja,1.334,None,,dummy,0.418,None,None,None,None,None,clooney,"['c', 'l', 'l', 'o', 'n', 'backspace', 'backspace', 'backspace', 'p', 'backspace', 'o', 'o', 'n', 'e', 'y', 'return']","[0.7334550804002902, 0.8834172924034647, 1.0165513352185371, 1.183261521168788, 1.333200316161765, 1.7829913594441678, 1.949663051679181, 2.066286819238485, 2.2163074133763985, 2.682767839270582, 2.8659950368769387, 2.999165327940773, 3.1825208379309515, 3.2490716599004372, 3.7989251913136286, 4.115518356369648]",,2017_Feb_06_1227,60.035396594,famFaceGrey,001,10,
62,./greyInner/EmilyDeschanel3_1_cut.png,0,160,160,61,,,2.nein,3.571,None,,None,None,music,0.561,None,None,None,,['return'],[1.0168207912256548],,2017_Feb_06_1227,60.035396594,famFaceGrey,001,10,
30,./greyInner/Beyonce8_3_cut.png,0,161,161,29,,,1.ja,1.846,None,,None,None,music,0.747,None,None,None,beyonce,"['b', 'e', 'y', 'o', 'n', 'c', 'e', 'return']","[0.7500792328974057, 0.9501891324543976, 1.2500519665159118, 1.4165825151280842, 1.599963366814336, 1.7499688842472096, 1.9665476783161466, 2.283176770839418]",,2017_Feb_06_1227,60.035396594,famFaceGrey,001,10,
20,./greyInner/BastianSchweinsteiger6_2_cut.png,0,162,162,19,,,1.ja,1.505,None,,None,None,None,None,sport,0.589,None,schweinsteiger,"['s', 'c', 'h', 'w', 'e', 'i', 'n', 's', 't', 'e', 'i', 'g', 'e', 'r', 'return']","[0.5667586880317685, 0.7834074123497885, 0.8501070766847079, 1.0332608154508307, 1.1833648126385015, 1.2667498986334067, 1.3832196913317603, 1.4664405374751368, 1.7165374133251134, 1.8996067866987687, 1.9996618968675648, 2.116277644903221, 2.282577552005023, 2.3160157593270014, 2.4496239164018334]",,2017_Feb_06_1227,60.035396594,famFaceGrey,001,10,
31,./greyInner/BritneySpears1_1_cut.png,0,163,163,30,,,1.ja,1.459,None,,None,None,music,0.943,None,None,None,britney,"['b', 'r', 'i', 't', 'n', 'e', 'y', 'return']","[0.6835470162236561, 0.883360193392491, 1.0499747866165308, 1.216701332395587, 1.3496271883677764, 1.4830037415890729, 1.949708923356411, 2.166228372947444]",,2017_Feb_06_1227,60.035396594,famFaceGrey,001,10,
17,./greyInner/BastianSchweinsteiger12_1_cut.png,0,164,164,16,,,1.ja,3.092,None,,None,None,None,None,sport,0.947,None,schweini,"['s', 'c', 'h', 'w', 'e', 'i', 'n', 'i', 'return']","[0.6167594579055731, 0.8000437545229033, 0.866746947448064, 1.0332608154508307, 1.1999921729443486, 1.2998483989181295, 1.3329061600206842, 1.4831095993058625, 1.7331490553642652]",,2017_Feb_06_1227,60.035396594,famFaceGrey,001,10,
158,./greyInner/NicoleKidman5_1_cut.png,0,165,165,157,,,1.ja,1.3,None,,act,1.01,None,None,None,None,None,nicole kidman,"['n', 'i', 'c', 'o', 'l', 'e', 'space', 'k', 'i', 'd', 'm', 'a', 'n', 'return']","[0.6332889800191879, 0.7502591910160845, 0.8332939842021005, 0.9667581106255057, 1.1166388442643438, 1.1834033063532843, 1.3165206685584963, 1.699760248309758, 1.8829868043540046, 1.9664912208663736, 2.099601525890648, 2.216229463602758, 2.2493950071084328, 2.466216953145249]",,2017_Feb_06_1227,60.035396594,famFaceGrey,001,10,
91,./greyInner/JanHofer1_3_cut.png,0,166,166,90,,,2.nein,4.454,None,,None,None,None,None,polit,2.347,None,,['return'],[1.0666784927916524],,2017_Feb_06_1227,60.035396594,famFaceGrey,001,10,
132,./greyInner/LeonardoDiCaprio2_1_cut.png,0,167,167,131,,,1.ja,1.196,None,,act,0.66,None,None,None,None,None,dicaprio,"['d', 'i', 'c', 'a', 'p', 'r', 'i', 'o', 'return']","[0.6001484574285314, 0.7666302473348878, 0.9999983960951795, 1.183154059547178, 1.2832977052612478, 1.4663956281401624, 1.583065588158206, 1.6495910684316186, 1.8663029865988392]",,2017_Feb_06_1227,60.035396594,famFaceGrey,001,10,
169,./greyInner/RobertSeanLeonard(Wilson)2_6_cut.png,0,168,168,168,,,1.ja,1.286,None,,act,0.702,None,None,None,None,None,wilson,"['w', 'i', 'l', 's', 'o', 'n', 'return']","[0.5336874541285397, 0.6500934114155825, 0.8336664108974219, 0.9169761133666725, 1.0001773918711478, 1.1335003746721668, 1.6999062036470605]",,2017_Feb_06_1227,60.035396594,famFaceGrey,001,10,
175,./greyInner/SahraWagenknecht9_1_cut.png,0,169,169,174,,,1.ja,2.252,None,,None,None,None,None,polit,0.793,None,wagenknecht,"['w', 'a', 'g', 'e', 'n', 'k', 'n', 'e', 'c', 'h', 't', 'return']","[0.550067492314156, 0.7334140204375217, 0.850030410034833, 0.9996618968675648, 1.0831967875710689, 1.2830596857884302, 1.466354888958449, 1.5830357555287264, 1.7829111642040516, 1.816329803887129, 1.9995265273023506, 2.0829051976779738]",,2017_Feb_06_1227,60.035396594,famFaceGrey,001,10,
150,./greyInner/MilaKunis7_3_cut.png,0,170,170,149,,,1.ja,4.185,None,,None,None,music,2.209,None,None,None,,['return'],[1.083252282677222],,2017_Feb_06_1227,60.035396594,famFaceGrey,001,10,
191,./greyInner/TomCruise1_1_cut.png,0,171,171,190,,,1.ja,2.047,None,,dummy,0.547,None,None,None,None,None,cruise,"['c', 'r', 'u', 'i', 's', 'e', 'return']","[0.6670072291194629, 0.9002143458378669, 1.1001699497528534, 1.1231984941255178, 1.2499522036368944, 1.4000481813000079, 1.566578088350525]",,2017_Feb_06_1227,60.035396594,famFaceGrey,001,10,
76,./greyInner/GeorgeClooney11_1_cut.png,0,172,172,75,,,1.ja,1.129,None,,act,0.763,None,None,None,None,None,clooney,"['c', 'l', 'o', 'o', 'n', 'e', 'y', 'return']","[0.5673842109044926, 0.7674568998700124, 0.9505872216263924, 1.10011349230399, 1.2502736261594691, 1.3336272756200742, 1.8334627149874905, 2.0662643645714525]",,2017_Feb_06_1227,60.035396594,famFaceGrey,001,10,
190,./greyInner/TaylorSwift8_1_cut.png,0,173,173,189,,,1.ja,1.196,None,,None,None,music,1.045,None,None,None,taylor swift,"['t', 'a', 'y', 'l', 'o', 'r', 'space', 's', 'w', 'i', 'f', 't', 'return']","[0.5001565411084812, 0.8675745623263538, 1.0834181264335712, 1.3165283673015438, 1.4499851157634112, 1.5833844444327951, 1.6666364063294168, 1.8164946853007677, 2.0497768647637713, 2.133102285500172, 2.26645285546374, 2.466302601661937, 2.5995107448788985]",,2017_Feb_06_1227,60.035396594,famFaceGrey,001,10,
118,./greyInner/JudithRakers4_3_cut.png,0,174,174,117,,,2.nein,3.328,None,,dummy,0.779,None,None,None,None,None,,['return'],[0.9999153138264774],,2017_Feb_06_1227,60.035396594,famFaceGrey,001,10,
53,./greyInner/DannFlorek(DonaldDonCragen)2_1_cut.png,0,175,175,52,,,2.nein,1.828,None,,None,None,None,None,polit,0.812,None,,['return'],[0.5503969343603785],,2017_Feb_06_1227,60.035396594,famFaceGrey,001,10,
164,./greyInner/OmarEpps(DrEricForeman)5_2_cut.png,0,176,176,163,,,1.ja,2.857,None,,dummy,0.769,None,None,None,None,None,omar epps,"['o', 'm', 'a', 'r', 'space', 'e', 'p', 'p', 's', 'return']","[0.7670408469643917, 0.9501977935401555, 1.0668343923384782, 1.4331405867469584, 1.5667455360121494, 1.7165111092863299, 1.8498331297441837, 1.99975460256519, 2.099712195322354, 2.1997249624046162]",,2017_Feb_06_1227,60.035396594,famFaceGrey,001,10,
184,./greyInner/SigmarGabriel4_5_cut.png,0,177,177,183,,,1.ja,1.534,None,,None,None,None,None,polit,0.454,None,gabriel,"['g', 'a', 'b', 'r', 'i', 'e', 'l', 'return']","[0.6335940427125024, 0.8835363021398734, 0.9169235052891054, 1.0834588656157393, 1.1334115183462927, 1.2997832803830534, 1.3238277380578438, 1.5333304249193134]",,2017_Feb_06_1227,60.035396594,famFaceGrey,001,10,
215,./greyInner/notfamousface13_1_cut.png,0,178,178,214,,,1.ja,6.353,None,,act,0.496,None,None,None,None,None,,['return'],[0.5836131612577447],,2017_Feb_06_1227,60.035396594,famFaceGrey,001,10,
166,./greyInner/RobertSeanLeonard(Wilson)1_1_cut.png,0,179,179,165,,,1.ja,1.792,None,,act,0.693,None,None,None,None,None,wilson,"['w', 'i', 'l', 's', 'o', 'n', 'return']","[0.616425524925944, 0.7663931902047807, 0.9497855900058312, 1.0329509410430546, 1.1330390916509714, 1.2830532701691482, 1.4662467857747288]",,2017_Feb_06_1227,60.035396594,famFaceGrey,001,10,
72,./greyInner/GuentherJauch3_1_cut.png,0,180,180,71,,,1.ja,1.062,None,,None,None,host,1.369,None,None,None,jauch,"['j', 'a', 'u', 'c', 'h', 'return']","[0.6334978084246359, 0.7167115973866203, 0.8500724323407667, 0.9662833548045455, 0.9903935725760675, 1.2164530479326459]",,2017_Feb_06_1227,60.035396594,famFaceGrey,001,10,
181,./greyInner/SigmarGabriel1_2_cut.png,0,181,181,180,,,1.ja,1.313,None,,None,None,None,None,polit,0.563,None,gabriel,"['g', 'a', 'b', 'r', 'i', 'e', 'l', 'return']","[0.46692876609677114, 0.7000758967751608, 0.766737708956498, 0.9332663328832496, 0.9573435102161056, 1.133454823775537, 1.2166698958617417, 1.4162556393293926]",,2017_Feb_06_1227,60.035396594,famFaceGrey,001,10,
153,./greyInner/NeilPatrickHarris(Barney)13_4_cut.png,0,182,182,152,,,1.ja,4.509,None,,act,2.502,None,None,None,None,None,,['return'],[0.9833286927023437],,2017_Feb_06_1227,60.035396594,famFaceGrey,001,10,
179,./greyInner/Shakira7_1_cut.png,0,183,183,178,,,1.ja,2.363,None,,None,None,music,0.713,None,None,None,beyonce,"['b', 'e', 'y', 'o', 'n', 'c', 'e', 'return']","[0.8000511324848958, 0.9667879432549853, 1.3333879730234912, 1.4167637563705284, 1.5667368749259367, 1.6997692301770257, 1.9497679470528055, 2.099748443570661]",,2017_Feb_06_1227,60.035396594,famFaceGrey,001,10,
151,./greyInner/NeilPatrickHarris(Barney)1_1_cut.png,0,184,184,150,,,1.ja,2.161,None,,act,0.595,None,None,None,None,None,,['return'],[0.5834466759392853],,2017_Feb_06_1227,60.035396594,famFaceGrey,001,10,
177,./greyInner/Shakira2_1_cut.png,0,185,185,176,,,1.ja,3.762,None,,None,None,music,0.462,None,None,None,,['return'],[0.7504882286220891],,2017_Feb_06_1227,60.035396594,famFaceGrey,001,10,
128,./greyInner/KatjaBurkard4_1_cut.png,0,186,186,127,,,1.ja,2.333,None,,act,0.685,None,None,None,None,None,,['return'],[0.7167789613881723],,2017_Feb_06_1227,60.035396594,famFaceGrey,001,10,
88,./greyInner/Ice-T(OdafinFinTutuola)5_1_cut.png,0,187,187,87,,,1.ja,1.146,None,,act,0.413,None,None,None,None,None,,['return'],[0.7173480268120329],,2017_Feb_06_1227,60.035396594,famFaceGrey,001,10,
94,./greyInner/JanHofer7_1_cut.png,0,188,188,93,,,2.nein,1.558,None,,None,None,host,1.425,None,None,None,,['return'],[0.6000509400164447],,2017_Feb_06_1227,60.035396594,famFaceGrey,001,10,
39,./greyInner/CarenMiosga6_2_cut.png,0,189,189,38,,,2.nein,3.096,None,,dummy,0.512,None,None,None,None,None,,['return'],[1.0666810590391833],,2017_Feb_06_1227,60.035396594,famFaceGrey,001,10,
219,./greyInner/notfamousface4_2_cut.png,0,190,190,218,,,2.nein,4.717,None,,None,None,music,0.624,None,None,None,,['return'],[0.6664602975820344],,2017_Feb_06_1227,60.035396594,famFaceGrey,001,10,
134,./greyInner/LeonardoDiCaprio4_1_cut.png,0,191,191,133,,,1.ja,1.331,None,,act,0.96,None,None,None,None,None,dicaprio,"['d', 'i', 'c', 'a', 'p', 'r', 'i', 'o', 'return']","[0.5502468088707246, 0.7334326257332577, 0.8499367419944974, 1.0667230813446622, 1.0900188362579684, 1.2999006862146416, 1.4330905449169222, 1.5830367178718916, 1.7997293891817208]",,2017_Feb_06_1227,60.035396594,famFaceGrey,001,10,
34,./greyInner/BritneySpears7_1_cut.png,0,192,192,33,,,1.ja,1.897,None,,None,None,music,2.146,None,None,None,britney,"['b', 'r', 'i', 't', 'n', 'e', 'y', 'return']","[0.7167350143968179, 0.9333317721993808, 1.1499596457551888, 1.316324350611012, 1.416535681107689, 1.5665469725977346, 1.7996886500000073, 2.0165314467990356]",,2017_Feb_06_1227,60.035396594,famFaceGrey,001,10,
6,./greyInner/AngelaMerkel1_1_cut.png,0,193,193,5,,,1.ja,1.108,None,,None,None,None,None,polit,0.61,None,merkel,"['m', 'e', 'r', 'k', 'e', 'l', 'return']","[0.5502448841853038, 0.6831691362526726, 0.8334473175013954, 0.9000212356995689, 1.0666553965625098, 1.0999829344532372, 1.2831594486674476]",,2017_Feb_06_1227,60.035396594,famFaceGrey,001,10,
207,./greyInner/WillSmith14_1_cut.png,0,194,194,206,,,1.ja,1.541,None,,act,0.459,None,None,None,None,None,will smith,"['w', 'i', 'l', 'l', 'space', 's', 'm', 'i', 't', 'h', 'return']","[0.933203780596159, 1.0334016382926166, 1.2500782705542406, 1.3667235304383212, 1.434225147174402, 1.5999300055941603, 1.732899808557704, 1.916504886135499, 1.9999021618068582, 2.0664940437391124, 2.2496144212855143]",,2017_Feb_06_1227,60.035396594,famFaceGrey,001,10,
83,./greyInner/HughLaurie(DrHouse)5_3_cut.png,0,195,195,82,,,1.ja,1.761,None,,act,0.41,None,None,None,None,None,hugh laurie,"['h', 'u', 'g', 'h', 'space', 'l', 'a', 'u', 'r', 'i', 'e', 'return']","[0.6502300641050169, 0.7002561756748946, 0.8666212013117729, 0.9001379999690471, 1.016918950199397, 1.1834956912698544, 1.2833432561578775, 1.4000068005561843, 1.5166944035267989, 1.5997898243144846, 1.699944376581243, 1.766514124627065]",,2017_Feb_06_1227,60.035396594,famFaceGrey,001,10,
22,./greyInner/BenedictCumberbatch2_2_cut.png,0,196,196,21,,,1.ja,1.544,None,,dummy,0.444,None,None,None,None,None,cumberbatch,"['c', 'u', 'm', 'b', 'e', 'r', 'b', 'a', 't', 'c', 'h', 'return']","[0.7169743169934009, 0.8671803225261101, 1.0502965299201605, 1.2502004881002904, 1.3169816307990914, 1.450098672223703, 1.5664099991276998, 1.6665780241946777, 1.9498885606944896, 2.166428861048189, 2.882715744442976, 3.149233076879682]",,2017_Feb_06_1227,60.035396594,famFaceGrey,001,10,
11,./greyInner/BarackObama1_3_cut.png,0,197,197,10,,,1.ja,1.187,None,,None,None,None,None,polit,0.864,None,obama,"['o', 'b', 'a', 'm', 'a', 'return']","[0.5338135210458859, 0.7670148637066632, 0.8835606814927814, 0.9835394457932125, 1.0834941515217906, 1.2334258893333754]",,2017_Feb_06_1227,60.035396594,famFaceGrey,001,10,
85,./greyInner/HughLaurie(DrHouse)9_2_cut.png,0,198,198,84,,,1.ja,1.683,None,,act,0.656,None,None,None,None,None,hugh laurie,"['h', 'u', 'g', 'h', 'space', 'l', 'a', 'u', 'r', 'i', 'e', 'return']","[0.7494469736238898, 0.7995689987014885, 0.9827342855819552, 1.0160335947480235, 1.1330214486979457, 1.2666472487258034, 1.3666683561127684, 1.4832815379008935, 1.5666008637986124, 1.6664622222674552, 1.7664278345487219, 1.866447017250266]",,2017_Feb_06_1227,60.035396594,famFaceGrey,001,10,
67,./greyInner/EmmaWatson(HermioneGranger)16_1_cut.png,0,199,199,66,,,1.ja,1.356,None,,dummy,0.84,None,None,None,None,None,emma watson,"['e', 'm', 'm', 'a', 'space', 'w', 'a', 't', 's', 'o', 'n', 'return']","[0.7837272309675427, 0.9000869957963005, 1.0335880120305774, 1.133482410938086, 1.2501979218523047, 1.349634887110824, 1.4834383997904297, 1.7170676642526814, 1.9165096978499605, 1.999993905161773, 2.0499276318150805, 2.24976903770812]",,2017_Feb_06_1227,60.035396594,famFaceGrey,001,10,
213,./greyInner/notfamousface12_2_cut.png,0,200,200,212,,,1.ja,4.117,None,,act,0.534,None,None,None,None,None,,['return'],[0.966606060450431],,2017_Feb_06_1227,60.035396594,famFaceGrey,001,10,
171,./greyInner/SahraWagenknecht12_1_cut.png,0,201,201,170,,,2.nein,6.163,None,,None,None,music,1.112,None,None,None,,['return'],[0.7169499376404929],,2017_Feb_06_1227,60.035396594,famFaceGrey,001,10,
28,./greyInner/Beyonce3_2_cut.png,0,202,202,27,,,1.ja,1.211,None,,None,None,music,0.744,None,None,None,beyonce,"['b', 'e', 'y', 'o', 'n', 'c', 'e', 'return']","[1.033605334202548, 1.1500594086337514, 1.4000144992996866, 1.466609589041127, 1.6665732124802162, 1.733283141805714, 1.9331777973384305, 2.1168813546710226]",,2017_Feb_06_1227,60.035396594,famFaceGrey,001,10,
23,./greyInner/BenedictCumberbatch3_9_cut.png,0,203,203,22,,,1.ja,1.045,None,,act,1.05,None,None,None,None,None,cumberbatch,"['c', 'u', 'm', 'b', 'r', 'backspace', 'backspace', 'b', 'e', 'r', 'b', 'a', 't', 'c', 'h', 'return']","[0.5003814085621343, 0.7004601923663358, 0.9166553324062079, 1.100157118514744, 1.2836447902609507, 1.6999251297238516, 1.8498491687923888, 2.4663115835292047, 2.5495911325879206, 2.5995293501750893, 2.9494747532553447, 3.0326654459881865, 3.33264825212882, 3.5825584334597806, 3.6076130303795253, 3.815727056462947]",,2017_Feb_06_1227,60.035396594,famFaceGrey,001,10,
214,./greyInner/notfamousface1_2_cut.png,0,204,204,213,,,1.ja,4.288,None,,None,None,music,1.998,None,None,None,,['return'],[0.8165963728656607],,2017_Feb_06_1227,60.035396594,famFaceGrey,001,10,
122,./greyInner/KaleyCuoco(Penny)14_2_cut.png,0,205,205,121,,,1.ja,1.394,None,,act,0.445,None,None,None,None,None,penny,"['p', 'e', 'n', 'n', 'y', 'return']","[0.5666775304484872, 0.8163249921726674, 0.9997180335353733, 1.1331853677688741, 1.2670392430595712, 1.4331393036227382]",,2017_Feb_06_1227,60.035396594,famFaceGrey,001,10,
81,./greyInner/HughLaurie(DrHouse)2_1_cut.png,0,206,206,80,,,1.ja,1.144,None,,act,0.452,None,None,None,None,None,dr house,"['d', 'r', 'space', 'h', 'o', 'u', 's', 'e', 'return']","[0.7335044806682163, 0.9499543207912211, 1.0999274393466294, 1.3331088935879052, 1.4831044668108007, 1.5997843710383677, 1.6995838187817753, 1.8495290293935795, 1.933059108382622]",,2017_Feb_06_1227,60.035396594,famFaceGrey,001,10,
206,./greyInner/WillSmith1_1_cut.png,0,207,207,205,,,1.ja,1.18,None,,act,2.813,None,None,None,None,None,will smith,"['w', 'i', 'l', 'l', 'space', 's', 'm', 'i', 't', 'h', 'return']","[0.6174853852198794, 0.7842228375516243, 0.9839477999562405, 1.100816002607644, 1.1672770059076356, 1.2673661188587175, 1.3506052495163203, 1.5172381272554958, 1.650206326314219, 1.675540644231205, 2.0170677925652853]",,2017_Feb_06_1227,60.035396594,famFaceGrey,001,10,
149,./greyInner/MilaKunis5_2_cut.png,0,208,208,148,,,1.ja,3.175,None,,dummy,0.911,None,None,None,None,None,,['return'],[0.6167809502298951],,2017_Feb_06_1227,60.035396594,famFaceGrey,001,10,
104,./greyInner/JimParsons(SheldonCooper)8_1_cut.png,0,209,209,103,,,1.ja,2.676,None,,act,0.56,None,None,None,None,None,sheldon,"['s', 'h', 'e', 'l', 'd', 'o', 'n', 'return']","[0.566541840102218, 0.766722953032513, 0.916505206916554, 1.0165580716188742, 1.333016508671335, 1.366386068867996, 1.5163376950990823, 1.6997041116419496]",,2017_Feb_06_1227,60.035396594,famFaceGrey,001,10,
163,./greyInner/OmarEpps(DrEricForeman)3_1_cut.png,0,210,210,162,,,1.ja,1.453,None,,act,1.257,None,None,None,None,None,omar epps,"['o', 'm', 'a', 'r', 'space', 'e', 'p', 'p', 's', 'return']","[0.6833956076102368, 0.8334636773302009, 0.9167149976647124, 1.1493581814543177, 1.1998635397794715, 1.3664720381652842, 1.4832330999756778, 1.6330121460500777, 1.7331904361080888, 1.849739140922793]",,2017_Feb_06_1227,60.035396594,famFaceGrey,001,10,
54,./greyInner/DannFlorek(DonaldDonCragen)5_1_cut.png,0,211,211,53,,,2.nein,1.594,None,,None,None,None,None,polit,1.061,None,,['return'],[1.0001857321763055],,2017_Feb_06_1227,60.035396594,famFaceGrey,001,10,
27,./greyInner/Beyonce11_2_cut.png,0,212,212,26,,,1.ja,1.146,None,,None,None,music,0.71,None,None,None,beyonce,"['b', 'e', 'y', 'o', 'n', 'c', 'e', 'return']","[0.5503391937877495, 0.7166836894430162, 0.9834967819256235, 1.0669704034658025, 1.2500885355452738, 1.3167558010031826, 1.5499779944261718, 1.6833609632667503]",,2017_Feb_06_1227,60.035396594,famFaceGrey,001,10,
148,./greyInner/MilaKunis4_1_cut.png,0,213,213,147,,,2.nein,4.84,None,,None,None,music,0.747,None,None,None,,['return'],[0.750760571657338],,2017_Feb_06_1227,60.035396594,famFaceGrey,001,10,
130,./greyInner/KatjaBurkard7_1_cut.png,0,214,214,129,,,2.nein,1.777,None,,None,None,host,1.058,None,None,None,,['return'],[0.7336594178723317],,2017_Feb_06_1227,60.035396594,famFaceGrey,001,10,
204,./greyInner/Usher4_1_cut.png,0,215,215,203,,,1.ja,2.743,None,,None,None,music,1.481,None,None,None,,['return'],[1.0159303032792195],,2017_Feb_06_1227,60.035396594,famFaceGrey,001,10,
173,./greyInner/SahraWagenknecht5_1_cut.png,0,216,216,172,,,1.ja,1.414,None,,None,None,None,None,polit,0.91,None,wagenknecht,"['w', 'a', 'g', 'e', 'n', 'k', 'n', 'e', 'c', 'h', 't', 'return']","[0.5334433398174951, 0.7499804323615535, 0.8164491344045928, 1.0165760353525002, 1.0833738586616164, 1.5164390618824655, 1.6996422009169692, 1.7497440167935565, 1.949604027982332, 1.982722095905956, 2.2160684315608705, 2.299399626354443]",,2017_Feb_06_1227,60.035396594,famFaceGrey,001,10,
46,./greyInner/CristinMilioti(Tracy_Mutter)10_1_cut.png,0,217,217,45,,,2.nein,2.132,None,,act,0.745,None,None,None,None,None,,['return'],[0.833301041383038],,2017_Feb_06_1227,60.035396594,famFaceGrey,001,10,
116,./greyInner/JudithRakers1_1_cut.png,0,218,218,115,,,2.nein,2.263,None,,dummy,0.56,None,None,None,None,None,,['return'],[0.5501505745828581],,2017_Feb_06_1227,60.035396594,famFaceGrey,001,10,
24,./greyInner/BenedictCumberbatch4_1_cut.png,0,219,219,23,,,1.ja,1.185,None,,dummy,0.406,None,None,None,None,None,cumberbatch,"['c', 'u', 'm', 'b', 'e', 'r', 'b', 'a', 't', 'c', 'h', 'return']","[0.7163908164261557, 0.9003821142800916, 1.0669229278832972, 1.2827373009235998, 1.316048478985067, 1.4657925599349255, 1.5993343153509159, 1.749255146609812, 2.0658133465412902, 2.349049461858158, 2.3698768072799794, 2.5822973177582753]",,2017_Feb_06_1227,60.035396594,famFaceGrey,001,10,
102,./greyInner/JimParsons(SheldonCooper)10_1_cut.png,0,220,220,101,,,1.ja,2.013,None,,None,None,None,None,None,None,1,sheldon,"['s', 'h', 'e', 'l', 'd', 'o', 'n', 'return']","[0.34997619805290014, 0.8838285335950786, 0.9669008581531671, 1.1001516652381724, 1.5164397034445756, 1.5995749010712643, 1.6494127142177604, 1.8831074179956886]",0.466212782993,2017_Feb_06_1227,60.035396594,famFaceGrey,001,10,
205,./greyInner/Usher7_1_cut.png,0,221,221,204,,,None,None,1,4.06543001329,None,None,None,None,None,None,2,,['return'],[0.9000023096227778],0.749964714094,2017_Feb_06_1227,60.035396594,famFaceGrey,001,10,
87,./greyInner/Ice-T(OdafinFinTutuola)12_1_cut.png,0,222,222,86,,,None,None,1,1.49986912137,None,None,None,None,None,None,1,,['return'],[0.7331878698605578],0.383314000934,2017_Feb_06_1227,60.035396594,famFaceGrey,001,10,
209,./greyInner/WillSmith5_1_cut.png,0,223,223,208,,,None,None,1,1.06621817211,None,None,None,None,None,None,1,will smith,"['w', 'i', 'l', 'l', 'space', 's', 'm', 'i', 't', 'h', 'return']","[0.5833664806991692, 0.7497658298989336, 0.9498394812071638, 1.0998081088296203, 1.1498387113329045, 1.2829980958440501, 1.3831526481108085, 1.5665742389792285, 1.6499952524418404, 1.7164232153031662, 1.9330016885910482]",0.633947543331,2017_Feb_06_1227,60.035396594,famFaceGrey,001,10,
