num,pic,trials.thisRepN,trials.thisTrialN,trials.thisN,trials.thisIndex,key_resp_2.keys,key_resp_2.rt,ratingBekannt.response,ratingBekannt.rt,key_resp_5.keys,ratingK1.response,ratingK1.rt,ratingK2.response,ratingK2.rt,ratingK3.response,ratingK3.rt,key_resp_6.keys,inputText,key_resp_4.keys,key_resp_4.rt,date,frameRate,expName,session,participant,
,,,,,,space,81.4991950077,,,,,,,,,,,,,,2017_Feb_07_1027,60.0438181709,famFaceGrey,001,11,
123,./greyInner/KaleyCuoco(Penny)3_1_cut.png,0,0,0,122,,,2.nein,16.909,None,dummy,12.607,None,None,None,None,None,,['return'],[7.280895009047526],2017_Feb_07_1027,60.0438181709,famFaceGrey,001,11,
63,./greyInner/EmilyDeschanel5_1_cut.png,0,1,1,62,,,2.nein,7.927,None,None,None,host,25.483,None,None,None,,['return'],[1.7834934710454036],2017_Feb_07_1027,60.0438181709,famFaceGrey,001,11,
181,./greyInner/SigmarGabriel1_2_cut.png,0,2,2,180,,,2.nein,8.77,None,None,None,music,4.777,None,None,None,,['return'],[0.950455841543544],2017_Feb_07_1027,60.0438181709,famFaceGrey,001,11,
178,./greyInner/Shakira3_1_cut.png,0,3,3,177,,,1.ja,14.074,None,None,None,music,5.161,None,None,None,shakira,"['s', 'h', 'a', 'k', 'i', 'r', 'a', 'return']","[2.699504815037699, 2.882704325145596, 3.032663538225961, 3.14937411405117, 3.349153033869925, 3.615772781411124, 3.765804490314167, 6.6811768445775215]",2017_Feb_07_1027,60.0438181709,famFaceGrey,001,11,
112,./greyInner/JoshRadnor(Ted)3_1_cut.png,0,4,4,111,,,2.nein,5.927,None,None,None,host,19.024,None,None,None,,['return'],[1.2334221139844885],2017_Feb_07_1027,60.0438181709,famFaceGrey,001,11,
48,./greyInner/CristinMilioti(Tracy_Mutter)4_2_cut.png,0,5,5,47,,,2.nein,7.126,None,None,None,None,None,polit,8.192,None,,['return'],[0.7167052509109908],2017_Feb_07_1027,60.0438181709,famFaceGrey,001,11,
165,./greyInner/OmarEpps(DrEricForeman)9_1_cut.png,0,6,6,164,,,2.nein,2.012,None,None,None,music,2.945,None,None,None,,['return'],[1.0166855872209908],2017_Feb_07_1027,60.0438181709,famFaceGrey,001,11,
6,./greyInner/AngelaMerkel1_1_cut.png,0,7,7,5,,,1.ja,1.82,None,None,None,None,None,polit,2.459,None,Frau Merkel,"['lshift', 'f', 'r', 'a', 'u', 'space', 'lshift', 'm', 'e', 'r', 'k', 'e', 'l', 'return']","[2.3829014432121767, 2.499108076836592, 3.215620540183636, 3.3325431502514675, 3.5490301117495164, 3.815558116789589, 4.182014235484985, 4.332018036704085, 4.648597991737461, 4.848488542291989, 5.065054415171971, 5.181442929909053, 5.314868604529238, 6.247872520265901]",2017_Feb_07_1027,60.0438181709,famFaceGrey,001,11,
92,./greyInner/JanHofer3_1_cut.png,0,8,8,91,,,2.nein,2.176,None,None,None,None,None,polit,2.531,None,,['return'],[1.3501817688402298],2017_Feb_07_1027,60.0438181709,famFaceGrey,001,11,
64,./greyInner/EmilyDeschanel6_12_cut.png,0,9,9,63,,,2.nein,4.202,None,act,7.857,None,None,None,None,None,,['return'],[1.1501009969458664],2017_Feb_07_1027,60.0438181709,famFaceGrey,001,11,
66,./greyInner/EmmaWatson(HermioneGranger)11_2_cut.png,0,10,10,65,,,2.nein,5.1,None,None,None,None,None,sport,3.874,None,,['return'],[0.9833881917136296],2017_Feb_07_1027,60.0438181709,famFaceGrey,001,11,
18,./greyInner/BastianSchweinsteiger14_1_cut.png,0,11,11,17,,,1.ja,5.564,None,None,None,None,None,sport,2.013,None,In Fußball,"['lshift', 'i', 'n', 'space', 'lshift', 'f', 'u', u'\xdf', 'b', 'a', 'l', 'l', 'return']","[3.7323258552503376, 3.8319816284038097, 4.015606810886311, 4.182063635293389, 4.631673104146103, 4.798512937456962, 5.031487886942614, 5.514811441893926, 5.931309566465416, 6.114734262712773, 6.597739285133457, 6.747665458082338, 8.163828048890537]",2017_Feb_07_1027,60.0438181709,famFaceGrey,001,11,
220,./greyInner/notfamousface5_1_cut.png,0,12,12,219,,,2.nein,1.991,None,None,None,None,None,polit,1.309,None,,['return'],[1.1334176551706605],2017_Feb_07_1027,60.0438181709,famFaceGrey,001,11,
53,./greyInner/DannFlorek(DonaldDonCragen)2_1_cut.png,0,13,13,52,,,2.nein,2.028,None,None,None,None,None,polit,4.177,None,,['return'],[0.6671482613353419],2017_Feb_07_1027,60.0438181709,famFaceGrey,001,11,
154,./greyInner/NeilPatrickHarris(Barney)2_2_cut.png,0,14,14,153,,,2.nein,3.762,None,None,None,None,None,sport,0.713,None,,['return'],[0.48359782012107644],2017_Feb_07_1027,60.0438181709,famFaceGrey,001,11,
46,./greyInner/CristinMilioti(Tracy_Mutter)10_1_cut.png,0,15,15,45,,,2.nein,2.997,None,None,None,host,2.292,None,None,None,,['return'],[0.633402097438875],2017_Feb_07_1027,60.0438181709,famFaceGrey,001,11,
194,./greyInner/TomCruise6_1_cut.png,0,16,16,193,,,2.nein,4.999,None,None,None,None,None,sport,2.995,None,,['return'],[0.48446039209989067],2017_Feb_07_1027,60.0438181709,famFaceGrey,001,11,
170,./greyInner/RobertSeanLeonard(Wilson)8_1_cut.png,0,17,17,169,,,2.nein,14.207,None,None,None,None,None,sport,2.379,None,,['return'],[0.5001024885634706],2017_Feb_07_1027,60.0438181709,famFaceGrey,001,11,
200,./greyInner/UrsulavonderLeyen8_2_cut.png,0,18,18,199,,,2.nein,1.591,None,None,None,None,None,polit,4.324,None,,['return'],[0.6001149668268226],2017_Feb_07_1027,60.0438181709,famFaceGrey,001,11,
35,./greyInner/BritneySpears8_5_cut.png,0,19,19,34,,,2.nein,1.97,None,None,None,host,2.554,None,None,None,,['return'],[0.3170213455287012],2017_Feb_07_1027,60.0438181709,famFaceGrey,001,11,
182,./greyInner/SigmarGabriel11_3_cut.png,0,20,20,181,,,2.nein,1.416,None,None,None,None,None,polit,2.88,None,,['return'],[0.417019068005402],2017_Feb_07_1027,60.0438181709,famFaceGrey,001,11,
185,./greyInner/SigmarGabriel8_2_cut.png,0,21,21,184,,,2.nein,1.354,None,None,None,music,2.556,None,None,None,,['return'],[0.3833476453771709],2017_Feb_07_1027,60.0438181709,famFaceGrey,001,11,
43,./greyInner/CobieSmulders(Robin)3_4_cut.png,0,22,22,42,,,2.nein,1.865,None,dummy,0.527,None,None,None,None,None,,['return'],[1.2995902702907642],2017_Feb_07_1027,60.0438181709,famFaceGrey,001,11,
24,./greyInner/BenedictCumberbatch4_1_cut.png,0,23,23,23,,,2.nein,4.146,None,None,None,music,2.242,None,None,None,,['return'],[0.3172064344212231],2017_Feb_07_1027,60.0438181709,famFaceGrey,001,11,
93,./greyInner/JanHofer5_1_cut.png,0,24,24,92,,,2.nein,1.562,None,None,None,None,None,polit,0.88,None,,['return'],[0.41706108992002555],2017_Feb_07_1027,60.0438181709,famFaceGrey,001,11,
147,./greyInner/MilaKunis10_1_cut.png,0,25,25,146,,,2.nein,3.279,None,dummy,6.695,None,None,None,None,None,,['return'],[0.45024845858165463],2017_Feb_07_1027,60.0438181709,famFaceGrey,001,11,
57,./greyInner/ElvisPresley2_1_cut.png,0,26,26,56,,,1.ja,9.859,None,None,None,music,1.481,None,None,None,Elvis,"['e', 'backspace', 'lshift', 'e', 'l', 'v', 'i', 's', 'return']","[2.2164625823718325, 3.0827552646883305, 3.3659265142564436, 3.6989254900124706, 3.9487611714939703, 4.365246464946495, 4.498672139566679, 4.715294469370747, 5.731621426813945]",2017_Feb_07_1027,60.0438181709,famFaceGrey,001,11,
55,./greyInner/DannFlorek(DonaldDonCragen)8_1_cut.png,0,27,27,54,,,2.nein,2.582,None,None,None,None,None,polit,1.034,None,,['return'],[1.5497460881927054],2017_Feb_07_1027,60.0438181709,famFaceGrey,001,11,
9,./greyInner/AngelaMerkel5_1_cut.png,0,28,28,8,,,2.nein,5.128,None,None,None,None,None,polit,2.329,None,Frau Merkel,"['lshift', 'f', 'r', 'a', 'space', 'backspace', 'u', 'space', 'lshift', 'm', 'e', 'r', 'k', 'e', 'l', 'return']","[1.8998277743046401, 2.0497568342550494, 2.499705365428781, 2.632938573263118, 2.832775233117445, 3.466092324392548, 4.1991052860682885, 4.598808117350927, 4.9321188893, 5.165029683190141, 5.5484344270473684, 5.765000941483322, 5.915052217842913, 6.064848475711187, 6.2148404081451645, 7.197502679298168]",2017_Feb_07_1027,60.0438181709,famFaceGrey,001,11,
83,./greyInner/HughLaurie(DrHouse)5_3_cut.png,0,29,29,82,,,2.nein,2.044,None,None,None,host,5.543,None,None,None,,['return'],[1.2001981766338758],2017_Feb_07_1027,60.0438181709,famFaceGrey,001,11,
175,./greyInner/SahraWagenknecht9_1_cut.png,0,30,30,174,,,2.nein,1.428,None,None,None,host,4.658,None,None,None,,['return'],[0.86655604103521],2017_Feb_07_1027,60.0438181709,famFaceGrey,001,11,
103,./greyInner/JimParsons(SheldonCooper)6_1_cut.png,0,31,31,102,,,2.nein,1.545,None,None,None,None,None,sport,0.879,None,,['return'],[0.4504588889342358],2017_Feb_07_1027,60.0438181709,famFaceGrey,001,11,
119,./greyInner/JudithRakers7_1_cut.png,0,32,32,118,,,2.nein,2.246,None,act,2.762,None,None,None,None,None,,['return'],[0.70013931387507],2017_Feb_07_1027,60.0438181709,famFaceGrey,001,11,
125,./greyInner/KaleyCuoco(Penny)7_1_cut.png,0,33,33,124,,,2.nein,2.109,None,None,None,music,2.326,None,None,None,,['return'],[0.6999324120804431],2017_Feb_07_1027,60.0438181709,famFaceGrey,001,11,
82,./greyInner/HughLaurie(DrHouse)4_1_cut.png,0,34,34,81,,,2.nein,1.51,None,None,None,None,None,sport,1.727,None,,['return'],[0.43347690286327634],2017_Feb_07_1027,60.0438181709,famFaceGrey,001,11,
4,./greyInner/AlysonHannigan(Lily)5_4_cut.png,0,35,35,3,,,2.nein,1.717,None,None,None,host,2.051,None,None,None,,['return'],[0.6668457677037622],2017_Feb_07_1027,60.0438181709,famFaceGrey,001,11,
91,./greyInner/JanHofer1_3_cut.png,0,36,36,90,,,2.nein,1.221,None,None,None,None,None,polit,0.797,None,,['return'],[0.4502567988088231],2017_Feb_07_1027,60.0438181709,famFaceGrey,001,11,
177,./greyInner/Shakira2_1_cut.png,0,37,37,176,,,2.nein,2.712,None,act,1.33,None,None,None,None,None,,['return'],[0.3669449843314396],2017_Feb_07_1027,60.0438181709,famFaceGrey,001,11,
202,./greyInner/Usher11_1_cut.png,0,38,38,201,,,2.nein,1.079,None,None,None,music,0.928,None,None,None,,['return'],[0.5171617821270047],2017_Feb_07_1027,60.0438181709,famFaceGrey,001,11,
96,./greyInner/JasonSegel(Marshall)11_1_cut.png,0,39,39,95,,,2.nein,1.373,None,None,None,None,None,sport,4.679,None,,['return'],[0.41652218291983445],2017_Feb_07_1027,60.0438181709,famFaceGrey,001,11,
107,./greyInner/JoachimLoew12_1_cut.png,0,40,40,106,,,2.nein,1.197,None,None,None,None,None,sport,3.979,None,,['return'],[0.38349295780062675],2017_Feb_07_1027,60.0438181709,famFaceGrey,001,11,
101,./greyInner/JimParsons(SheldonCooper)1_1_cut.png,0,41,41,100,,,2.nein,1.413,None,None,None,None,None,sport,2.063,None,,['return'],[0.450444453925229],2017_Feb_07_1027,60.0438181709,famFaceGrey,001,11,
209,./greyInner/WillSmith5_1_cut.png,0,42,42,208,,,1.ja,2.318,None,act,2.312,None,None,None,None,None,leider ich mich nich  an Seine Filme errinern,"['l', 'e', 'i', 'd', 'e', 'r', 'space', 'i', 'c', 'h', 'space', 'm', 'i', 'c', 'h', 'space', 'n', 'i', 'c', 'h', 'space', 'd', 'a', 'r', 'a', 'n', 'backspace', 'backspace', 'backspace', 'backspace', 'backspace', 'space', 'a', 'n', 'space', 'lshift', 's', 'e', 'i', 'n', 'e', 'space', 'lshift', 'f', 'i', 'l', 'm', 'e', 'space', 'e', 'r', 'r', 'i', 'n', 'e', 'r', 'n', 'left', 'left', 'left', 'left', 'left', 'backspace', 'n', 'return']","[18.326607153797795, 18.559770079177724, 18.72632409931157, 18.99288289903734, 19.192797507940213, 19.426226999818027, 19.959223986750658, 20.209081160356618, 20.342507476532774, 20.475715984462568, 20.625756675149205, 20.82546245758931, 21.008817224237646, 21.175374131373246, 21.27541483809864, 21.425219115415985, 21.57539517440864, 21.741845262478364, 21.925042206362377, 22.09168893133119, 24.907220423549006, 25.606700538682617, 25.873512753009436, 26.023485759542837, 26.1567224959349, 26.42350584024416, 27.206349735887216, 27.439580986976125, 27.639538900905336, 28.089180126778047, 28.305916974319643, 29.288621267387498, 29.538752385385123, 29.721923987809078, 30.621685040294324, 31.021381776795806, 31.20549967424995, 31.304530571905616, 31.687814061687277, 31.954342387505676, 32.204233884354835, 33.00396289112041, 33.503770263945626, 33.63710291295274, 33.83710124490699, 34.886202408978534, 35.269779731386734, 35.436301032167194, 35.76970194272781, 35.952774424756626, 36.2527704791878, 36.43593759072019, 36.535916387295856, 36.78600195482113, 36.88570135377904, 37.13562428687055, 37.452190769228764, 40.33431352390335, 40.50087075181682, 40.667651561980165, 40.83416452253323, 41.00055654978905, 41.53379091242414, 43.199746521243014, 44.59945288108338]",2017_Feb_07_1027,60.0438181709,famFaceGrey,001,11,
8,./greyInner/AngelaMerkel4_1_cut.png,0,43,43,7,,,2.nein,7.173,None,None,None,None,None,polit,2.475,None,,['return'],[1.1498315434455435],2017_Feb_07_1027,60.0438181709,famFaceGrey,001,11,
157,./greyInner/NicoleKidman3_1_cut.png,0,44,44,156,,,1.ja,4.854,None,None,None,music,2.601,None,None,None,,['return'],[4.648809705201529],2017_Feb_07_1027,60.0438181709,famFaceGrey,001,11,
108,./greyInner/JoachimLoew15_1_cut.png,0,45,45,107,,,1.ja,4.428,None,None,None,None,None,sport,1.911,None,Trainer,"['lshift', 't', 'r', 'a', 'i', 'n', 'e', 'r', 'return']","[5.182012952373043, 5.465126141127257, 5.698475759289522, 5.881739424992702, 6.064854249714699, 6.514729001953583, 6.68128622986751, 6.91466856738316, 9.097111362244505]",2017_Feb_07_1027,60.0438181709,famFaceGrey,001,11,
45,./greyInner/CobieSmulders(Robin)5_1_cut.png,0,46,46,44,,,2.nein,2.595,None,act,4.528,None,None,None,None,None,,['return'],[1.1502950676217552],2017_Feb_07_1027,60.0438181709,famFaceGrey,001,11,
78,./greyInner/GeorgeClooney16_1_cut.png,0,47,47,77,,,2.nein,2.129,None,None,None,None,None,sport,1.374,None,,['return'],[0.7667780514730111],2017_Feb_07_1027,60.0438181709,famFaceGrey,001,11,
32,./greyInner/BritneySpears14_2_cut.png,0,48,48,31,,,1.ja,3.746,None,act,1.644,None,None,None,None,None,Brithni spearc,"['lshift', 'b', 'r', 'i', 't', 'h', 'n', 'i', 'space', 's', 'p', 'e', 'a', 'r', 'c', 'return']","[1.7162994667710336, 1.9328348657431889, 2.3160185935748814, 2.6323582859035923, 2.849084868550108, 3.132412657770601, 3.48237405214104, 3.6988786564279508, 3.9822487883416215, 4.6818703665626344, 7.580651121552364, 7.797195502308114, 8.71334670549777, 8.97996260370337, 9.979622579048737, 10.962583815275593]",2017_Feb_07_1027,60.0438181709,famFaceGrey,001,11,
13,./greyInner/BarackObama2_1_cut.png,0,49,49,12,,,1.ja,1.848,None,None,None,None,None,polit,1.504,None,Herr Obama,"['lctrl', 'lshift', 'lshift', 'h', 'e', 'r', 'r', 'space', 'lshift', 'o', 'b', 'a', 'm', 'a', 'return']","[1.600079681249099, 1.7830382870965877, 2.116272713887156, 2.816034151306212, 2.982615758346128, 3.1160289226254463, 3.2992476794115646, 3.4656470845611693, 3.665651190518929, 3.9487987025172515, 4.098976044621395, 4.315475195682211, 4.465342666261222, 5.348305859234188]",2017_Feb_07_1027,60.0438181709,famFaceGrey,001,11,
131,./greyInner/LeonardoDiCaprio1_1_cut.png,0,50,50,130,,,1.ja,2.303,None,act,1.671,None,None,None,None,None,titanic,"['t', 'i', 't', 'a', 'n', 'i', 'c', 'return']","[9.64654405035435, 9.87976247032384, 10.479428027205813, 10.646024069254509, 10.929151051462213, 11.112625789073718, 11.762253798893198, 13.278161980688765]",2017_Feb_07_1027,60.0438181709,famFaceGrey,001,11,
52,./greyInner/DannFlorek(DonaldDonCragen)10_1_cut.png,0,51,51,51,,,2.nein,2.018,None,None,None,music,2.935,None,None,None,,['return'],[1.0833281741543033],2017_Feb_07_1027,60.0438181709,famFaceGrey,001,11,
15,./greyInner/BarackObama5_2_cut.png,0,52,52,14,,,1.ja,3.192,None,None,None,None,None,polit,1.36,None,Harr Obama,"['lshift', 'h', 'a', 'r', 'r', 'space', 'lshift', 'o', 'b', 'a', 'm', 'a', 'return']","[1.5329443793439168, 1.8163173982593435, 2.1159907500459667, 2.3160471428141136, 2.44927618053498, 2.6159177730564807, 2.932473028185541, 3.199092134170769, 3.6655411636734243, 3.7654609371011247, 3.9155253653580075, 4.048713022719767, 4.531535522471586]",2017_Feb_07_1027,60.0438181709,famFaceGrey,001,11,
137,./greyInner/LisaEdelstein(DrLisaCuddy)10_1_cut.png,0,53,53,136,,,2.nein,1.711,None,None,None,host,5.36,None,None,None,,['return'],[0.7167261014797077],2017_Feb_07_1027,60.0438181709,famFaceGrey,001,11,
161,./greyInner/OmarEpps(DrEricForeman)1_5_cut.png,0,54,54,160,,,2.nein,1.688,None,None,None,music,0.75,None,None,None,,['return'],[0.7335169038765343],2017_Feb_07_1027,60.0438181709,famFaceGrey,001,11,
30,./greyInner/Beyonce8_3_cut.png,0,55,55,29,,,2.nein,2.262,None,act,2.312,None,None,None,None,None,,['return'],[0.7167530468291261],2017_Feb_07_1027,60.0438181709,famFaceGrey,001,11,
216,./greyInner/notfamousface14_6_cut.png,0,56,56,215,,,2.nein,1.812,None,None,None,music,1.605,None,None,None,,['return'],[0.6670347059316555],2017_Feb_07_1027,60.0438181709,famFaceGrey,001,11,
61,./greyInner/EmilyDeschanel15_1_cut.png,0,57,57,60,,,2.nein,1.744,None,None,None,music,3.76,None,None,None,,['return'],[0.6667203435149531],2017_Feb_07_1027,60.0438181709,famFaceGrey,001,11,
186,./greyInner/TaylorSwift1_2_cut.png,0,58,58,185,,,2.nein,1.852,None,act,0.583,None,None,None,None,None,,['return'],[0.6501037235589138],2017_Feb_07_1027,60.0438181709,famFaceGrey,001,11,
85,./greyInner/HughLaurie(DrHouse)9_2_cut.png,0,59,59,84,,,2.nein,1.805,None,None,None,host,1.672,None,None,None,,['return'],[0.7161503050115243],2017_Feb_07_1027,60.0438181709,famFaceGrey,001,11,
192,./greyInner/TomCruise4_1_cut.png,0,60,60,191,,,2.nein,1.796,None,None,None,None,None,sport,0.775,None,,['return'],[0.7501986417619264],2017_Feb_07_1027,60.0438181709,famFaceGrey,001,11,
193,./greyInner/TomCruise5_1_cut.png,0,61,61,192,,,2.nein,1.644,None,None,None,None,None,sport,0.762,None,,['return'],[0.7839685432286387],2017_Feb_07_1027,60.0438181709,famFaceGrey,001,11,
133,./greyInner/LeonardoDiCaprio3_1_cut.png,0,62,62,132,,,1.ja,2.909,None,act,1.581,None,None,None,None,None,Titanic,"['lshift', 't', 'i', 't', 'a', 'n', 'i', 'c', 'return']","[1.4165061440207865, 1.666370695520527, 1.8497472750714223, 2.0996682834943385, 2.2495056009438485, 2.732678390246292, 2.932516333212334, 3.4157106146394653, 3.915930187164122]",2017_Feb_07_1027,60.0438181709,famFaceGrey,001,11,
145,./greyInner/MariskaHargitay(Liv)8_8_cut.png,0,63,63,144,,,2.nein,1.85,None,act,2.735,None,None,None,None,None,,['return'],[0.6172403406535523],2017_Feb_07_1027,60.0438181709,famFaceGrey,001,11,
65,./greyInner/EmilyDeschanel8_3_cut.png,0,64,64,64,,,2.nein,5.576,None,None,None,music,2.252,None,None,None,,['return'],[0.6669801736757108],2017_Feb_07_1027,60.0438181709,famFaceGrey,001,11,
203,./greyInner/Usher2_1_cut.png,0,65,65,202,,,2.nein,1.496,None,None,None,music,0.529,None,None,None,,['return'],[0.7837183364072189],2017_Feb_07_1027,60.0438181709,famFaceGrey,001,11,
22,./greyInner/BenedictCumberbatch2_2_cut.png,0,66,66,21,,,2.nein,1.528,None,None,None,None,None,sport,2.609,None,,['return'],[0.5835637855780078],2017_Feb_07_1027,60.0438181709,famFaceGrey,001,11,
86,./greyInner/Ice-T(OdafinFinTutuola)10_1_cut.png,0,67,67,85,,,2.nein,1.714,None,None,None,None,None,sport,2.246,None,,['return'],[0.7667440490072295],2017_Feb_07_1027,60.0438181709,famFaceGrey,001,11,
158,./greyInner/NicoleKidman5_1_cut.png,0,68,68,157,,,1.ja,3.934,None,act,1.443,None,None,None,None,None,Nicole kidman,"['lshift', 'n', 'i', 'c', 'o', 'l', 'e', 'space', 'k', 'i', 'd', 'm', 'a', 'n', 'return']","[4.681707090572672, 4.931732672616363, 5.08150390980245, 5.581344322759378, 5.748235801324427, 6.014555942235802, 6.247756719416429, 7.647310068162369, 7.913899983351712, 8.113715471859905, 8.613522203128923, 8.780064675255744, 8.96333764352039, 9.063287249300174, 10.1793306069344]",2017_Feb_07_1027,60.0438181709,famFaceGrey,001,11,
136,./greyInner/LisaEdelstein(DrLisaCuddy)1_1_cut.png,0,69,69,135,,,2.nein,1.58,None,None,None,host,1.847,None,None,None,,['return'],[0.6505030921393882],2017_Feb_07_1027,60.0438181709,famFaceGrey,001,11,
33,./greyInner/BritneySpears5_1_cut.png,0,70,70,32,,,1.ja,4.175,None,None,None,music,2.045,None,None,None,Brithny,"['lshift', 'b', 'r', 'i', 't', 'h', 'n', 'i', 'backspace', 'y', 'return']","[1.1667734322700198, 1.2834201732780457, 1.550110812751882, 1.8998787780028579, 2.1497503866175975, 2.383042906299579, 2.5662045646063234, 2.699652372907167, 4.782129202311808, 5.031886934745216, 7.464183374655022]",2017_Feb_07_1027,60.0438181709,famFaceGrey,001,11,
174,./greyInner/SahraWagenknecht6_2_cut.png,0,71,71,173,,,2.nein,1.354,None,None,None,None,None,polit,2.137,None,,['return'],[1.0168883189021471],2017_Feb_07_1027,60.0438181709,famFaceGrey,001,11,
1,./greyInner/AlysonHannigan(Lily)1_1_cut.png,0,72,72,0,,,2.nein,2.35,None,act,1.021,None,None,None,None,None,,['return'],[0.7335098467610806],2017_Feb_07_1027,60.0438181709,famFaceGrey,001,11,
162,./greyInner/OmarEpps(DrEricForeman)2_2_cut.png,0,73,73,161,,,2.nein,1.302,None,None,None,music,0.836,None,None,None,,['return'],[0.8001197143407808],2017_Feb_07_1027,60.0438181709,famFaceGrey,001,11,
111,./greyInner/JoshRadnor(Ted)1_2_cut.png,0,74,74,110,,,2.nein,1.504,None,None,None,None,None,sport,0.61,None,,['return'],[0.666941038762161],2017_Feb_07_1027,60.0438181709,famFaceGrey,001,11,
118,./greyInner/JudithRakers4_3_cut.png,0,75,75,117,,,2.nein,1.429,None,None,None,host,2.945,None,None,None,,['return'],[0.6170132298457247],2017_Feb_07_1027,60.0438181709,famFaceGrey,001,11,
179,./greyInner/Shakira7_1_cut.png,0,76,76,178,,,1.ja,4.877,None,None,None,music,1.779,None,None,None,Shakira,"['lshift', 's', 'h', 'a', 'k', 'i', 'r', 'a', 'return']","[1.1833412939736263, 1.383487183797115, 1.7332759996165805, 1.9996654285705517, 2.1831571674151746, 2.8160925328984376, 3.0827796438147743, 3.249235185109683, 3.7323242513602963]",2017_Feb_07_1027,60.0438181709,famFaceGrey,001,11,
75,./greyInner/GuentherJauch9_1_cut.png,0,77,77,74,,,2.nein,1.47,None,None,None,None,None,sport,1.67,None,,['return'],[0.7002188668134295],2017_Feb_07_1027,60.0438181709,famFaceGrey,001,11,
217,./greyInner/notfamousface2_cut.png,0,78,78,216,,,2.nein,1.973,None,dummy,1.828,None,None,None,None,None,,['return'],[0.5503520377901623],2017_Feb_07_1027,60.0438181709,famFaceGrey,001,11,
109,./greyInner/JoachimLoew4_1_cut.png,0,79,79,108,,,1.ja,1.371,None,None,None,None,None,sport,3.56,None,FußballTrainer,"['lshift', 'f', 'u', u'\xdf', 'b', 'a', 'l', 'l', 'lshift', 't', 'r', 'a', 'i', 'n', 'e', 'r', 'return']","[1.5997967550742942, 1.7163142225576848, 1.849850244801928, 2.182864938678449, 2.5326351493749826, 2.6834149125193107, 3.132474888698198, 3.2825563181872894, 4.115415274356565, 4.19874569395688, 4.3820209076670835, 4.56542507412405, 4.698620750934879, 4.915131450003173, 5.098386775478957, 5.231657514336348, 5.5148525014747065]",2017_Feb_07_1027,60.0438181709,famFaceGrey,001,11,
124,./greyInner/KaleyCuoco(Penny)5_2_cut.png,0,80,80,123,,,2.nein,3.147,None,act,1.485,None,None,None,None,None,,['return'],[0.5668493283392309],2017_Feb_07_1027,60.0438181709,famFaceGrey,001,11,
196,./greyInner/UrsulavonderLeyen1_1_cut.png,0,81,81,195,,,2.nein,1.297,None,dummy,0.695,None,None,None,None,None,,['return'],[0.5503003925359735],2017_Feb_07_1027,60.0438181709,famFaceGrey,001,11,
213,./greyInner/notfamousface12_2_cut.png,0,82,82,212,,,2.nein,1.154,None,act,2.734,None,None,None,None,None,,['return'],[0.5500383169292036],2017_Feb_07_1027,60.0438181709,famFaceGrey,001,11,
149,./greyInner/MilaKunis5_2_cut.png,0,83,83,148,,,2.nein,1.095,None,None,None,music,2.044,None,None,None,,['return'],[0.6337671427759233],2017_Feb_07_1027,60.0438181709,famFaceGrey,001,11,
88,./greyInner/Ice-T(OdafinFinTutuola)5_1_cut.png,0,84,84,87,,,2.nein,1.213,None,None,None,None,None,polit,0.797,None,,['return'],[0.6002282014524098],2017_Feb_07_1027,60.0438181709,famFaceGrey,001,11,
128,./greyInner/KatjaBurkard4_1_cut.png,0,85,85,127,,,2.nein,1.451,None,None,None,None,None,polit,0.884,None,,['return'],[0.5668435543357191],2017_Feb_07_1027,60.0438181709,famFaceGrey,001,11,
25,./greyInner/BenedictCumberbatch6_5_cut.png,0,86,86,24,,,2.nein,1.241,None,None,None,None,None,sport,0.801,None,,['return'],[0.4503572023158995],2017_Feb_07_1027,60.0438181709,famFaceGrey,001,11,
62,./greyInner/EmilyDeschanel3_1_cut.png,0,87,87,61,,,2.nein,1.344,None,act,0.931,None,None,None,None,None,,['return'],[0.5334050165183726],2017_Feb_07_1027,60.0438181709,famFaceGrey,001,11,
122,./greyInner/KaleyCuoco(Penny)14_2_cut.png,0,88,88,121,,,2.nein,1.393,None,None,None,music,1.065,None,None,None,,['return'],[0.6166831493083009],2017_Feb_07_1027,60.0438181709,famFaceGrey,001,11,
199,./greyInner/UrsulavonderLeyen7_1_cut.png,0,89,89,198,,,2.nein,1.363,None,None,None,host,1.613,None,None,None,,['return'],[0.5668429127795207],2017_Feb_07_1027,60.0438181709,famFaceGrey,001,11,
138,./greyInner/LisaEdelstein(DrLisaCuddy)2_2_cut.png,0,90,90,137,,,2.nein,1.275,None,None,None,host,0.774,None,None,None,,['return'],[0.566688618572698],2017_Feb_07_1027,60.0438181709,famFaceGrey,001,11,
143,./greyInner/MariskaHargitay(Liv)4_4_cut.png,0,91,91,142,,,2.nein,1.362,None,act,3.843,None,None,None,None,None,,['return'],[0.5499154589647333],2017_Feb_07_1027,60.0438181709,famFaceGrey,001,11,
77,./greyInner/GeorgeClooney15_1_cut.png,0,92,92,76,,,2.nein,1.246,None,None,None,host,0.924,None,None,None,,['return'],[0.6001582718536156],2017_Feb_07_1027,60.0438181709,famFaceGrey,001,11,
3,./greyInner/AlysonHannigan(Lily)14_2_cut.png,0,93,93,2,,,2.nein,1.796,None,None,None,host,2.795,None,None,None,,['return'],[0.6169381677996171],2017_Feb_07_1027,60.0438181709,famFaceGrey,001,11,
155,./greyInner/NeilPatrickHarris(Barney)3_7_cut.png,0,94,94,154,,,2.nein,1.111,None,None,None,None,None,sport,0.861,None,,['return'],[0.48370111062968135],2017_Feb_07_1027,60.0438181709,famFaceGrey,001,11,
94,./greyInner/JanHofer7_1_cut.png,0,95,95,93,,,2.nein,1.51,None,None,None,host,0.66,None,None,None,,['return'],[0.5668977658137919],2017_Feb_07_1027,60.0438181709,famFaceGrey,001,11,
152,./greyInner/NeilPatrickHarris(Barney)11_2_cut.png,0,96,96,151,,,2.nein,1.347,None,None,None,None,None,sport,0.73,None,,['return'],[0.5336382221075837],2017_Feb_07_1027,60.0438181709,famFaceGrey,001,11,
127,./greyInner/KatjaBurkard10_1_cut.png,0,97,97,126,,,2.nein,1.348,None,act,0.447,None,None,None,None,None,,['return'],[0.5670081134371685],2017_Feb_07_1027,60.0438181709,famFaceGrey,001,11,
28,./greyInner/Beyonce3_2_cut.png,0,98,98,27,,,1.ja,2.877,None,None,None,music,2.261,None,None,None,Biance,"['lshift', 'lshift', 'b', 'i', 'a', 'n', 'c', 'e', 'return']","[1.4000457429397102, 1.4999347216817114, 1.66675434598028, 2.0664273449110624, 2.2662973656752, 2.4329829047792373, 2.782828177522333, 3.1826429603188444, 3.5657519468818464]",2017_Feb_07_1027,60.0438181709,famFaceGrey,001,11,
206,./greyInner/WillSmith1_1_cut.png,0,99,99,205,,,1.ja,1.88,None,act,1.496,None,None,None,None,None,an seine Filme kann ich nicht errinern,"['lshift', 's', 'e', 'i', 'n', 'e', 'space', 'lshift', 'f', 'i', 'l', 'm', 'e', 'backspace', 'backspace', 'backspace', 'backspace', 'backspace', 'backspace', 'backspace', 'backspace', 'backspace', 'backspace', 'backspace', 'a', 'n', 'space', 's', 'e', 'i', 'n', 'e', 'space', 'lshift', 'f', 'i', 'l', 'm', 'e', 'space', 'k', 'a', 'n', 'n', 'space', 'i', 'c', 'h', 'space', 'n', 'i', 'c', 'h', 't', 'space', 'e', 'r', 'r', 'i', 'n', 'e', 'r', 'n', 'return']","[5.731420940578573, 5.914739138537698, 6.031257247577287, 6.347837202610663, 6.581043753794802, 6.747525278106423, 6.914218515882112, 7.147481203212465, 7.214096203239478, 7.430635130769588, 8.24701893007068, 8.463622333973944, 8.69661877558383, 11.162509972185035, 12.262021716027448, 12.478720070211693, 12.628671263842534, 12.795340764047978, 12.961887727066369, 13.11170900561683, 13.278508420902654, 13.42835311624549, 13.59463896599118, 13.744959054295123, 14.661133032721409, 15.027689875701526, 15.310767778878471, 15.610443696888979, 15.74412406922238, 16.027175347827324, 16.277127471714266, 16.443826804271794, 16.593453691368268, 16.826938036280353, 16.910363726939522, 17.110013052455542, 17.34342522232282, 17.576620225500392, 17.743277536142614, 17.85963589774974, 18.059792052468765, 18.193074660111506, 18.326275469370103, 18.492755389791455, 18.659538766178684, 18.809462372903454, 19.009365113020976, 19.1260124955852, 19.35932586583567, 19.509179222183775, 19.759084512486425, 19.942236868231703, 20.042333069546657, 20.27556367907937, 20.492122815622224, 20.67519561842937, 21.12507935245185, 21.308596432756076, 21.40847931671715, 21.658340018880608, 21.774962059984773, 22.008196198074984, 22.17472680141691, 22.391384737576118]",2017_Feb_07_1027,60.0438181709,famFaceGrey,001,11,
26,./greyInner/Beyonce1_1_cut.png,0,100,100,25,,,2.nein,2.219,None,None,None,music,2.995,None,None,None,,['return'],[0.4838085712517568],2017_Feb_07_1027,60.0438181709,famFaceGrey,001,11,
129,./greyInner/KatjaBurkard5_3_cut.png,0,101,101,128,,,2.nein,1.605,None,dummy,0.486,None,None,None,None,None,,['return'],[0.5335875391870104],2017_Feb_07_1027,60.0438181709,famFaceGrey,001,11,
183,./greyInner/SigmarGabriel3_3_cut.png,0,102,102,182,,,2.nein,1.288,None,None,None,None,None,polit,0.803,None,,['return'],[0.6336721924953963],2017_Feb_07_1027,60.0438181709,famFaceGrey,001,11,
197,./greyInner/UrsulavonderLeyen4_1_cut.png,0,103,103,196,,,2.nein,1.919,None,None,None,host,3.062,None,None,None,,['return'],[0.616978906602526],2017_Feb_07_1027,60.0438181709,famFaceGrey,001,11,
164,./greyInner/OmarEpps(DrEricForeman)5_2_cut.png,0,104,104,163,,,2.nein,1.107,None,None,None,music,0.764,None,None,None,,['return'],[0.6336183017951953],2017_Feb_07_1027,60.0438181709,famFaceGrey,001,11,
189,./greyInner/TaylorSwift7_1_cut.png,0,105,105,188,,,2.nein,1.173,None,act,0.831,None,None,None,None,None,,['return'],[0.600202539214024],2017_Feb_07_1027,60.0438181709,famFaceGrey,001,11,
211,./greyInner/notfamousface10_4_cut.png,0,106,106,210,,,2.nein,1.064,None,None,None,None,None,sport,1.115,None,,['return'],[0.8001861153820755],2017_Feb_07_1027,60.0438181709,famFaceGrey,001,11,
120,./greyInner/JudithRakers8_1_cut.png,0,107,107,119,,,2.nein,1.458,None,None,None,host,0.709,None,None,None,,['return'],[0.6000925123680645],2017_Feb_07_1027,60.0438181709,famFaceGrey,001,11,
141,./greyInner/MariskaHargitay(Liv)13_1_cut.png,0,108,108,140,,,2.nein,1.627,None,None,None,host,4.461,None,None,None,,['return'],[0.6002747142592852],2017_Feb_07_1027,60.0438181709,famFaceGrey,001,11,
17,./greyInner/BastianSchweinsteiger12_1_cut.png,0,109,109,16,,,1.ja,2.134,None,None,None,None,None,sport,1.364,None,Fußballspieler,"['lshift', 'f', 'u', u'\xdf', 'b', 'a', 'l', 'l', 's', 'p', 'i', 'e', 'r', 'backspace', 'l', 'e', 'r', 'return']","[1.2999832233117559, 1.5332536093137605, 1.7831560126141994, 2.099717362525098, 2.4494866108875613, 2.6325696785902437, 2.849424893205196, 2.999307119570858, 3.2325495978889194, 3.5491837643999133, 3.732326176027982, 3.8988112288971024, 4.098973478397511, 4.615356732375858, 4.931880551263475, 5.065131401886447, 5.331865025609204, 5.498143818239441]",2017_Feb_07_1027,60.0438181709,famFaceGrey,001,11,
156,./greyInner/NicoleKidman14_1_cut.png,0,110,110,155,,,1.ja,2.494,None,None,None,music,4.344,None,None,None,Nicol kidman,"['lshift', 'n', 'i', 'c', 'o', 'l', 'space', 'k', 'i', 'd', 'm', 'a', 'n', 'return']","[1.383492637022755, 1.5498496994791822, 1.7168075790855255, 2.183148827187779, 2.3662832193663235, 2.582934098410533, 3.982341172398719, 4.1823876210496564, 4.4155415646459915, 4.615508460358797, 5.265191964768746, 5.431836765069875, 5.515021551468635, 5.714803358288918]",2017_Feb_07_1027,60.0438181709,famFaceGrey,001,11,
39,./greyInner/CarenMiosga6_2_cut.png,0,111,111,38,,,2.nein,2.097,None,None,None,None,None,polit,1.063,None,,['return'],[0.666728683742349],2017_Feb_07_1027,60.0438181709,famFaceGrey,001,11,
40,./greyInner/CarenMiosga9_1_cut.png,0,112,112,39,,,2.nein,1.546,None,None,None,None,None,polit,2.246,None,,['return'],[0.6335952057806935],2017_Feb_07_1027,60.0438181709,famFaceGrey,001,11,
207,./greyInner/WillSmith14_1_cut.png,0,113,113,206,,,2.nein,1.425,None,None,None,music,0.526,None,None,None,,['return'],[0.5668506114507181],2017_Feb_07_1027,60.0438181709,famFaceGrey,001,11,
180,./greyInner/Shakira9_1_cut.png,0,114,114,179,,,2.nein,2.009,None,None,None,host,2.543,None,None,None,,['return'],[0.6002249936727821],2017_Feb_07_1027,60.0438181709,famFaceGrey,001,11,
169,./greyInner/RobertSeanLeonard(Wilson)2_6_cut.png,0,115,115,168,,,2.nein,1.074,None,None,None,None,None,sport,0.582,None,,['return'],[0.48364304981578243],2017_Feb_07_1027,60.0438181709,famFaceGrey,001,11,
132,./greyInner/LeonardoDiCaprio2_1_cut.png,0,116,116,131,,,1.ja,1.6,None,act,2.46,None,None,None,None,None,Titanic,"['lshift', 't', 'i', 't', 'a', 'n', 'i', 'c', 'return']","[1.0499598867140776, 1.2164754134905706, 1.4830775182431353, 1.6495718736737217, 1.8330799721948097, 2.1495617691671214, 2.399494004819644, 3.0325140556888073, 3.3489993812190733]",2017_Feb_07_1027,60.0438181709,famFaceGrey,001,11,
89,./greyInner/Ice-T(OdafinFinTutuola)6_1_cut.png,0,117,117,88,,,2.nein,1.501,None,None,None,None,None,polit,1.004,None,,['return'],[0.5169244064245504],2017_Feb_07_1027,60.0438181709,famFaceGrey,001,11,
219,./greyInner/notfamousface4_2_cut.png,0,118,118,218,,,2.nein,1.363,None,act,0.703,None,None,None,None,None,,['return'],[0.567042436680822],2017_Feb_07_1027,60.0438181709,famFaceGrey,001,11,
104,./greyInner/JimParsons(SheldonCooper)8_1_cut.png,0,119,119,103,,,2.nein,1.16,None,None,None,None,None,sport,0.827,None,,['return'],[1.03291406582548],2017_Feb_07_1027,60.0438181709,famFaceGrey,001,11,
171,./greyInner/SahraWagenknecht12_1_cut.png,0,120,120,170,,,2.nein,2.215,None,None,None,host,1.696,None,None,None,,['return'],[0.6003135283940537],2017_Feb_07_1027,60.0438181709,famFaceGrey,001,11,
60,./greyInner/ElvisPresley6_1_cut.png,0,121,121,59,,,1.ja,1.912,None,None,None,music,1.962,None,None,None,Elvis,"['lshift', 'e', 'l', 'v', 'i', 's', 'return']","[0.8670144327634262, 1.1170570160397801, 1.4664506333924692, 1.9165804041226693, 2.1498556017941155, 2.366499744500288, 3.3160481051486386]",2017_Feb_07_1027,60.0438181709,famFaceGrey,001,11,
113,./greyInner/JoshRadnor(Ted)6_2_cut.png,0,122,122,112,,,2.nein,1.313,None,None,None,None,None,sport,1.329,None,,['return'],[0.5834162277087671],2017_Feb_07_1027,60.0438181709,famFaceGrey,001,11,
58,./greyInner/ElvisPresley4_10_cut.png,0,123,123,57,,,1.ja,1.99,None,None,None,music,2.617,None,None,None,Elvis,"['lshift', 'e', 'l', 'v', 'i', 's', 'return']","[0.6834902953432902, 1.033491145404696, 1.3327603169414033, 1.6332474824539531, 1.883168811655196, 2.066354849088384, 2.5327381191054883]",2017_Feb_07_1027,60.0438181709,famFaceGrey,001,11,
159,./greyInner/NicoleKidman7_1_cut.png,0,124,124,158,,,1.ja,4.893,None,None,None,music,2.228,None,None,None,Nicol kidman,"['lshift', 'n', 'i', 'c', 'o', 'l', 'space', 'k', 'i', 'd', 'm', 'a', 'n', 'return']","[1.5000197278454834, 1.6163665414455863, 1.8165072988217617, 2.11587398686288, 2.4662732431711447, 2.666177587178481, 3.049387939582175, 3.1825836163930035, 3.399172264509616, 3.5325180654135693, 3.682425954017617, 3.882314900682104, 3.9490030380879944, 4.215628238855061]",2017_Feb_07_1027,60.0438181709,famFaceGrey,001,11,
5,./greyInner/AlysonHannigan(Lily)8_3_cut.png,0,125,125,4,,,2.nein,1.27,None,None,None,host,1.863,None,None,None,,['return'],[0.5837992366127764],2017_Feb_07_1027,60.0438181709,famFaceGrey,001,11,
23,./greyInner/BenedictCumberbatch3_9_cut.png,0,126,126,22,,,2.nein,1.658,None,None,None,host,3.318,None,None,None,,['return'],[0.6176865428183191],2017_Feb_07_1027,60.0438181709,famFaceGrey,001,11,
12,./greyInner/BarackObama11_2_cut.png,0,127,127,11,,,1.ja,1.318,None,None,None,None,None,polit,1.319,None,Herr Obama,"['lshift', 'h', 'e', 'r', 'r', 'space', 'lshift', 'o', 'b', 'a', 'm', 'a', 'return']","[0.8167190122862849, 1.0168212763051088, 1.2832915413096089, 1.4999639124775968, 1.6164194698117171, 1.8165002417063079, 2.0495900297073604, 2.2995049433493477, 2.5828519792485167, 2.732679994136106, 2.782659448306731, 2.932617057497282, 3.4157805442382596]",2017_Feb_07_1027,60.0438181709,famFaceGrey,001,11,
135,./greyInner/LeonardoDiCaprio7_1_cut.png,0,128,128,134,,,1.ja,3.069,None,act,2.385,None,None,None,None,None,Titanic,"['lshift', 't', 'o', 'backspace', 'i', 't', 'a', 'n', 'i', 'c', 'return']","[0.9997741723045692, 1.166568134364752, 1.3665911662237704, 2.0161694554567475, 2.482626504408472, 2.7492642155166322, 2.949138406394013, 3.1988746467031888, 3.3989512484840816, 3.6655735622489374, 3.832134960276562]",2017_Feb_07_1027,60.0438181709,famFaceGrey,001,11,
148,./greyInner/MilaKunis4_1_cut.png,0,129,129,147,,,2.nein,1.546,None,act,0.897,None,None,None,None,None,,['return'],[0.6000937954800065],2017_Feb_07_1027,60.0438181709,famFaceGrey,001,11,
102,./greyInner/JimParsons(SheldonCooper)10_1_cut.png,0,130,130,101,,,2.nein,1.229,None,None,None,None,None,sport,0.896,None,,['return'],[0.6004877108352957],2017_Feb_07_1027,60.0438181709,famFaceGrey,001,11,
222,./greyInner/notfamousface7_cut.png,0,131,131,221,,,2.nein,1.902,None,None,None,None,None,sport,0.476,None,,['return'],[0.48369726129385526],2017_Feb_07_1027,60.0438181709,famFaceGrey,001,11,
190,./greyInner/TaylorSwift8_1_cut.png,0,132,132,189,,,2.nein,1.262,None,act,0.463,None,None,None,None,None,,['return'],[0.5168448534859635],2017_Feb_07_1027,60.0438181709,famFaceGrey,001,11,
54,./greyInner/DannFlorek(DonaldDonCragen)5_1_cut.png,0,133,133,53,,,2.nein,1.211,None,None,None,None,None,polit,1.361,None,,['return'],[0.6171238982478826],2017_Feb_07_1027,60.0438181709,famFaceGrey,001,11,
140,./greyInner/LisaEdelstein(DrLisaCuddy)9_1_cut.png,0,134,134,139,,,2.nein,1.413,None,None,None,host,3.928,None,None,None,,['return'],[0.7834020493223761],2017_Feb_07_1027,60.0438181709,famFaceGrey,001,11,
117,./greyInner/JudithRakers2_1_cut.png,0,135,135,116,,,2.nein,9.595,None,None,None,None,None,polit,3.032,None,,['return'],[1.3664846679353104],2017_Feb_07_1027,60.0438181709,famFaceGrey,001,11,
130,./greyInner/KatjaBurkard7_1_cut.png,0,136,136,129,,,2.nein,1.409,None,None,None,None,None,polit,0.76,None,,['return'],[0.5835195182171447],2017_Feb_07_1027,60.0438181709,famFaceGrey,001,11,
42,./greyInner/CobieSmulders(Robin)2_1_cut.png,0,137,137,41,,,2.nein,1.644,None,None,None,host,0.861,None,None,None,,['return'],[0.6168653511990669],2017_Feb_07_1027,60.0438181709,famFaceGrey,001,11,
71,./greyInner/GuentherJauch2_1_cut.png,0,138,138,70,,,2.nein,1.079,None,None,None,None,None,polit,1.096,None,,['return'],[0.7334549937272641],2017_Feb_07_1027,60.0438181709,famFaceGrey,001,11,
173,./greyInner/SahraWagenknecht5_1_cut.png,0,139,139,172,,,2.nein,1.678,None,dummy,1.245,None,None,None,None,None,,['return'],[0.8666808236680481],2017_Feb_07_1027,60.0438181709,famFaceGrey,001,11,
37,./greyInner/CarenMiosga13_1_cut.png,0,140,140,36,,,2.nein,1.116,None,None,None,host,3.06,None,None,None,,['return'],[0.633440590795999],2017_Feb_07_1027,60.0438181709,famFaceGrey,001,11,
50,./greyInner/CristinMilioti(Tracy_Mutter)9_1_cut.png,0,141,141,49,,,2.nein,1.335,None,act,0.553,None,None,None,None,None,,['return'],[0.5169308219842605],2017_Feb_07_1027,60.0438181709,famFaceGrey,001,11,
11,./greyInner/BarackObama1_3_cut.png,0,142,142,10,,,1.ja,1.511,None,None,None,None,None,polit,1.161,None,Herr Obama,"['lshift', 'h', 'e', 'r', 'r', 'space', 'lshift', 'o', 'b', 'a', 'm', 'a', 'return']","[0.8833821290099877, 1.0834224828795413, 1.5000168408437276, 1.7665814145734657, 1.8997928095050156, 2.149772520298029, 2.4495802780570557, 2.582870263593122, 2.8660411923833635, 3.05005130843756, 3.1325079288299094, 3.299142464235956, 3.599044851497638]",2017_Feb_07_1027,60.0438181709,famFaceGrey,001,11,
163,./greyInner/OmarEpps(DrEricForeman)3_1_cut.png,0,143,143,162,,,2.nein,2.257,None,None,None,music,1.258,None,None,None,,['return'],[0.7837138455151944],2017_Feb_07_1027,60.0438181709,famFaceGrey,001,11,
98,./greyInner/JasonSegel(Marshall)6_1_cut.png,0,144,144,97,,,2.nein,1.88,None,None,None,None,None,sport,0.743,None,,['return'],[0.7670664308734558],2017_Feb_07_1027,60.0438181709,famFaceGrey,001,11,
201,./greyInner/Usher1_1_cut.png,0,145,145,200,,,2.nein,1.305,None,None,None,music,1.433,None,None,None,,['return'],[1.0833910466376437],2017_Feb_07_1027,60.0438181709,famFaceGrey,001,11,
87,./greyInner/Ice-T(OdafinFinTutuola)12_1_cut.png,0,146,146,86,,,2.nein,1.679,None,None,None,music,1.863,None,None,None,,['return'],[0.5336808855781783],2017_Feb_07_1027,60.0438181709,famFaceGrey,001,11,
29,./greyInner/Beyonce5_3_cut.png,0,147,147,28,,,1.ja,7.364,None,act,1.191,None,None,None,None,None,,['return'],[0.9165518548825276],2017_Feb_07_1027,60.0438181709,famFaceGrey,001,11,
68,./greyInner/EmmaWatson(HermioneGranger)3_1_cut.png,0,148,148,67,,,2.nein,1.493,None,dummy,0.677,None,None,None,None,None,,['return'],[0.8334382811949581],2017_Feb_07_1027,60.0438181709,famFaceGrey,001,11,
72,./greyInner/GuentherJauch3_1_cut.png,0,149,149,71,,,2.nein,1.876,None,None,None,None,None,polit,0.818,None,,['return'],[0.7167998804143281],2017_Feb_07_1027,60.0438181709,famFaceGrey,001,11,
204,./greyInner/Usher4_1_cut.png,0,150,150,203,,,2.nein,1.56,None,None,None,music,1.745,None,None,None,,['return'],[0.5839788722796584],2017_Feb_07_1027,60.0438181709,famFaceGrey,001,11,
146,./greyInner/MilaKunis1_3_cut.png,0,151,151,145,,,2.nein,1.381,None,dummy,0.995,None,None,None,None,None,,['return'],[0.6502487152038157],2017_Feb_07_1027,60.0438181709,famFaceGrey,001,11,
31,./greyInner/BritneySpears1_1_cut.png,0,152,152,30,,,2.nein,2.226,None,None,None,music,3.243,None,None,None,,['return'],[0.5667854935213654],2017_Feb_07_1027,60.0438181709,famFaceGrey,001,11,
150,./greyInner/MilaKunis7_3_cut.png,0,153,153,149,,,2.nein,2.65,None,dummy,1.192,None,None,None,None,None,,['return'],[0.6167617399123628],2017_Feb_07_1027,60.0438181709,famFaceGrey,001,11,
172,./greyInner/SahraWagenknecht2_2_cut.png,0,154,154,171,,,2.nein,1.041,None,None,None,None,None,polit,0.97,None,,['return'],[0.6505082245867015],2017_Feb_07_1027,60.0438181709,famFaceGrey,001,11,
84,./greyInner/HughLaurie(DrHouse)8_1_cut.png,0,155,155,83,,,2.nein,1.357,None,None,None,None,None,sport,0.792,None,,['return'],[1.3163554104498871],2017_Feb_07_1027,60.0438181709,famFaceGrey,001,11,
126,./greyInner/KatjaBurkard1_1_cut.png,0,156,156,125,,,2.nein,1.96,None,None,None,None,None,sport,1.127,None,,['return'],[0.516876610505733],2017_Feb_07_1027,60.0438181709,famFaceGrey,001,11,
44,./greyInner/CobieSmulders(Robin)4_7_cut.png,0,157,157,43,,,2.nein,1.25,None,dummy,1.335,None,None,None,None,None,,['return'],[0.517038282606336],2017_Feb_07_1027,60.0438181709,famFaceGrey,001,11,
20,./greyInner/BastianSchweinsteiger6_2_cut.png,0,158,158,19,,,1.ja,1.775,None,None,None,None,None,sport,1.974,None,Fußbalspieler,"['lshift', 'f', 'u', u'\xdf', 'b', 'a', 'l', 's', 'p', 'i', 'e', 'l', 'e', 'r', 'return']","[1.333299544719921, 1.4499142079303056, 1.6162696664964642, 1.8997337863575012, 2.299512642020545, 2.5161048186946573, 2.6994047323091763, 3.165834835910573, 3.365761313598796, 3.5156708060926576, 3.6990977477857996, 4.115510224637546, 4.265354278424184, 4.49873501205002, 4.665332016432785]",2017_Feb_07_1027,60.0438181709,famFaceGrey,001,11,
79,./greyInner/GeorgeClooney3_1_cut.png,0,159,159,78,,,2.nein,1.279,None,None,None,None,None,polit,1.013,None,,['return'],[0.48347816993600645],2017_Feb_07_1027,60.0438181709,famFaceGrey,001,11,
198,./greyInner/UrsulavonderLeyen5_1_cut.png,0,160,160,197,,,2.nein,1.425,None,None,None,host,0.943,None,None,None,,['return'],[0.5001159612384072],2017_Feb_07_1027,60.0438181709,famFaceGrey,001,11,
10,./greyInner/AngelaMerkel6_1_cut.png,0,161,161,9,,,2.nein,1.354,None,None,None,None,None,sport,6.207,None,,['return'],[1.016720872798487],2017_Feb_07_1027,60.0438181709,famFaceGrey,001,11,
105,./greyInner/JimParsons(SheldonCooper)9_3_cut.png,0,162,162,104,,,2.nein,1.149,None,None,None,None,None,sport,0.546,None,,['return'],[0.43362734773381817],2017_Feb_07_1027,60.0438181709,famFaceGrey,001,11,
144,./greyInner/MariskaHargitay(Liv)6_5_cut.png,0,163,163,143,,,2.nein,1.139,None,dummy,1.708,None,None,None,None,None,,['return'],[0.4336042517197711],2017_Feb_07_1027,60.0438181709,famFaceGrey,001,11,
47,./greyInner/CristinMilioti(Tracy_Mutter)2_1_cut.png,0,164,164,46,,,2.nein,5.994,None,None,None,music,0.864,None,None,None,,['return'],[0.8166526112449901],2017_Feb_07_1027,60.0438181709,famFaceGrey,001,11,
115,./greyInner/JoshRadnor(Ted)9_1_cut.png,0,165,165,114,,,2.nein,1.363,None,None,None,music,0.814,None,None,None,,['return'],[0.5336160884271521],2017_Feb_07_1027,60.0438181709,famFaceGrey,001,11,
2,./greyInner/AlysonHannigan(Lily)12_2_cut.png,0,166,166,1,,,2.nein,1.581,None,None,None,host,0.567,None,None,None,,['return'],[0.5167454123134121],2017_Feb_07_1027,60.0438181709,famFaceGrey,001,11,
116,./greyInner/JudithRakers1_1_cut.png,0,167,167,115,,,2.nein,0.944,None,act,7.242,None,None,None,None,None,,['return'],[0.5005105181498948],2017_Feb_07_1027,60.0438181709,famFaceGrey,001,11,
218,./greyInner/notfamousface3_3_cut.png,0,168,168,217,,,2.nein,0.917,None,None,None,host,7.2,None,None,None,,['return'],[0.7334633339546599],2017_Feb_07_1027,60.0438181709,famFaceGrey,001,11,
215,./greyInner/notfamousface13_1_cut.png,0,169,169,214,,,2.nein,2.027,None,None,None,host,4.729,None,None,None,,['return'],[0.5334871356808435],2017_Feb_07_1027,60.0438181709,famFaceGrey,001,11,
214,./greyInner/notfamousface1_2_cut.png,0,170,170,213,,,2.nein,1.122,None,dummy,0.418,None,None,None,None,None,,['return'],[0.46704760120610445],2017_Feb_07_1027,60.0438181709,famFaceGrey,001,11,
223,./greyInner/notfamousface8_9_cut.png,0,171,171,222,,,2.nein,1.346,None,None,None,music,1.913,None,None,None,,['return'],[0.4170213134507321],2017_Feb_07_1027,60.0438181709,famFaceGrey,001,11,
70,./greyInner/EmmaWatson(HermioneGranger)9_1_cut.png,0,172,172,69,,,2.nein,1.163,None,None,None,host,1.629,None,None,None,,['return'],[0.6670135345848394],2017_Feb_07_1027,60.0438181709,famFaceGrey,001,11,
59,./greyInner/ElvisPresley5_2_cut.png,0,173,173,58,,,1.ja,1.416,None,None,None,music,1.315,None,None,None,Elvis,"['lshift', 'e', 'l', 'v', 'i', 's', 'return']","[1.283003803464453, 1.3830666438698245, 1.6995785939725465, 2.2660256667290923, 2.4660300934651787, 2.682588267673964, 2.8992741115171157]",2017_Feb_07_1027,60.0438181709,famFaceGrey,001,11,
212,./greyInner/notfamousface11_1_cut.png,0,174,174,211,,,2.nein,1.551,None,act,0.57,None,None,None,None,None,,['return'],[0.45030523628338415],2017_Feb_07_1027,60.0438181709,famFaceGrey,001,11,
184,./greyInner/SigmarGabriel4_5_cut.png,0,175,175,183,,,2.nein,1.035,None,None,None,music,1.132,None,None,None,,['return'],[0.5336103144236404],2017_Feb_07_1027,60.0438181709,famFaceGrey,001,11,
19,./greyInner/BastianSchweinsteiger3_1_cut.png,0,176,176,18,,,1.ja,1.179,None,None,None,None,None,sport,1.296,None,Fußballspieler,"['lshift', 'f', 'u', u'\xdf', 'b', 'a', 'l', 'l', 's', 'p', 'i', 'e', 'l', 'e', 'r', 'return']","[1.1665392643467385, 1.3334179117928215, 1.4998291857273216, 2.2496149862336097, 2.5328837523065886, 2.799448005258, 2.949315796614883, 3.099271481137748, 3.399109071247949, 3.615591541854428, 3.8655051723844736, 4.098678683437356, 4.648591255399879, 4.798543411364335, 5.081692206474145, 5.748204044304202]",2017_Feb_07_1027,60.0438181709,famFaceGrey,001,11,
188,./greyInner/TaylorSwift3_1_cut.png,0,177,177,187,,,2.nein,1.579,None,act,0.896,None,None,None,None,None,,['return'],[0.5004774780177286],2017_Feb_07_1027,60.0438181709,famFaceGrey,001,11,
139,./greyInner/LisaEdelstein(DrLisaCuddy)6_3_cut.png,0,178,178,138,,,2.nein,0.992,None,None,None,host,1.242,None,None,None,,['return'],[0.41686028290678223],2017_Feb_07_1027,60.0438181709,famFaceGrey,001,11,
95,./greyInner/JanHofer9_2_cut.png,0,179,179,94,,,2.nein,0.979,None,None,None,None,None,polit,2.362,None,,['return'],[1.0336887446387664],2017_Feb_07_1027,60.0438181709,famFaceGrey,001,11,
56,./greyInner/ElvisPresley1_1_cut.png,0,180,180,55,,,1.ja,1.175,None,None,None,music,1.624,None,None,None,Elvis,"['lshift', 'e', 'l', 'v', 'i', 's', 'return']","[0.8167058603889927, 1.2165835156688445, 1.5830152552384789, 1.9328906811110755, 2.1996557410757305, 2.3661385484988386, 2.5993791021487596]",2017_Feb_07_1027,60.0438181709,famFaceGrey,001,11,
176,./greyInner/Shakira1_1_cut.png,0,181,181,175,,,1.ja,3.775,None,None,None,music,1.242,None,None,None,Shakira,"['lshift', 's', 'h', 'a', 'k', 'i', 'r', 'a', 'return']","[1.1167509938500189, 1.366767273332698, 1.8665929305025202, 2.316324615763733, 2.4996116982592866, 2.699358219502301, 2.9492936629344513, 3.1160398290762714, 3.3661103200370235]",2017_Feb_07_1027,60.0438181709,famFaceGrey,001,11,
34,./greyInner/BritneySpears7_1_cut.png,0,182,182,33,,,1.ja,3.179,None,None,None,music,0.996,None,None,None,Britny,"['lshift', 'b', 'r', 'i', 't', 'n', 'i', 'backspace', 'y', 'return']","[0.8001469804689805, 0.9335806745384616, 1.2832969945352488, 1.433265510176625, 1.6498377986163177, 1.9164463189285925, 2.133115161539081, 2.849469802121803, 3.3159066420607815, 3.465767376302665]",2017_Feb_07_1027,60.0438181709,famFaceGrey,001,11,
73,./greyInner/GuentherJauch4_1_cut.png,0,183,183,72,,,2.nein,1.545,None,None,None,None,None,polit,0.861,None,,['return'],[0.6500777405426561],2017_Feb_07_1027,60.0438181709,famFaceGrey,001,11,
121,./greyInner/KaleyCuoco(Penny)10_1_cut.png,0,184,184,120,,,2.nein,1.04,None,None,None,host,0.757,None,None,None,,['return'],[0.48347015048648245],2017_Feb_07_1027,60.0438181709,famFaceGrey,001,11,
90,./greyInner/Ice-T(OdafinFinTutuola)7_1_cut.png,0,185,185,89,,,2.nein,2.925,None,None,None,music,2.358,None,None,None,,['return'],[1.1498446953428356],2017_Feb_07_1027,60.0438181709,famFaceGrey,001,11,
36,./greyInner/CarenMiosga1_1_cut.png,0,186,186,35,,,2.nein,1.028,None,None,None,None,None,polit,0.778,None,,['return'],[0.5670555885776594],2017_Feb_07_1027,60.0438181709,famFaceGrey,001,11,
114,./greyInner/JoshRadnor(Ted)7_1_cut.png,0,187,187,113,,,2.nein,1.51,None,None,None,host,1.709,None,None,None,,['return'],[0.5668300816605552],2017_Feb_07_1027,60.0438181709,famFaceGrey,001,11,
14,./greyInner/BarackObama4_1_cut.png,0,188,188,13,,,1.ja,1.363,None,None,None,None,None,polit,0.946,None,Herr Obama,"['lshift', 'h', 'e', 'r', 'r', 'space', 'lshift', 'o', 'b', 'a', 'm', 'a', 'return']","[1.0501545989454826, 1.2167371683194688, 1.5166883138335834, 1.7332208258044375, 1.84975593607669, 2.033167801204854, 2.232816164387259, 2.449617809079882, 2.7160890364179977, 2.8493517558263193, 2.949369366537212, 3.0827065064358976, 3.3159175485120613]",2017_Feb_07_1027,60.0438181709,famFaceGrey,001,11,
99,./greyInner/JasonSegel(Marshall)7_1_cut.png,0,189,189,98,,,2.nein,1.344,None,None,None,None,None,polit,2.161,None,,['return'],[0.6834213280785661],2017_Feb_07_1027,60.0438181709,famFaceGrey,001,11,
110,./greyInner/JoachimLoew8_1_cut.png,0,190,190,109,,,1.ja,1.808,None,None,None,None,None,sport,1.042,None,Fußballtrainer,"['lshift', 'f', 'u', u'\xdf', 'b', 'a', 'l', 'l', 't', 'r', 'a', 'i', 'n', 'e', 'r', 'return']","[1.0166191861799234, 1.2166335570332194, 1.4497858967397406, 1.7496905294474345, 2.149505312243946, 2.31607023882907, 2.4993618122161934, 2.6326187576205484, 3.3157792932042867, 3.5154735276373685, 3.7319527904637653, 3.832032632102255, 4.098596564275795, 4.2819558218157, 4.531528465356587, 4.698542160330817]",2017_Feb_07_1027,60.0438181709,famFaceGrey,001,11,
151,./greyInner/NeilPatrickHarris(Barney)1_1_cut.png,0,191,191,150,,,2.nein,1.293,None,None,None,None,None,sport,1.411,None,,['return'],[1.0168084451861432],2017_Feb_07_1027,60.0438181709,famFaceGrey,001,11,
38,./greyInner/CarenMiosga2_11_cut.png,0,192,192,37,,,2.nein,1.657,None,act,3.957,None,None,None,None,None,,['return'],[0.6169269405704654],2017_Feb_07_1027,60.0438181709,famFaceGrey,001,11,
51,./greyInner/DannFlorek(DonaldDonCragen)1_1_cut.png,0,193,193,50,,,2.nein,1.129,None,None,None,None,None,polit,0.679,None,,['return'],[0.500221497192797],2017_Feb_07_1027,60.0438181709,famFaceGrey,001,11,
134,./greyInner/LeonardoDiCaprio4_1_cut.png,0,194,194,133,,,1.ja,1.145,None,act,1.078,None,None,None,None,None,Titanic,"['lshift', 't', 'i', 'r', 'backspace', 't', 'a', 'n', 'i', 'c', 'return']","[1.0169200759214618, 1.200188553294538, 1.4665382057796705, 1.7334209912614824, 2.2331346969176593, 2.5497813737702018, 2.7328599505808597, 2.949496073837963, 3.1326346361302058, 3.399393922091349, 3.699329349484742]",2017_Feb_07_1027,60.0438181709,famFaceGrey,001,11,
153,./greyInner/NeilPatrickHarris(Barney)13_4_cut.png,0,195,195,152,,,2.nein,1.438,None,None,None,music,0.575,None,None,None,,['return'],[0.6668457677033075],2017_Feb_07_1027,60.0438181709,famFaceGrey,001,11,
76,./greyInner/GeorgeClooney11_1_cut.png,0,196,196,75,,,2.nein,1.163,None,dummy,1.097,None,None,None,None,None,,['return'],[0.5831631338851366],2017_Feb_07_1027,60.0438181709,famFaceGrey,001,11,
106,./greyInner/JoachimLoew1_1_cut.png,0,197,197,105,,,1.ja,1.438,None,None,None,None,None,sport,1.353,None,Fußballtrainer,"['lshift', 'f', 'u', u'\xdf', 'b', 'a', 'l', 'l', 't', 'r', 'a', 'i', 'n', 'e', 'r', 'return']","[1.0499698308312873, 1.2166210466921257, 1.433255886837287, 1.7830264183121471, 2.1162380698660854, 2.2827722017655105, 2.4822871213095823, 2.6493842185577705, 3.149241953525234, 3.3156862675914454, 3.4989184970527276, 3.815525076658105, 4.048778782205318, 4.265414263906223, 4.515204394915145, 4.698419302365892]",2017_Feb_07_1027,60.0438181709,famFaceGrey,001,11,
100,./greyInner/JasonSegel(Marshall)9_1_cut.png,0,198,198,99,,,2.nein,1.262,None,None,None,None,None,sport,2.778,None,,['return'],[0.5508928694584938],2017_Feb_07_1027,60.0438181709,famFaceGrey,001,11,
221,./greyInner/notfamousface6_8_cut.png,0,199,199,220,,,2.nein,1.389,None,None,None,music,0.864,None,None,None,,['return'],[0.4337877367220244],2017_Feb_07_1027,60.0438181709,famFaceGrey,001,11,
97,./greyInner/JasonSegel(Marshall)14_1_cut.png,0,200,200,96,,,2.nein,1.521,None,None,None,music,1.905,None,None,None,,['return'],[0.5168291353652421],2017_Feb_07_1027,60.0438181709,famFaceGrey,001,11,
187,./greyInner/TaylorSwift2_1_cut.png,0,201,201,186,,,2.nein,1.107,None,dummy,0.662,None,None,None,None,None,,['return'],[0.7333193046433735],2017_Feb_07_1027,60.0438181709,famFaceGrey,001,11,
41,./greyInner/CobieSmulders(Robin)12_1_cut.png,0,202,202,40,,,2.nein,1.657,None,dummy,0.444,None,None,None,None,None,,['return'],[0.500124301465803],2017_Feb_07_1027,60.0438181709,famFaceGrey,001,11,
210,./greyInner/WillSmith6_1_cut.png,0,203,203,209,,,1.ja,1.879,None,act,5.31,None,None,None,None,None,Anseine Filme kann mich nicht errinern,"['lshift', 'a', 'n', 's', 'e', 'i', 'n', 'e', 'space', 'lshift', 'f', 'i', 'l', 'm', 'e', 'space', 'k', 'a', 'n', 'n', 'space', 'm', 'i', 'c', 'h', 'space', 'n', 'i', 'c', 'h', 't', 'space', 'e', 'r', 'r', 'i', 'n', 'e', 'r', 'n', 'return']","[2.34965312673512, 2.715998256250714, 2.9327610868085685, 3.315957004203028, 3.5658667853972474, 3.699014666289713, 3.882352752483257, 3.965740912119145, 4.165622801668178, 4.465474826787613, 4.548773168590287, 5.315286257454318, 5.5318181278689735, 5.74806707210837, 5.914828314815168, 6.098070488394114, 6.331315532935605, 6.481343392502822, 6.581294922950747, 6.731154053302362, 6.897707111102136, 7.047790144481496, 7.230949236564356, 7.414110253314902, 7.497615817690075, 7.714093476626658, 7.880671555109075, 8.09714055304039, 8.2639649890084, 8.330603085049916, 8.580330664353369, 8.78041785180767, 8.946934340918233, 9.213595789596638, 9.379920453477098, 9.49677024694438, 10.496425731397721, 10.646152380445074, 10.879531830958967, 11.129438404373104, 11.379107281306915]",2017_Feb_07_1027,60.0438181709,famFaceGrey,001,11,
80,./greyInner/GeorgeClooney4_2_cut.png,0,204,204,79,,,1.ja,5.698,None,act,2.2,None,None,None,None,None,Berad pit,"['p', 'i', 't', 'backspace', 'backspace', 'backspace', 'lshift', 'b', 'e', 'r', 'a', 'd', 'space', 'p', 'i', 't', 'return']","[1.0332688462676742, 1.19959286859239, 1.566588535844403, 8.030587463162647, 8.21385177042157, 8.380342597294202, 9.296580731316226, 9.363286511510523, 9.62987995525782, 9.746563906511255, 9.946501611428175, 10.029716230178565, 10.179591399429228, 10.496105594977507, 10.59613411213968, 10.962584456831337, 11.129342491758507]",2017_Feb_07_1027,60.0438181709,famFaceGrey,001,11,
160,./greyInner/NicoleKidman8_2_cut.png,0,205,205,159,,,2.nein,1.975,None,None,None,music,1.959,None,None,None,,['return'],[0.5839111881259669],2017_Feb_07_1027,60.0438181709,famFaceGrey,001,11,
191,./greyInner/TomCruise1_1_cut.png,0,206,206,190,,,2.nein,3.163,None,None,None,None,None,sport,0.68,None,,['return'],[0.5001753051642481],2017_Feb_07_1027,60.0438181709,famFaceGrey,001,11,
7,./greyInner/AngelaMerkel3_1_cut.png,0,207,207,6,,,1.ja,8.166,None,None,None,None,None,polit,1.904,None,Frau Merkel,"['lshift', '1', 'lshift', 'pound', 'lshift', 'f', 'r', 'a', 'u', 'space', 'lshift', 'm', 'e', 'r', 'k', 'e', 'l', 'return']","[1.4166559473360394, 1.5994031604973316, 3.3826236494846853, 4.049040857811633, 5.081919638059844, 5.398305201639232, 6.1480945307034744, 6.348084843208653, 6.881090170368225, 7.131005084010212, 7.61388660691, 7.764300362382983, 8.030681130331686, 8.313883174585499, 8.513784631591534, 8.680442904567826, 8.829940197361793, 9.080257687363883]",2017_Feb_07_1027,60.0438181709,famFaceGrey,001,11,
27,./greyInner/Beyonce11_2_cut.png,0,208,208,26,,,1.ja,8.064,None,None,None,music,2.142,None,None,None,Biance,"['lshift', 'b', 'i', 'a', 'n', 'c', 'e', 'return']","[0.949609629241877, 1.0659124962589885, 1.2492849056961859, 1.449417964400709, 1.6330992830294235, 1.9995236447052775, 2.249534470961862, 2.466054151813296]",2017_Feb_07_1027,60.0438181709,famFaceGrey,001,11,
205,./greyInner/Usher7_1_cut.png,0,209,209,204,,,2.nein,1.613,None,act,0.96,None,None,None,None,None,,['return'],[0.38345574755567213],2017_Feb_07_1027,60.0438181709,famFaceGrey,001,11,
49,./greyInner/CristinMilioti(Tracy_Mutter)8_1_cut.png,0,210,210,48,,,2.nein,1.088,None,None,None,music,2.254,None,None,None,,['return'],[0.43357217392167513],2017_Feb_07_1027,60.0438181709,famFaceGrey,001,11,
67,./greyInner/EmmaWatson(HermioneGranger)16_1_cut.png,0,211,211,66,,,2.nein,1.105,None,dummy,0.413,None,None,None,None,None,,['return'],[0.766949026133716],2017_Feb_07_1027,60.0438181709,famFaceGrey,001,11,
74,./greyInner/GuentherJauch7_1_cut.png,0,212,212,73,,,2.nein,0.911,None,None,None,None,None,polit,0.783,None,,['return'],[0.533638222107129],2017_Feb_07_1027,60.0438181709,famFaceGrey,001,11,
168,./greyInner/RobertSeanLeonard(Wilson)11_2_cut.png,0,213,213,167,,,2.nein,1.113,None,None,None,None,None,sport,0.595,None,,['return'],[0.50008644966465],2017_Feb_07_1027,60.0438181709,famFaceGrey,001,11,
166,./greyInner/RobertSeanLeonard(Wilson)1_1_cut.png,0,214,214,165,,,2.nein,1.911,None,None,None,None,None,polit,1.037,None,,['return'],[0.4838104959194425],2017_Feb_07_1027,60.0438181709,famFaceGrey,001,11,
81,./greyInner/HughLaurie(DrHouse)2_1_cut.png,0,215,215,80,,,2.nein,1.16,None,None,None,host,0.77,None,None,None,,['return'],[0.7999590045747027],2017_Feb_07_1027,60.0438181709,famFaceGrey,001,11,
69,./greyInner/EmmaWatson(HermioneGranger)4_1_cut.png,0,216,216,68,,,2.nein,0.91,None,dummy,0.76,None,None,None,None,None,,['return'],[0.500268651555416],2017_Feb_07_1027,60.0438181709,famFaceGrey,001,11,
195,./greyInner/TomCruise7_1_cut.png,0,217,217,194,,,2.nein,0.973,None,None,None,None,None,sport,0.963,None,,['return'],[0.71680661675191],2017_Feb_07_1027,60.0438181709,famFaceGrey,001,11,
142,./greyInner/MariskaHargitay(Liv)14_1_cut.png,0,218,218,141,,,2.nein,1.266,None,None,None,music,0.746,None,None,None,,['return'],[0.5502805043010994],2017_Feb_07_1027,60.0438181709,famFaceGrey,001,11,
16,./greyInner/BastianSchweinsteiger1_1_cut.png,0,219,219,15,,,1.ja,1.438,None,None,None,None,None,sport,1.141,None,Fußballspieler,"['lshift', 'f', 'u', u'\xdf', 'b', 'a', 'l', 'l', 's', 'p', 'i', 'e', 'l', 'e', 'r', 'return']","[1.1164853896857494, 1.3165498019034203, 1.4663114157501695, 1.7830302676475185, 2.1162168985192693, 2.3161074490740248, 2.649217734787726, 2.8159770528263834, 3.432370218843971, 3.81551962343201, 4.015510577493387, 4.198702068151761, 4.482014460029404, 4.631809114007865, 4.865074046783775, 5.031689335511601]",2017_Feb_07_1027,60.0438181709,famFaceGrey,001,11,
21,./greyInner/BenedictCumberbatch16_1_cut.png,0,220,220,20,,,2.nein,1.711,None,act,1.244,None,None,None,None,None,,['return'],[0.4504989861816284],2017_Feb_07_1027,60.0438181709,famFaceGrey,001,11,
208,./greyInner/WillSmith4_1_cut.png,0,221,221,207,,,1.ja,1.342,None,act,2.974,None,None,None,None,None,an seine Filme jkann ich mich nicht errinern,"['a', 'n', 'space', 's', 'e', 'i', 'n', 'e', 'space', 'lshift', 'f', 'i', 'l', 'm', 'e', 'space', 'j', 'a', 'backspace', 'k', 'a', 'n', 'n', 'space', 'm', 'backspace', 'i', 'c', 'h', 'space', 'm', 'i', 'c', 'h', 'space', 'n', 'i', 'c', 'h', 't', 'space', 'e', 'r', 'r', 'i', 'n', 'e', 'r', 'n', 'return']","[4.998496513624559, 5.148274487148228, 5.398088676505267, 5.6980959581651405, 5.948019853590267, 6.064769564328799, 6.247930260301473, 6.347725571874889, 6.514530440386352, 6.814284628223049, 6.897618255602993, 7.114144672792008, 7.564054710608616, 7.913789635727426, 8.080395301115914, 8.230396215332803, 8.530452255245564, 8.713561947519793, 8.996773615112943, 9.296335336163793, 9.446743959189007, 9.613118022878552, 9.763082689184102, 9.912881513276261, 10.096341495101115, 10.529414538491892, 10.896053821411897, 11.062756361749052, 11.145882124999844, 11.329153168596804, 11.462180757748229, 11.645731519739911, 11.912375004851583, 12.06217158349773, 12.245350563815464, 12.378832053803308, 12.52865333235377, 12.678660982908696, 12.761899660007202, 13.045128328833016, 13.22831725326796, 13.52828764546075, 13.811598112670708, 13.96135555640376, 14.14477672409339, 14.844392528310891, 15.011008137816134, 15.244260239473533, 15.394295156156204, 15.644141744088756]",2017_Feb_07_1027,60.0438181709,famFaceGrey,001,11,
167,./greyInner/RobertSeanLeonard(Wilson)10_1_cut.png,0,222,222,166,,,2.nein,1.62,None,act,0.788,None,None,None,None,None,,['return'],[0.4500909565949769],2017_Feb_07_1027,60.0438181709,famFaceGrey,001,11,
224,./greyInner/notfamousface9_1_cut.png,0,223,223,223,,,2.nein,1.11,None,None,None,None,None,sport,2.277,None,,['return'],[0.8837487782370772],2017_Feb_07_1027,60.0438181709,famFaceGrey,001,11,
