num,pic,trials.thisRepN,trials.thisTrialN,trials.thisN,trials.thisIndex,key_resp_2.keys,key_resp_2.rt,ratingBekannt.response,ratingBekannt.rt,key_resp_5.keys,ratingK1.response,ratingK1.rt,ratingK2.response,ratingK2.rt,ratingK3.response,ratingK3.rt,key_resp_6.keys,inputText,key_resp_4.keys,key_resp_4.rt,date,frameRate,expName,session,participant,
,,,,,,space,30.6195265253,,,,,,,,,,,,,,2017_Feb_07_1229,60.0349145331,famFaceGrey,001,12,
163,./greyInner/OmarEpps(DrEricForeman)3_1_cut.png,0,0,0,162,,,2.nein,3.491,None,None,None,music,8.453,None,None,None,,['return'],[4.265446020925083],2017_Feb_07_1229,60.0349145331,famFaceGrey,001,12,
62,./greyInner/EmilyDeschanel3_1_cut.png,0,1,1,61,,,2.nein,6.115,None,dummy,4.037,None,None,None,None,None,,['return'],[1.4667281063411792],2017_Feb_07_1229,60.0349145331,famFaceGrey,001,12,
93,./greyInner/JanHofer5_1_cut.png,0,2,2,92,,,2.nein,4.026,None,None,None,host,21.236,None,None,None,,['return'],[1.5328442966165312],2017_Feb_07_1229,60.0349145331,famFaceGrey,001,12,
153,./greyInner/NeilPatrickHarris(Barney)13_4_cut.png,0,3,3,152,,,2.nein,5.797,None,None,None,None,None,sport,14.984,None,,['return'],[1.383126308573992],2017_Feb_07_1229,60.0349145331,famFaceGrey,001,12,
116,./greyInner/JudithRakers1_1_cut.png,0,4,4,115,,,2.nein,3.844,None,act,4.96,None,None,None,None,None,,['return'],[0.9499871849202464],2017_Feb_07_1229,60.0349145331,famFaceGrey,001,12,
39,./greyInner/CarenMiosga6_2_cut.png,0,5,5,38,,,2.nein,5.944,None,act,9.86,None,None,None,None,None,,['return'],[0.8834036211337661],2017_Feb_07_1229,60.0349145331,famFaceGrey,001,12,
195,./greyInner/TomCruise7_1_cut.png,0,6,6,194,,,2.nein,2.396,None,None,None,music,4.445,None,None,None,,['return'],[0.966812631339053],2017_Feb_07_1229,60.0349145331,famFaceGrey,001,12,
166,./greyInner/RobertSeanLeonard(Wilson)1_1_cut.png,0,7,7,165,,,2.nein,3.753,None,None,None,music,14.964,None,None,None,,['return'],[1.6665763142045762],2017_Feb_07_1229,60.0349145331,famFaceGrey,001,12,
144,./greyInner/MariskaHargitay(Liv)6_5_cut.png,0,8,8,143,,,2.nein,34.899,None,None,None,music,2.571,None,None,None,,['return'],[1.282852396259841],2017_Feb_07_1229,60.0349145331,famFaceGrey,001,12,
16,./greyInner/BastianSchweinsteiger1_1_cut.png,0,9,9,15,,,2.nein,3.073,None,None,None,None,None,sport,4.555,None,,['return'],[1.3499427892493259],2017_Feb_07_1229,60.0349145331,famFaceGrey,001,12,
103,./greyInner/JimParsons(SheldonCooper)6_1_cut.png,0,10,10,102,,,1.ja,4.044,None,act,1.912,None,None,None,None,None,Sheldon,"['lshift', 's', 'h', 'e', 'l', 'o', 'n', 'backspace', 'backspace', 'd', 'o', 'n', 'return']","[1.3667178735231573, 1.55012685165093, 1.9832117638270574, 2.116298696902959, 2.299772472180848, 2.482969416065316, 2.766186536884561, 3.1161065508949832, 3.282644852908561, 4.049136128869577, 4.1821598686856305, 4.398756857030094, 7.297653092091423]",2017_Feb_07_1229,60.0349145331,famFaceGrey,001,12,
71,./greyInner/GuentherJauch2_1_cut.png,0,11,11,70,,,1.ja,4.26,None,None,None,host,4.477,None,None,None,Günther Jauch,"['lshift', 'g', u'\xfc', 'plus', 'backspace', u'\xfc', 'n', 't', 'h', 'e', 'r', 'space', 'lshift', 'j', 'a', 'u', 'c', 'h', 'return']","[0.967351859117116, 1.1008468217805785, 1.3842602587192232, 1.7503949578840547, 2.5502327083831915, 2.866870403451685, 3.1334596770848293, 3.299949862401263, 3.3667072878506588, 3.5165301702909346, 3.5993787813713425, 4.032389914611485, 4.1824245105162845, 4.332256695517572, 4.416086887205893, 4.59938551770756, 4.666180794958564, 5.765672009008995]",2017_Feb_07_1229,60.0349145331,famFaceGrey,001,12,
10,./greyInner/AngelaMerkel6_1_cut.png,0,12,12,9,,,2.nein,25.253,None,None,None,None,None,polit,2.652,None,,['return'],[1.816454370455176],2017_Feb_07_1229,60.0349145331,famFaceGrey,001,12,
210,./greyInner/WillSmith6_1_cut.png,0,13,13,209,,,1.ja,4.661,None,act,0.912,None,None,None,None,None,Will Smith,"['lshift', 'w', 'o', 'backspace', 'i', 'l', 'l', 'space', 'lshift', 's', 'm', 'i', 't', 'g', 'backspace', 'h', 'return']","[0.8168704194904421, 0.9002797504726914, 1.18347762461417, 1.4833716716475465, 1.6667277214091882, 1.9163597088754614, 2.033192501108715, 2.2165463054243446, 2.3496996395424503, 2.5829199841791706, 2.866091554526065, 2.999441525544171, 3.2659259047777596, 3.4160252978344943, 4.115757223678884, 4.415568830774646, 5.132173998956205]",2017_Feb_07_1229,60.0349145331,famFaceGrey,001,12,
19,./greyInner/BastianSchweinsteiger3_1_cut.png,0,14,14,18,,,1.ja,6.511,None,None,None,None,None,sport,1.729,None,Schweinsteiger,"['lshift', 's', 'c', 'h', 'w', 'e', 'i', 'n', 's', 't', 'e', 'i', 'g', 'e', 'r', 'return']","[3.015968648443959, 3.2326804753029137, 3.582427269207983, 3.83229470770857, 3.9989478482366394, 4.148887493860457, 4.265442171588802, 4.4987128783686785, 4.6652864659590705, 4.798533788025452, 4.915327766124392, 5.0317714546727075, 5.298418468342788, 5.3816953180212295, 5.448223707993748, 17.4932096114062]",2017_Feb_07_1229,60.0349145331,famFaceGrey,001,12,
187,./greyInner/TaylorSwift2_1_cut.png,0,15,15,186,,,2.nein,5.909,None,act,5.892,None,None,None,None,None,,['return'],[1.0333240200779983],2017_Feb_07_1229,60.0349145331,famFaceGrey,001,12,
11,./greyInner/BarackObama1_3_cut.png,0,16,16,10,,,1.ja,2.28,None,None,None,None,None,polit,1.563,None,Barack Obama,"['lshift', 'n', 'h', 'backspace', 'backspace', 'lshift', 'b', 'a', 'r', 'a', 'c', 'k', 'space', 'lshift', 'o', 'b', 'a', 'm', 'a', 'left', 'left', 'left', 'left', 'return']","[0.38368061291839695, 0.550574016149767, 1.1500920151629543, 1.3000306984522467, 1.516608760895906, 1.7498871663483442, 1.9664722859070025, 2.0830920815642457, 2.865954261551451, 3.099213420324304, 3.1991129847410775, 3.3158889992737386, 3.5490506415408163, 3.5991051577584585, 4.398538407229353, 4.8316996645626205, 4.948636388862724, 5.081820196888657, 5.964917795832662, 6.014778882930841, 6.214832709474649, 6.381263871642659, 10.263040827660006]",2017_Feb_07_1229,60.0349145331,famFaceGrey,001,12,
146,./greyInner/MilaKunis1_3_cut.png,0,17,17,145,,,1.ja,37.125,None,None,None,music,5.694,None,None,None,,['return'],[0.8170221474738355],2017_Feb_07_1229,60.0349145331,famFaceGrey,001,12,
206,./greyInner/WillSmith1_1_cut.png,0,18,18,205,,,1.ja,3.445,None,None,None,music,2.579,None,None,None,,['return'],[0.7000950465153437],2017_Feb_07_1229,60.0349145331,famFaceGrey,001,12,
177,./greyInner/Shakira2_1_cut.png,0,19,19,176,,,2.nein,3.095,None,act,6.511,None,None,None,None,None,,['return'],[1.0334295560332976],2017_Feb_07_1229,60.0349145331,famFaceGrey,001,12,
179,./greyInner/Shakira7_1_cut.png,0,20,20,178,,,2.nein,4.928,None,act,5.394,None,None,None,None,None,,['return'],[0.6501755778263032],2017_Feb_07_1229,60.0349145331,famFaceGrey,001,12,
47,./greyInner/CristinMilioti(Tracy_Mutter)2_1_cut.png,0,21,21,46,,,2.nein,5.662,None,None,None,host,2.163,None,None,None,,['return'],[1.5832898411863425],2017_Feb_07_1229,60.0349145331,famFaceGrey,001,12,
66,./greyInner/EmmaWatson(HermioneGranger)11_2_cut.png,0,22,22,65,,,2.nein,5.843,None,None,None,music,8.092,None,None,None,,['return'],[0.9502531098605687],2017_Feb_07_1229,60.0349145331,famFaceGrey,001,12,
203,./greyInner/Usher2_1_cut.png,0,23,23,202,,,1.ja,4.611,None,None,None,music,3.028,None,None,None,Usher,"['lshift', 'u', 's', 'h', 'e', 'r', 'return']","[1.1501670772086072, 1.3000932501581701, 1.5167037111768877, 1.6666520178059727, 1.7165904123958171, 1.8666124979590677, 3.1493045052302477]",2017_Feb_07_1229,60.0349145331,famFaceGrey,001,12,
20,./greyInner/BastianSchweinsteiger6_2_cut.png,0,24,24,19,,,1.ja,3.692,None,None,None,None,None,sport,2.757,None,,['return'],[1.3498462350762566],2017_Feb_07_1229,60.0349145331,famFaceGrey,001,12,
98,./greyInner/JasonSegel(Marshall)6_1_cut.png,0,25,25,97,,,1.ja,19.49,None,act,3.53,None,None,None,None,None,,['return'],[0.717018330216888],2017_Feb_07_1229,60.0349145331,famFaceGrey,001,12,
150,./greyInner/MilaKunis7_3_cut.png,0,26,26,149,,,2.nein,8.837,None,None,None,host,3.453,None,None,None,,['return'],[1.9831498536768777],2017_Feb_07_1229,60.0349145331,famFaceGrey,001,12,
121,./greyInner/KaleyCuoco(Penny)10_1_cut.png,0,27,27,120,,,1.ja,5.556,None,act,1.277,None,None,None,None,None,Spielt auch in der Serie Big Bang Theory mit,"['lshift', 'a', 'u', 'c', 'h', 'space', 'v', 'o', 'n', 'space', 'backspace', 'backspace', 'backspace', 'backspace', 'backspace', 'backspace', 'backspace', 'backspace', 'u', 'c', 'h', 'space', 'v', 'backspace', 'backspace', 'backspace', 'backspace', 'backspace', 'backspace', 'lshift', 's', 'p', 'i', 'e', 'l', 't', 'space', 'a', 'u', 'c', 'h', 'space', 'b', 'e', 'i', 'space', 'lshift', 't', 'h', 'e', 'space', 'lshift', 'b', 'backspace', 'backspace', 'i', 'backspace', 'space', 'b', 'i', 'g', 'space', 'b', 's', 'n', 'backspace', 'backspace', 'backspace', 'a', 'b', 'n', 'g', 'backspace', 'backspace', 'backspace', 'backspace', 'b', 'a', 'n', 'g', 'space', 'lshift', 't', 'h', 'e', 'r', 'backspace', 'o', 'r', 'i', 'e', 'backspace', 'backspace', 'y', 'space', 'm', 'i', 't', 'backspace', 'backspace', 'backspace', 'backspace', 'backspace', 'backspace', 'backspace', 'backspace', 'backspace', 'backspace', 'backspace', 'backspace', 'backspace', 'backspace', 'backspace', 'backspace', 'backspace', 'backspace', 'backspace', 'backspace', 'backspace', 'backspace', 'backspace', 'backspace', 'backspace', 'backspace', 'backspace', 'i', 'n', 'space', 'd', 'e', 'r', 'space', 'lshift', 's', 'e', 'r', 'e', 'i', 'backspace', 'backspace', 'i', 'e', 'space', 'lshift', 'b', 'i', 'f', 'backspace', 'g', 'space', 'lshift', 'b', 'a', 'n', 'g', 'space', 'lshift', 't', 'e', 'backspace', 'h', 'e', 'o', 'r', 'y', 'space', 'm', 'i', 't', 'return']","[2.332855587999802, 2.4493522049142484, 2.5994198409516684, 2.7492520259529556, 2.865910956523294, 3.0492830451821646, 3.249133498489755, 3.3155508992840623, 3.415627853921251, 3.532422152797153, 16.64356979695731, 16.8601282919426, 17.06009486687799, 17.276908380355962, 17.426527248002458, 17.59304085011172, 17.759881004201816, 17.92654601351569, 20.225458800719935, 20.408714446974045, 20.47527138618716, 20.67527292592058, 20.891845855916472, 21.40842767146205, 21.59161948289875, 22.774475119016643, 22.991055426904495, 23.157723323220125, 23.307630891045847, 23.67438982415115, 23.824114548531725, 24.17396976539203, 24.45708038792327, 24.60719710298872, 24.923711619316236, 25.640129773937588, 25.789943995372596, 25.95651437518245, 26.356379520122573, 26.439681711259254, 26.606412159280808, 26.75621771971055, 26.90616923412017, 27.006134878798548, 27.78925143572087, 27.922464113764363, 28.305524662853713, 28.371882719722635, 28.539010932432575, 28.638747541637713, 28.80540934317105, 29.556431742776113, 29.67171100727137, 30.63745993884004, 30.80458526455004, 31.10444338445086, 31.487413794928216, 31.73765012810145, 32.05402382289685, 32.303939698871545, 32.470633257426016, 32.58727679065487, 33.40361888881853, 33.553338159972554, 33.67012411862197, 34.08665432099042, 34.23656220959492, 34.38635622201764, 35.11956934914997, 35.252770158409476, 35.46928470681269, 35.5691400038686, 35.88588644267111, 36.03580331305784, 36.18584400374493, 36.319206164325806, 36.88543542883599, 36.96875590431955, 37.10201477439114, 37.65182052728778, 37.88495843198507, 38.03501516156939, 38.20160863739511, 38.46814786966388, 38.568218729518776, 38.75147020565964, 39.53448571752051, 39.75111959533206, 39.900882813068165, 40.000736185455025, 40.10103255222748, 42.44997130640877, 42.64978871958556, 43.14949729279397, 47.697699797363384, 48.214152660162654, 48.447293131084734, 48.530728124304005, 51.64586720882289, 52.9121953691847, 53.06235603083405, 53.24555746560873, 54.57845667941547, 54.69501231947652, 54.8779497539781, 54.994790244883916, 55.16139398560517, 55.294610192206164, 55.44471343459736, 55.67764283361066, 55.81107492379124, 55.961245208778564, 56.09428562904941, 56.24434428330278, 56.51089827135911, 56.644177029666025, 56.794058935252906, 56.91068642958271, 57.077305888424235, 57.22724168471177, 57.34377487031634, 57.59381584970288, 57.743546027308184, 57.893728181083134, 58.02684141795362, 58.60999428694413, 58.776654163810235, 58.97637117347949, 59.0930541623984, 59.17660110713223, 59.2764637820801, 59.426362688900554, 59.742838070314974, 59.876261499488464, 60.1260833875167, 60.292663069889386, 60.492655307061796, 60.59249616910893, 61.109123214348074, 61.275629438563556, 61.425811592338505, 61.725380370504354, 61.842090946329336, 63.54141195558623, 63.62433210015479, 63.84254003549722, 63.97460529071941, 64.37423626773489, 64.49106553141064, 64.72425925147581, 65.00735960911152, 65.20736563973878, 65.35697392171278, 65.45728793127273, 66.19036055765173, 66.29020398592183, 66.52339834754275, 66.60661424940554, 66.88998149431791, 67.30632340001466, 67.50647313917398, 68.35605457203201, 68.80583180776557, 68.95578941695567, 69.27224491013476, 69.40570971966736, 70.45534177129048, 70.57185474788275, 70.67177452131, 72.12139906672746]",2017_Feb_07_1229,60.0349145331,famFaceGrey,001,12,
184,./greyInner/SigmarGabriel4_5_cut.png,0,28,28,183,,,2.nein,9.127,None,None,None,None,None,polit,1.925,None,,['return'],[0.9166968465269747],2017_Feb_07_1229,60.0349145331,famFaceGrey,001,12,
131,./greyInner/LeonardoDiCaprio1_1_cut.png,0,29,29,130,,,1.ja,4.086,None,act,6.468,None,None,None,None,None,Leonardo di Caprio,"['lshift', 'l', 'e', 'o', 'n', 'a', 't', 'd', 'o', 'backspace', 'backspace', 'backspace', 'r', 'd', 'o', 'space', 'd', 'i', 'e', 'space', 'backspace', 'backspace', 'space', 'lshift', 'c', 'a', 'p', 'r', 'o', 'backspace', 'i', 'p', 'o', 'backspace', 'backspace', 'o', 'return']","[0.566764322175004, 0.7833571404044051, 0.9499037826462882, 1.0666461154905846, 1.2331430371450551, 1.4830261937659088, 1.7161624945747462, 1.9827257851920876, 2.1160946821109974, 2.3493438967652764, 2.4992822592776065, 2.6324898048733303, 4.115144858522399, 4.281956784148861, 4.498598039854187, 4.582302486574918, 5.081566782284426, 5.164903617443997, 5.281719408445497, 5.4148156440842286, 5.997958889734946, 6.147808396748587, 6.281088117388208, 6.4811342452612735, 6.864269535619314, 7.014199557903339, 7.247439790775388, 7.497243394458565, 7.580558737494357, 7.847243923743008, 8.013747260956734, 8.846705979076432, 9.0297098146184, 9.263176837519495, 9.413186091964235, 9.66319338966423, 11.062503588702384]",2017_Feb_07_1229,60.0349145331,famFaceGrey,001,12,
156,./greyInner/NicoleKidman14_1_cut.png,0,30,30,155,,,1.ja,5.093,None,act,1.062,None,None,None,None,None,,['return'],[7.94801504192219],2017_Feb_07_1229,60.0349145331,famFaceGrey,001,12,
33,./greyInner/BritneySpears5_1_cut.png,0,31,31,32,,,1.ja,1.828,None,None,None,music,3.043,None,None,None,Britney Spears,"['lshift', 'n', 'backspace', 'lshift', 'b', 'r', 'i', 't', 'n', 'e', 'y', 'space', 'lshift', 's', 'p', 'p', 'e', 'backspace', 'backspace', 'e', 'a', 'r', 's', 'return']","[0.4835310983016825, 0.5835551245727402, 0.9333221274882817, 1.083196655183201, 1.1665376604560151, 1.8163087372540758, 2.032927859278061, 2.2493644586338633, 2.4826287498544843, 2.5993043608796143, 2.882531425815614, 3.3490484602498327, 3.582234802421226, 3.832227665110622, 4.281849965082074, 4.998325218184618, 5.081581538071987, 5.514730605842487, 5.681468431757821, 5.964647379996677, 6.630861215087862, 6.714324115991985, 6.814323121579946, 7.447139157655329]",2017_Feb_07_1229,60.0349145331,famFaceGrey,001,12,
134,./greyInner/LeonardoDiCaprio4_1_cut.png,0,32,32,133,,,1.ja,7.726,None,act,1.295,None,None,None,None,None,Leonardo di Caprio,"['lshift', 'l', 'r', 'backspace', 'e', 'o', 'n', 'a', 'r', 'd', 'p', 'backspace', 'o', 'space', 'd', 'i', 'e', 'space', 'backspace', 'backspace', 'space', 'lshift', 'c', 'a', 'p', 'r', 'o', 'p', 'backspace', 'backspace', 'i', 'o', 'return']","[0.4835051152858796, 0.6834851628955221, 0.9833811345979484, 1.5331785472681076, 1.7664447631559597, 1.8996943306665344, 2.0996878509504313, 2.2162245651124977, 2.4827961959581444, 2.565968151238849, 2.732752489959239, 3.1824816089974775, 3.5490949089016794, 3.6489235813842242, 3.8655305138454423, 3.9988978068722645, 4.082218923911569, 4.298790250017191, 4.848470899503809, 4.998364353097713, 6.547821099557041, 6.614456950152089, 7.547324856026535, 7.780547125332305, 7.96396380213082, 8.247092067449557, 8.68022349243256, 8.73032099289776, 9.512958307524968, 9.646602752723993, 9.929724602483475, 9.996313940273467, 11.595812692607069]",2017_Feb_07_1229,60.0349145331,famFaceGrey,001,12,
31,./greyInner/BritneySpears1_1_cut.png,0,33,33,30,,,1.ja,1.609,None,act,0.809,None,None,None,None,None,Britney Spears,"['lshift', 'b', 'r', 'i', 't', 'n', 'e', 'y', 'space', 'lshift', 's', 'p', 'e', 'a', 'r', 's', 'return']","[0.8332843077660073, 1.1665777577054541, 1.4830557053410303, 1.6329995210780908, 1.849482312463806, 2.1161768012734683, 2.216133784946578, 2.549293791245873, 3.898809945785615, 3.9487220365808753, 4.098700496340825, 4.398710023446256, 4.498497636348475, 4.765018905050965, 5.081559725171246, 5.164891427883049, 6.397710800049026]",2017_Feb_07_1229,60.0349145331,famFaceGrey,001,12,
76,./greyInner/GeorgeClooney11_1_cut.png,0,34,34,75,,,1.ja,7.16,None,act,2.712,None,None,None,None,None,George Clooney,"['lshift', 'g', 'e', 'o', 'r', 'g', 'e', 'space', 'lshift', 'c', 'l', 'o', 'o', 'n', 'e', 'x', 'y', 'backspace', 'backspace', 'y', 'return']","[0.9839854803067283, 1.3838012254364003, 1.7004639411879907, 2.0501889221905003, 2.633261275908808, 2.7832050916458684, 2.866580740939753, 3.0663144310638017, 3.565894372304683, 3.8994460485137097, 4.232658341623392, 4.399247005778307, 4.5322441210228135, 4.732472771564062, 4.815726204449675, 5.0489321140776156, 5.631912725295479, 5.7153547756315675, 5.965251084149713, 6.115179181766507, 7.74788615333091]",2017_Feb_07_1229,60.0349145331,famFaceGrey,001,12,
209,./greyInner/WillSmith5_1_cut.png,0,35,35,208,,,1.ja,1.845,None,act,2.795,None,None,None,None,None,Will Smith,"['lshift', 'w', 'i', 'l', 'l', 'space', 'lshift', 's', 'm', 'i', 't', 'h', 'return']","[0.7005803835927509, 1.0338789659781469, 1.3503065514723858, 1.550290448418309, 1.666822671688351, 1.8664325415138592, 2.099988099136681, 2.2167506409932685, 2.816348834499877, 2.899641723077366, 3.133030476152271, 3.26617899860139, 4.016072259730208]",2017_Feb_07_1229,60.0349145331,famFaceGrey,001,12,
113,./greyInner/JoshRadnor(Ted)6_2_cut.png,0,36,36,112,,,2.nein,3.695,None,None,None,music,3.212,None,None,None,,['return'],[1.4666581767432945],2017_Feb_07_1229,60.0349145331,famFaceGrey,001,12,
72,./greyInner/GuentherJauch3_1_cut.png,0,37,37,71,,,1.ja,1.65,None,None,None,host,1.734,None,None,None,Günther Jauch,"['lshift', 'g', u'\xfc', 'n', 't', 'h', 'e', 'r', 'space', 'lshift', 'j', 'a', 'u', 'c', 'h', 'return']","[0.5170363579381956, 0.8002608566512208, 1.08324573421487, 1.4331833910146088, 1.6831942172721028, 1.866364215806243, 1.9831168135460757, 2.1163253214763245, 2.249605683673508, 2.632626777070982, 2.832750853991456, 2.9657444406784634, 3.0158467528126494, 3.1993144333100645, 3.265867202409936, 4.215471378425718]",2017_Feb_07_1229,60.0349145331,famFaceGrey,001,12,
25,./greyInner/BenedictCumberbatch6_5_cut.png,0,38,38,24,,,2.nein,3.013,None,None,None,None,None,sport,5.53,None,,['return'],[0.6833501153687394],2017_Feb_07_1229,60.0349145331,famFaceGrey,001,12,
96,./greyInner/JasonSegel(Marshall)11_1_cut.png,0,39,39,95,,,1.ja,27.586,None,None,None,music,1.263,None,None,None,,['return'],[3.3991956813024444],2017_Feb_07_1229,60.0349145331,famFaceGrey,001,12,
104,./greyInner/JimParsons(SheldonCooper)8_1_cut.png,0,40,40,103,,,1.ja,2.077,None,dummy,0.96,None,None,None,None,None,Sheldon,"['lshift', 's', 'h', 'e', 'l', 'd', 'p', 'm', 'backspace', 'backspace', 'o', 'n', 'return']","[0.8168014522270823, 1.1166239657723054, 1.433287964635383, 1.5165609649775433, 1.9497042587445321, 2.182872316572684, 2.5494095920967084, 2.8159424088062224, 3.199127419749857, 3.3491896025607275, 3.632226766934764, 3.798880869797358, 5.631511752824736]",2017_Feb_07_1229,60.0349145331,famFaceGrey,001,12,
140,./greyInner/LisaEdelstein(DrLisaCuddy)9_1_cut.png,0,41,41,139,,,2.nein,6.278,None,dummy,3.928,None,None,None,None,None,,"['pound', 'return']","[1.1004628505415894, 1.6837764292977226]",2017_Feb_07_1229,60.0349145331,famFaceGrey,001,12,
52,./greyInner/DannFlorek(DonaldDonCragen)10_1_cut.png,0,42,42,51,,,2.nein,2.702,None,None,None,None,None,polit,3.985,None,,['return'],[0.8500802426115115],2017_Feb_07_1229,60.0349145331,famFaceGrey,001,12,
57,./greyInner/ElvisPresley2_1_cut.png,0,43,43,56,,,2.nein,9.747,None,None,None,None,None,sport,1.184,None,,['return'],[0.8007128328190447],2017_Feb_07_1229,60.0349145331,famFaceGrey,001,12,
186,./greyInner/TaylorSwift1_2_cut.png,0,44,44,185,,,2.nein,9.447,None,None,None,music,6.231,None,None,None,,['return'],[1.1499175119424763],2017_Feb_07_1229,60.0349145331,famFaceGrey,001,12,
211,./greyInner/notfamousface10_4_cut.png,0,45,45,210,,,2.nein,11.713,None,None,None,None,None,sport,5.913,None,,['return'],[0.9166987711942056],2017_Feb_07_1229,60.0349145331,famFaceGrey,001,12,
125,./greyInner/KaleyCuoco(Penny)7_1_cut.png,0,46,46,124,,,1.ja,11.022,None,dummy,1.926,None,None,None,None,None,Spielt auch bei Big Bang Theory,"['lshift', 's', 'p', 'i', 'e', 'l', 't', 'backspace', 't', 'space', 'a', 'u', 'c', 'h', 'space', 'b', 'r', 'backspace', 'r', 'e', 'backspace', 'backspace', 'e', 'i', 'space', 'lshift', 'b', 'i', 'f', 'backspace', 'g', 'space', 'lshift', 'b', 'a', 'n', 'g', 'space', 'lshift', 't', 'h', 'e', 'o', 'r', 'x', 'backspace', 'x', 'backspace', 'y', 'return']","[2.7991689284172026, 2.9158968262545386, 3.4657089947104396, 3.69897681448856, 3.9321410229786125, 4.015482669808989, 4.248708788449221, 4.881705743304337, 5.631530037167977, 5.747848622306265, 5.864694245659848, 6.03102211732039, 6.231221577065298, 6.314480783954423, 6.514417526537727, 7.547281871777159, 7.647245912565268, 8.196402090059564, 9.263260881349197, 9.479609587539017, 9.729485045490947, 9.846424336012205, 9.97961744659915, 10.113023232985142, 10.829334247762745, 11.045858419507567, 11.229117273540396, 11.512358773485175, 11.745351365760143, 11.995501088880701, 12.09533040291899, 12.262091004069589, 12.745233961020858, 12.795321838146265, 12.94489900465669, 13.04503434088474, 13.428206841486826, 13.944683762634668, 14.078119381372744, 14.211160443199333, 14.394486660607072, 14.5444901410483, 14.877648864236107, 15.0275840189679, 15.327494104902144, 15.944002430213004, 16.22710310862567, 16.760286146785802, 17.30998668450593, 18.143028804899586]",2017_Feb_07_1229,60.0349145331,famFaceGrey,001,12,
200,./greyInner/UrsulavonderLeyen8_2_cut.png,0,47,47,199,,,2.nein,3.09,None,None,None,host,6.79,None,None,None,,['return'],[0.9001668366254307],2017_Feb_07_1229,60.0349145331,famFaceGrey,001,12,
151,./greyInner/NeilPatrickHarris(Barney)1_1_cut.png,0,48,48,150,,,2.nein,4.893,None,act,10.824,None,None,None,None,None,,['return'],[1.00021844980256],2017_Feb_07_1229,60.0349145331,famFaceGrey,001,12,
183,./greyInner/SigmarGabriel3_3_cut.png,0,49,49,182,,,2.nein,9.506,None,None,None,None,None,polit,5.597,None,,['return'],[0.8334347526360943],2017_Feb_07_1229,60.0349145331,famFaceGrey,001,12,
218,./greyInner/notfamousface3_3_cut.png,0,50,50,217,,,2.nein,4.028,None,None,None,music,2.831,None,None,None,,['return'],[0.8332920064385689],2017_Feb_07_1229,60.0349145331,famFaceGrey,001,12,
129,./greyInner/KatjaBurkard5_3_cut.png,0,51,51,128,,,1.ja,5.383,None,None,None,host,1.701,None,None,None,Moderiert Punkt 12 bei RTL und lispelt,"['lshift', 'm', 'o', 'd', 'e', 'r', 'i', 'e', 'r', 't', 'space', 'backspace', 'backspace', 'backspace', 'r', 't', 'space', 'b', 'e', 'i', 'space', 'lshift', 'r', 't', 'l', 'backspace', 'backspace', 'lshift', 't', 'l', 'backspace', 'lshift', 'l', 'space', 'backspace', 'comma', 'backspace', 'backspace', 'backspace', 'backspace', 'backspace', 'backspace', 'backspace', 'backspace', 'backspace', 'backspace', 'backspace', 'backspace', 'backspace', 'backspace', 'backspace', 'backspace', 'backspace', 'lshift', 'm', 'o', 'd', 'e', 'r', 'i', 'e', 'r', 't', 'space', 't', 'a', 'f', 'f', 'space', 'o', 'd', 'e', 'r', 'space', 'lshift', 'p', 'u', 'n', 'k', 't', 'space', '1', '2', 'space', 'b', 'e', 'i', 'space', 'lshift', 'r', 't', 'l', 'backspace', 'backspace', 'backspace', 'backspace', 'backspace', 'backspace', 'backspace', 'backspace', 'backspace', 'backspace', 'backspace', 'backspace', 'backspace', 'backspace', 'backspace', 'backspace', 'backspace', 'backspace', 'backspace', 'backspace', 'backspace', 'backspace', 'backspace', 'backspace', 'backspace', 'backspace', 'lshift', 'p', 'u', 'n', 'k', 't', 'space', '1', '2', 'space', 'b', 'e', 'i', 'space', 'lshift', 'r', 't', 'l', 'space', 'backspace', 'backspace', 'backspace', 'lshift', 't', 'lshift', 'l', 'comma', 'space', 'u', 'd', 'n', 'backspace', 'backspace', 'n', 'd', 'space', 'l', 'i', 'e', 'backspace', 's', 'p', 'e', 'l', 't', 'return']","[0.9337080233963206, 1.050302798372286, 1.3003944606789446, 1.616944904137199, 1.700152465773499, 1.8499657248739823, 3.266250211312581, 3.382484752621167, 3.482671413325079, 3.682541754867998, 3.7828066853981, 4.83213656416774, 4.998659468838014, 5.148530467973615, 5.9317140674938855, 6.081665261124726, 6.198667103353728, 8.414115706540542, 8.63034604565837, 8.713818249123506, 9.16373951416972, 9.313438255532674, 9.630193996898015, 9.896691207251934, 10.21332761920894, 10.646287748752002, 10.77962905876484, 10.896449340658364, 11.279434827700243, 11.529397858037555, 12.24535986637784, 12.479041489745214, 12.795626256447576, 13.095613649873485, 14.844815313685103, 16.277939039995545, 17.093740627269653, 18.37651956537229, 18.576714534226994, 18.726537737444232, 18.909675337403314, 19.059833432827872, 19.193027826528123, 19.29309323315647, 19.493080658659892, 19.676146083575077, 19.859364840360286, 20.20925630513193, 20.392496233265774, 20.57567232658039, 20.759148026527328, 20.959087014554825, 21.142174893928313, 31.92122815622315, 32.03789510624483, 32.23788541874819, 33.32055696038515, 33.4373531839301, 33.95376659103931, 34.520170358768155, 34.62012958788728, 34.76998518968139, 34.91995274299006, 35.10325810982977, 35.61970102851046, 35.73635610974634, 35.8529900196354, 36.019473147836834, 36.33614901548572, 37.21898004793184, 37.318993167749795, 37.4023107562316, 37.7688659953219, 38.25192266299746, 38.41856393473972, 38.78515766718738, 39.018341122357015, 39.185748091131245, 39.301572036629295, 39.43465255414776, 39.68461141437183, 40.3512990385334, 40.48444948564975, 40.61769680771431, 40.83424696247312, 40.95072657815581, 41.05084074303704, 41.2341480345458, 41.733674405862985, 42.08381351123353, 42.25049744644821, 42.566925031942446, 43.533278309218076, 43.68306783074877, 43.83293177277119, 43.98293525321242, 45.91562288186287, 47.14841498790338, 47.31504695708463, 47.43168984875774, 47.564800840182215, 47.64813158055949, 47.79794516043876, 47.948072461178526, 48.08129893267687, 48.19787959342102, 48.331343761397875, 48.46453655120786, 48.54788653826472, 48.74765679707707, 48.8976721463041, 49.03095988639325, 49.180985179737036, 49.34731305139758, 49.48054529689762, 49.64743549235209, 49.847188749932684, 50.03052202445542, 50.38055559387067, 50.63039640779971, 51.03009378585739, 51.263426082008664, 51.363163332767726, 51.47994030963491, 51.63003328713057, 51.92970535580571, 52.07989456669566, 52.16302193383672, 52.81292966205183, 52.91260788966247, 53.02930435125745, 53.26263857207596, 53.66236770715295, 53.77881171648005, 53.91229481035771, 54.37870278027913, 54.97836801638368, 55.3448639115486, 55.47837330922084, 55.861485182784236, 56.36125598691979, 56.511394194112654, 57.16101193903705, 57.27766926571712, 57.81042598994645, 58.7769685262283, 59.17696711480494, 59.50998341257218, 59.61004208286249, 59.84323676526219, 60.243018507928355, 60.64311942467975, 60.82621628583365, 60.92630286381063, 61.49252507120582, 61.70918846059067, 62.025737620937434, 62.42557293352547, 62.59214203022384, 62.692092598337695, 63.45819060050053, 63.62515136710863, 63.74176346409513, 66.02419756587369]",2017_Feb_07_1229,60.0349145331,famFaceGrey,001,12,
95,./greyInner/JanHofer9_2_cut.png,0,52,52,94,,,2.nein,7.542,None,act,1.312,None,None,None,None,None,,['return'],[1.5505672798117303],2017_Feb_07_1229,60.0349145331,famFaceGrey,001,12,
38,./greyInner/CarenMiosga2_11_cut.png,0,53,53,37,,,1.ja,4.237,None,act,1.94,None,None,None,None,None,,['return'],[3.648845953111959],2017_Feb_07_1229,60.0349145331,famFaceGrey,001,12,
42,./greyInner/CobieSmulders(Robin)2_1_cut.png,0,54,54,41,,,2.nein,12.322,None,None,None,host,4.059,None,None,None,,['return'],[1.0666573427206458],2017_Feb_07_1229,60.0349145331,famFaceGrey,001,12,
138,./greyInner/LisaEdelstein(DrLisaCuddy)2_2_cut.png,0,55,55,137,,,2.nein,6.939,None,None,None,host,3.657,None,None,None,,['return'],[1.2832681245181448],2017_Feb_07_1229,60.0349145331,famFaceGrey,001,12,
30,./greyInner/Beyonce8_3_cut.png,0,56,56,29,,,1.ja,3.595,None,None,None,music,1.378,None,None,None,Beyonce,"['lshift', 'b', 'e', 'y', 'o', 'n', 'c', 'e', 'return']","[0.450364259431808, 0.61723456665095, 0.9002980348177516, 1.3834518982203008, 1.6335307294084487, 1.8834443599371298, 2.2499899756894592, 2.3666521140403347, 3.1829217163813155]",2017_Feb_07_1229,60.0349145331,famFaceGrey,001,12,
172,./greyInner/SahraWagenknecht2_2_cut.png,0,57,57,171,,,2.nein,21.417,None,None,None,host,4.361,None,None,None,,['return'],[1.5000550134227524],2017_Feb_07_1229,60.0349145331,famFaceGrey,001,12,
23,./greyInner/BenedictCumberbatch3_9_cut.png,0,58,58,22,,,1.ja,4.617,None,None,None,None,None,sport,6.614,None,,['return'],[1.9165399860976322],2017_Feb_07_1229,60.0349145331,famFaceGrey,001,12,
112,./greyInner/JoshRadnor(Ted)3_1_cut.png,0,59,59,111,,,1.ja,35.639,None,None,None,music,11.894,None,None,None,,"['pound', 'return']","[1.0501622976171348, 1.4499215858231764]",2017_Feb_07_1229,60.0349145331,famFaceGrey,001,12,
178,./greyInner/Shakira3_1_cut.png,0,60,60,177,,,1.ja,4.196,None,None,None,music,22.971,None,None,None,,"['less', 'lshift', 'b', 'backspace', 'return']","[1.2500631130660622, 1.5164801289265597, 1.649827533719872, 6.531244256068021, 9.046924364722145]",2017_Feb_07_1229,60.0349145331,famFaceGrey,001,12,
45,./greyInner/CobieSmulders(Robin)5_1_cut.png,0,61,61,44,,,2.nein,5.645,None,dummy,2.246,None,None,None,None,None,,['return'],[0.8667048820170749],2017_Feb_07_1229,60.0349145331,famFaceGrey,001,12,
82,./greyInner/HughLaurie(DrHouse)4_1_cut.png,0,62,62,81,,,1.ja,2.942,None,act,12.087,None,None,None,None,None,,['return'],[1.249881552732404],2017_Feb_07_1229,60.0349145331,famFaceGrey,001,12,
15,./greyInner/BarackObama5_2_cut.png,0,63,63,14,,,1.ja,1.478,None,None,None,None,None,polit,2.06,None,Barack Obama,"['lshift', 'b', 'a', 'r', 'a', 'k', 'space', 'backspace', 'backspace', 'c', 'k', 'space', 'lshift', 'o', 'b', 'a', 'm', 'a', 'return']","[0.5000874119996297, 0.6835012017945701, 0.9169101638835855, 1.0834433334475762, 1.1500830333789054, 1.5831195080809266, 1.8662054307078506, 2.216113575934287, 2.43280872233845, 3.0658181875351147, 3.3825020746317023, 3.582275862003371, 3.881979046142078, 4.515342008668085, 4.948447129856504, 5.098365283354724, 5.248309419870566, 5.897780569259339]",2017_Feb_07_1229,60.0349145331,famFaceGrey,001,12,
49,./greyInner/CristinMilioti(Tracy_Mutter)8_1_cut.png,0,64,64,48,,,2.nein,5.569,None,None,None,music,2.204,None,None,None,,['return'],[0.7668418862904218],2017_Feb_07_1229,60.0349145331,famFaceGrey,001,12,
192,./greyInner/TomCruise4_1_cut.png,0,65,65,191,,,1.ja,5.955,None,None,None,None,None,sport,8.105,None,,['return'],[0.8667757739494846],2017_Feb_07_1229,60.0349145331,famFaceGrey,001,12,
169,./greyInner/RobertSeanLeonard(Wilson)2_6_cut.png,0,66,66,168,,,2.nein,2.472,None,None,None,music,5.199,None,None,None,,['return'],[0.7835848927697953],2017_Feb_07_1229,60.0349145331,famFaceGrey,001,12,
223,./greyInner/notfamousface8_9_cut.png,0,67,67,222,,,2.nein,4.778,None,None,None,music,2.229,None,None,None,,['return'],[1.133469300424622],2017_Feb_07_1229,60.0349145331,famFaceGrey,001,12,
190,./greyInner/TaylorSwift8_1_cut.png,0,68,68,189,,,2.nein,4.011,None,None,None,music,3.844,None,None,None,,['return'],[0.6673192359958193],2017_Feb_07_1229,60.0349145331,famFaceGrey,001,12,
142,./greyInner/MariskaHargitay(Liv)14_1_cut.png,0,69,69,141,,,2.nein,7.342,None,act,4.294,None,None,None,None,None,,['return'],[0.8504199464878184],2017_Feb_07_1229,60.0349145331,famFaceGrey,001,12,
181,./greyInner/SigmarGabriel1_2_cut.png,0,70,70,180,,,2.nein,1.963,None,None,None,host,2.979,None,None,None,,['return'],[1.2831638716743328],2017_Feb_07_1229,60.0349145331,famFaceGrey,001,12,
37,./greyInner/CarenMiosga13_1_cut.png,0,71,71,36,,,2.nein,5.359,None,dummy,8.691,None,None,None,None,None,,['return'],[0.683471048665524],2017_Feb_07_1229,60.0349145331,famFaceGrey,001,12,
54,./greyInner/DannFlorek(DonaldDonCragen)5_1_cut.png,0,72,72,53,,,2.nein,4.043,None,None,None,None,None,polit,2.644,None,,['return'],[0.8339303546108567],2017_Feb_07_1229,60.0349145331,famFaceGrey,001,12,
126,./greyInner/KatjaBurkard1_1_cut.png,0,73,73,125,,,1.ja,4.243,None,None,None,host,11.023,None,None,None,Wieder die von Punkt 12,"['lshift', 'w', 'i', 'e', 'd', 'e', 'r', 'space', 'd', 'i', 'e', 'space', 'v', 'o', 'n', 'space', 'lshift', 'p', 'u', 'n', 'k', 't', 'space', '1', '2', 'return']","[1.366331656839975, 1.4997345562242117, 1.7329853747705783, 1.8163693642927683, 2.032908933377257, 2.099322484835284, 2.2328357318438066, 2.365849527543105, 2.8824605338832043, 3.1491017735497735, 3.249204711202765, 3.365551524802868, 3.8654076558796078, 3.9986402221584285, 4.248683767767943, 4.465187409721693, 4.631737901298038, 4.765128611117689, 4.998213908227626, 5.198228599858339, 5.33116797506591, 5.381413995735784, 5.598051081326048, 6.130986799666061, 6.281162217101155, 8.946729363791746]",2017_Feb_07_1229,60.0349145331,famFaceGrey,001,12,
64,./greyInner/EmilyDeschanel6_12_cut.png,0,74,74,63,,,1.ja,4.262,None,None,None,music,3.761,None,None,None,,['return'],[11.245955230300751],2017_Feb_07_1229,60.0349145331,famFaceGrey,001,12,
162,./greyInner/OmarEpps(DrEricForeman)2_2_cut.png,0,75,75,161,,,2.nein,2.386,None,None,None,music,1.67,None,None,None,,['return'],[1.8664476180783822],2017_Feb_07_1229,60.0349145331,famFaceGrey,001,12,
40,./greyInner/CarenMiosga9_1_cut.png,0,76,76,39,,,2.nein,2.195,None,None,None,None,None,polit,2.595,None,,['return'],[1.050399031762936],2017_Feb_07_1229,60.0349145331,famFaceGrey,001,12,
78,./greyInner/GeorgeClooney16_1_cut.png,0,77,77,77,,,2.nein,4.739,None,None,None,music,6.923,None,None,None,,['return'],[0.8167350511848781],2017_Feb_07_1229,60.0349145331,famFaceGrey,001,12,
165,./greyInner/OmarEpps(DrEricForeman)9_1_cut.png,0,78,78,164,,,2.nein,2.246,None,None,None,music,2.829,None,None,None,,['return'],[1.0500798576777015],2017_Feb_07_1229,60.0349145331,famFaceGrey,001,12,
90,./greyInner/Ice-T(OdafinFinTutuola)7_1_cut.png,0,79,79,89,,,1.ja,9.672,None,act,1.675,None,None,None,None,None,,['return'],[0.8499131172848138],2017_Feb_07_1229,60.0349145331,famFaceGrey,001,12,
217,./greyInner/notfamousface2_cut.png,0,80,80,216,,,2.nein,5.684,None,None,None,host,3.739,None,None,None,,['return'],[0.7666118884808384],2017_Feb_07_1229,60.0349145331,famFaceGrey,001,12,
111,./greyInner/JoshRadnor(Ted)1_2_cut.png,0,81,81,110,,,1.ja,11.44,None,act,3.426,None,None,None,None,None,,['return'],[12.195829180594956],2017_Feb_07_1229,60.0349145331,famFaceGrey,001,12,
216,./greyInner/notfamousface14_6_cut.png,0,82,82,215,,,2.nein,5.494,None,None,None,music,2.142,None,None,None,,['return'],[0.9667029252705106],2017_Feb_07_1229,60.0349145331,famFaceGrey,001,12,
48,./greyInner/CristinMilioti(Tracy_Mutter)4_2_cut.png,0,83,83,47,,,1.ja,5.51,None,None,None,music,18.405,None,None,None,,"['lshift', 'c', 'h', 'e', 'r', 'backspace', 'backspace', 'backspace', 'backspace', 'return']","[30.371386155415166, 30.471519566974166, 30.871237154044138, 31.021188026898017, 31.154453312528858, 40.400641106863986, 41.267084234050344, 41.4835782526643, 41.6667440810852, 41.966719926502265]",2017_Feb_07_1229,60.0349145331,famFaceGrey,001,12,
35,./greyInner/BritneySpears8_5_cut.png,0,84,84,34,,,1.ja,4.319,None,None,None,music,2.139,None,None,None,Britney Spears,"['lshift', 'b', 'r', 'i', 't', 'n', 'e', 'y', 'space', 'lshift', 's', 'o', 'backspace', 'p', 'e', 'a', 'r', 's', 'return']","[1.1831494687430677, 1.4997586145727837, 1.8329821349125268, 2.0329150281595503, 2.282811336679515, 2.549503259264384, 2.666204211751392, 2.9825743779874756, 3.1657921724399785, 3.365548637801112, 3.498997087657699, 3.6321674230075587, 4.132081935676979, 4.765098457988643, 4.948390031375311, 5.464867273300115, 5.714819717964929, 6.014570056466255, 6.697390888173686]",2017_Feb_07_1229,60.0349145331,famFaceGrey,001,12,
9,./greyInner/AngelaMerkel5_1_cut.png,0,85,85,8,,,1.ja,1.694,None,None,None,None,None,polit,1.212,None,Angela Merkel,"['lshift', 'a', 'n', 'g', 'e', 'l', 'a', 'space', 'lshift', 'm', 'e', 'r', 'k', 'e', 'l', 'return']","[0.5003010501295648, 0.6499706006979977, 1.499941458017929, 1.749824935419383, 1.8497222543883254, 2.0496028608249617, 2.216184788643659, 2.332789186959417, 2.5994098968349135, 2.765961992299708, 3.132484832814953, 3.249022509311544, 3.399168094394554, 3.9488788970102178, 4.048823049564817, 4.81524664137396]",2017_Feb_07_1229,60.0349145331,famFaceGrey,001,12,
212,./greyInner/notfamousface11_1_cut.png,0,86,86,211,,,1.ja,2.984,None,act,3.917,None,None,None,None,None,Scarlett Johannson,"['lshift', 's', 'c', 'a', 'r', 'l', 'e', 't', 't', 'space', 'lshift', 'j', 'o', 'h', 'a', 'n', 'n', 's', 'e', 'backspace', 'o', 'n', 'return']","[0.5666729004533408, 0.8335210419136274, 1.0166759638814256, 1.1501122241752455, 1.3832921507873834, 1.716432910408912, 1.8163934226413403, 1.9997109790438117, 2.1327844394454587, 2.299592836514421, 2.4994327041495126, 3.015877547499258, 3.232550560223899, 3.482408054607731, 3.615791065756639, 3.7655995131881355, 3.915509326459869, 4.3488367467853095, 4.515417070713738, 4.98172335401614, 5.348083239319749, 5.598310911487715, 6.531166948578175]",2017_Feb_07_1229,60.0349145331,famFaceGrey,001,12,
174,./greyInner/SahraWagenknecht6_2_cut.png,0,87,87,173,,,2.nein,2.347,None,None,None,host,4.617,None,None,None,,['return'],[0.7167081379138835],2017_Feb_07_1229,60.0349145331,famFaceGrey,001,12,
1,./greyInner/AlysonHannigan(Lily)1_1_cut.png,0,88,88,0,,,1.ja,1.946,None,act,1.55,None,None,None,None,None,Spielt bei How I met your mother,"['lshift', 's', 'p', 'i', 'e', 'l', 'z', 'backspace', 't', 'space', 'b', 'e', 'i', 'space', 'lshift', 'h', 'o', 'w', 'space', 'lshift', 'i', 'space', 'm', 'e', 't', 'space', 'y', 'o', 'u', 'r', 'space', 'm', 'o', 't', 'h', 'e', 'r', 'return']","[1.4000730090665456, 1.5332138328431029, 1.8664575621951371, 2.0663962294474914, 2.1996169269405073, 2.2996425571000145, 2.4661301761934737, 2.982314227048846, 3.1825409529210447, 3.299178070590642, 3.4990529030237667, 3.565805837581138, 3.699014666290168, 4.19854713238783, 4.46534683637401, 4.565452019473014, 4.9151770004755235, 5.0318596686156525, 5.5650776715756365, 6.048164492380238, 6.181338356287597, 6.41454105813682, 7.514355295610585, 7.73081980265124, 8.447150064106609, 8.630023343011999, 8.846770134670805, 9.063340819220684, 9.280147275583658, 9.430063825193429, 9.54663582493231, 9.879905537300147, 10.06304506192646, 10.31301162082309, 10.463071558187949, 10.579572024438676, 10.712795288156485, 12.428956820396706]",2017_Feb_07_1229,60.0349145331,famFaceGrey,001,12,
92,./greyInner/JanHofer3_1_cut.png,0,89,89,91,,,1.ja,7.41,None,None,None,host,6.311,None,None,None,,['return'],[0.9167921175867377],2017_Feb_07_1229,60.0349145331,famFaceGrey,001,12,
173,./greyInner/SahraWagenknecht5_1_cut.png,0,90,90,172,,,2.nein,6.592,None,None,None,None,None,sport,3.91,None,,['return'],[0.816753014751157],2017_Feb_07_1229,60.0349145331,famFaceGrey,001,12,
36,./greyInner/CarenMiosga1_1_cut.png,0,91,91,35,,,2.nein,2.961,None,None,None,None,None,polit,2.061,None,,['return'],[0.8832672904954961],2017_Feb_07_1229,60.0349145331,famFaceGrey,001,12,
83,./greyInner/HughLaurie(DrHouse)5_3_cut.png,0,92,92,82,,,2.nein,5.426,None,act,6.426,None,None,None,None,None,,['return'],[0.8004456247654161],2017_Feb_07_1229,60.0349145331,famFaceGrey,001,12,
145,./greyInner/MariskaHargitay(Liv)8_8_cut.png,0,93,93,144,,,1.ja,27.249,None,dummy,8.061,None,None,None,None,None,,['return'],[0.7664672176124441],2017_Feb_07_1229,60.0349145331,famFaceGrey,001,12,
46,./greyInner/CristinMilioti(Tracy_Mutter)10_1_cut.png,0,94,94,45,,,1.ja,3.027,None,None,None,music,2.41,None,None,None,,['return'],[0.7171023740465898],2017_Feb_07_1229,60.0349145331,famFaceGrey,001,12,
171,./greyInner/SahraWagenknecht12_1_cut.png,0,95,95,170,,,1.ja,20.206,None,act,4.278,None,None,None,None,None,,['return'],[39.15144890600277],2017_Feb_07_1229,60.0349145331,famFaceGrey,001,12,
12,./greyInner/BarackObama11_2_cut.png,0,96,96,11,,,1.ja,1.033,None,None,None,None,None,polit,1.31,None,Barack Obama,"['lshift', 'b', 'a', 'r', 'a', 'c', 'k', 'space', 'lshift', 'o', 'b', 'a', 'm', 'a', 'return']","[0.6668630897147523, 0.8504340607196355, 1.1335421170260815, 1.2834759886463871, 1.416576394398362, 1.683293658445109, 1.883163999986209, 1.9997796255302092, 2.2829313076417748, 2.5495609993013204, 2.849630832666662, 3.049289460743239, 3.382630065045305, 3.549294112024654, 4.248807588068303]",2017_Feb_07_1229,60.0349145331,famFaceGrey,001,12,
117,./greyInner/JudithRakers2_1_cut.png,0,97,97,116,,,2.nein,6.114,None,act,2.28,None,None,None,None,None,,['return'],[0.9333943025339977],2017_Feb_07_1229,60.0349145331,famFaceGrey,001,12,
185,./greyInner/SigmarGabriel8_2_cut.png,0,98,98,184,,,2.nein,7.413,None,None,None,music,5.217,None,None,None,,['return'],[0.700119425640878],2017_Feb_07_1229,60.0349145331,famFaceGrey,001,12,
59,./greyInner/ElvisPresley5_2_cut.png,0,99,99,58,,,1.ja,2.764,None,None,None,music,1.199,None,None,None,Elvis Presley,"['lshift', 'e', 'l', 'v', 'i', 's', 'space', 'lshift', 'p', 'r', 'w', 'a', 'p', 'a', 'backspace', 'backspace', 'backspace', 'backspace', 'e', 's', 'l', 'e', 'y', 'return']","[0.4998981529934099, 0.849531391493656, 1.5827483679622674, 1.799195552990568, 1.9492567734687327, 2.032527849141843, 2.182647451210869, 2.482150149115114, 2.7653550803697726, 2.9987765527985175, 3.215245550729378, 3.4320481577560713, 3.8984452212262113, 3.9647679925183184, 4.331733506640376, 4.631645196463069, 4.798111002653968, 5.264506141455058, 5.531086433305973, 5.714327002993741, 5.930924312116986, 6.114296721552819, 6.81401453316721, 7.480293806964255]",2017_Feb_07_1229,60.0349145331,famFaceGrey,001,12,
176,./greyInner/Shakira1_1_cut.png,0,100,100,175,,,1.ja,2.46,None,None,None,host,11.921,None,None,None,Enissa Amani,"['lshift', 'e', 'n', 'i', 's', 's', 'a', 'space', 'lshift', 'a', 'm', 'a', 'n', 'i', 'return']","[0.8001402441313985, 0.9497408274328336, 1.3998292178057454, 1.5498702292698, 1.9328980590034917, 2.3660413527722994, 2.565674639388817, 2.7160072380338534, 3.065667101107465, 3.2325441446628247, 3.5495722265295626, 3.9821220810408704, 4.298620237690557, 4.482071237731361, 5.281552283120618]",2017_Feb_07_1229,60.0349145331,famFaceGrey,001,12,
180,./greyInner/Shakira9_1_cut.png,0,101,101,179,,,1.ja,16.754,None,None,None,host,1.977,None,None,None,,['return'],[1.0332929046144272],2017_Feb_07_1229,60.0349145331,famFaceGrey,001,12,
170,./greyInner/RobertSeanLeonard(Wilson)8_1_cut.png,0,102,102,169,,,2.nein,11.391,None,None,None,music,1.262,None,None,None,,['return'],[0.7666721947407495],2017_Feb_07_1229,60.0349145331,famFaceGrey,001,12,
193,./greyInner/TomCruise5_1_cut.png,0,103,103,192,,,2.nein,8.008,None,None,None,None,None,sport,1.377,None,,['return'],[0.6669638139992458],2017_Feb_07_1229,60.0349145331,famFaceGrey,001,12,
32,./greyInner/BritneySpears14_2_cut.png,0,104,104,31,,,1.ja,5.093,None,dummy,0.662,None,None,None,None,None,Britney Spears,"['lshift', 'b', 'r', 'i', 't', 'n', 'e', 'y', 'backspace', 'backspace', 'backspace', 'backspace', 'backspace', 'backspace', 'backspace', 'backspace', 'backspace', 'lshift', 'b', 'r', 'i', 't', 'n', 'e', 'y', 'space', 'lshift', 's', 'p', 'e', 'a', 'r', 's', 'return']","[0.6668521832616534, 0.9167234710985213, 1.2665132492529665, 1.4165077479101456, 1.749723569577327, 2.016212439704759, 2.1495117278027465, 2.5160397007639403, 3.199201840237947, 4.798516786791879, 5.1317537798058765, 5.314884322649959, 5.464686675299163, 5.564586560492899, 5.7313044981729035, 5.931310208021387, 6.2143589204024465, 6.897537098773682, 7.09759284998654, 7.330851046424868, 7.530752182652577, 7.763924089815191, 8.213743989021168, 8.347155549410672, 8.680189810744196, 8.81352662986501, 9.013423275200694, 9.146722884075643, 9.380005780418287, 9.479904382500536, 9.779796504866681, 10.012739376554237, 10.096189125561068, 10.662771887402414]",2017_Feb_07_1229,60.0349145331,famFaceGrey,001,12,
208,./greyInner/WillSmith4_1_cut.png,0,105,105,207,,,1.ja,1.425,None,act,4.674,None,None,None,None,None,Will Smith,"['lshift', 'w', 'i', 'l', 'l', 'space', 'lshift', 's', 'm', 'i', 't', 'h', 'return']","[0.3335167114109936, 0.5833402033294988, 0.8332458144086559, 1.0332200880166056, 1.1830958988230122, 1.3997002650594368, 1.5662096970554558, 1.6660354825362447, 2.016127112765389, 2.5658626152835495, 2.832067917679524, 2.9824742952587258, 3.6654417225017824]",2017_Feb_07_1229,60.0349145331,famFaceGrey,001,12,
164,./greyInner/OmarEpps(DrEricForeman)5_2_cut.png,0,106,106,163,,,2.nein,2.186,None,None,None,music,1.149,None,None,None,,['return'],[0.9001966689775145],2017_Feb_07_1229,60.0349145331,famFaceGrey,001,12,
50,./greyInner/CristinMilioti(Tracy_Mutter)9_1_cut.png,0,107,107,49,,,2.nein,7.317,None,None,None,music,0.936,None,None,None,,['return'],[1.2500326391582348],2017_Feb_07_1229,60.0349145331,famFaceGrey,001,12,
6,./greyInner/AngelaMerkel1_1_cut.png,0,108,108,5,,,1.ja,1.475,None,None,None,None,None,polit,0.944,None,Angela Merkel,"['lshift', 'a', 'n', 'g', 'e', 'l', 'a', 'space', 'lshift', 'm', 'e', 'r', 'k', 'a', 'l', 'backspace', 'backspace', 'e', 'l', 'return']","[0.7497139462411724, 0.8831688116570149, 1.0998678073974588, 1.2996884283529653, 1.4164885012323793, 1.582676834474114, 1.7494146603876288, 1.9506688381206914, 2.1160725484314753, 2.265960548800649, 2.9490501924519776, 3.065776165620264, 3.382301267618459, 3.7653470609202486, 3.8986931826020736, 4.515022834581032, 4.681483187545382, 4.831653151757564, 4.998164508418995, 5.647904469753485]",2017_Feb_07_1229,60.0349145331,famFaceGrey,001,12,
214,./greyInner/notfamousface1_2_cut.png,0,109,109,213,,,1.ja,28.927,None,None,None,music,2.157,None,None,None,,['return'],[0.7168537711131648],2017_Feb_07_1229,60.0349145331,famFaceGrey,001,12,
130,./greyInner/KatjaBurkard7_1_cut.png,0,110,110,129,,,2.nein,2.625,None,act,2.61,None,None,None,None,None,,['return'],[0.8834680975087394],2017_Feb_07_1229,60.0349145331,famFaceGrey,001,12,
154,./greyInner/NeilPatrickHarris(Barney)2_2_cut.png,0,111,111,153,,,1.ja,13.459,None,None,None,host,6.512,None,None,None,,['return'],[0.9002066130942694],2017_Feb_07_1229,60.0349145331,famFaceGrey,001,12,
159,./greyInner/NicoleKidman7_1_cut.png,0,112,112,158,,,1.ja,4.094,None,act,2.112,None,None,None,None,None,,['return'],[1.1667083143420314],2017_Feb_07_1229,60.0349145331,famFaceGrey,001,12,
132,./greyInner/LeonardoDiCaprio2_1_cut.png,0,113,113,131,,,1.ja,1.461,None,act,3.242,None,None,None,None,None,Leonardo di Caprio,"['lshift', 'l', 'e', 'o', 'n', 'a', 'r', 'd', 'o', 'space', 'd', 'i', 'space', 'lshift', 'c', 'a', 'r', 'backspace', 'p', 'r', 'o', 'backspace', 'i', 'o', 'return']","[0.40017565801827004, 0.6002548260239564, 0.7834264284483652, 1.0000856477181514, 1.2165860818913643, 1.3666569257075025, 1.5828747544837825, 1.7163485458004288, 2.2161761276383913, 2.499475046841326, 2.949195825651259, 3.5989325792052114, 3.9655458791094134, 4.08189140959621, 4.265526215418504, 4.398758460918543, 4.648601520293596, 4.9650698445911985, 5.148362701091173, 5.2316748363464285, 5.465072250426601, 6.014781449151997, 6.297717568462758, 6.414241130729351, 7.01427077061453]",2017_Feb_07_1229,60.0349145331,famFaceGrey,001,12,
5,./greyInner/AlysonHannigan(Lily)8_3_cut.png,0,114,114,4,,,1.ja,23.226,None,act,5.685,None,None,None,None,None,,['return'],[2.1996692137490754],2017_Feb_07_1229,60.0349145331,famFaceGrey,001,12,
75,./greyInner/GuentherJauch9_1_cut.png,0,115,115,74,,,1.ja,1.637,None,None,None,host,1.938,None,None,None,Günther Jauch,"['lshift', 'h', 'backspace', 'lshift', 'g', u'\xfc', 'plus', 'n', 't', 'h', 'e', 'r', 'space', 'lshift', 'j', 'a', 'u', 'c', 'h', 'return']","[0.46682177351067367, 0.949978844691941, 1.249648988699846, 1.3332055567734642, 1.5162937569220958, 1.8993312099973991, 3.132466869248674, 3.365729235800245, 3.515522285890256, 3.632383306585325, 3.765435595641975, 3.8321766614135413, 4.231954875520387, 4.365085755180189, 4.481860486601363, 4.581937762015514, 4.714831265971952, 4.7817096247181325, 5.364993371122182]",2017_Feb_07_1229,60.0349145331,famFaceGrey,001,12,
43,./greyInner/CobieSmulders(Robin)3_4_cut.png,0,116,116,42,,,1.ja,3.291,None,act,1.009,None,None,None,None,None,Spielt bei How I met your mother mit,"['lshift', 's', 'p', 'i', 'e', 'l', 't', 'space', 'i', 'backspace', 'a', 'i', 'backspace', 'backspace', 'backspace', 'n', 'backspace', 'space', 'b', 'e', 'i', 'o', 'space', 'backspace', 'backspace', 'space', 'lshift', 'h', 'o', 'w', 'space', 'lshift', 'i', 'space', 'm', 'e', 't', 'space', 'y', 'o', 'u', 'r', 'space', 'm', 'o', 't', 'h', 'e', 'r', 'space', 'm', 'i', 't', 'return']","[0.5831875130115804, 0.9166137650317978, 1.2831173588674574, 1.5496556288035208, 1.6497839079165715, 1.7828365177501837, 1.8829356060668943, 2.0494492081761564, 2.466089116613148, 2.815893971330297, 2.9659061127767927, 3.1324306213373347, 4.01534088594417, 4.148650759714656, 4.315205100627281, 5.281512506651779, 5.781367996174595, 5.981250848057243, 6.547728394720252, 6.730876901130614, 6.847862062903005, 7.014124816634649, 7.4471128538625635, 7.896968359422317, 8.213709986555841, 8.380183812196265, 8.546954036686657, 8.880720313361962, 9.013395046738879, 9.196638503430222, 9.563062223549423, 9.646389435369201, 9.846349594745334, 10.296152492717738, 10.496165580458182, 10.679134451202117, 10.929240548517555, 11.677928646788132, 11.945267578552375, 12.195377845982875, 12.39522733695594, 12.528589818313776, 12.811622491797607, 13.011854991673317, 13.228283571579595, 13.394977130134066, 13.511317207396132, 13.644810886948108, 13.76157086258172, 14.044605139954001, 14.144336937488333, 14.32785401779256, 14.82710580316234]",2017_Feb_07_1229,60.0349145331,famFaceGrey,001,12,
207,./greyInner/WillSmith14_1_cut.png,0,117,117,206,,,1.ja,13.041,None,act,2.673,None,None,None,None,None,Will Smith,"['lshift', 'w', 'i', 'l', 'l', 'space', 'lshift', 's', 'm', 'i', 't', 'h', 'return']","[0.3173729181908129, 0.48419767493578547, 0.7174632492678938, 0.9339771561171801, 1.0671423590192717, 1.3004143489106355, 1.5670106796605978, 1.7170199341053376, 1.883481570181175, 2.466521525324424, 2.649895538650526, 2.7505954441185168, 3.382970089698574]",2017_Feb_07_1229,60.0349145331,famFaceGrey,001,12,
91,./greyInner/JanHofer1_3_cut.png,0,118,118,90,,,2.nein,2.011,None,None,None,None,None,polit,1.516,None,,['return'],[0.7669637819217314],2017_Feb_07_1229,60.0349145331,famFaceGrey,001,12,
139,./greyInner/LisaEdelstein(DrLisaCuddy)6_3_cut.png,0,119,119,138,,,1.ja,4.707,None,act,0.742,None,None,None,None,None,,['return'],[1.6994303945466527],2017_Feb_07_1229,60.0349145331,famFaceGrey,001,12,
18,./greyInner/BastianSchweinsteiger14_1_cut.png,0,120,120,17,,,1.ja,14.54,None,None,None,None,None,sport,3.944,None,Schweinsteiger,"['lshift', 's', 'c', 'h', 'w', 'e', 'i', 'n', 'i', 'backspace', 's', 't', 'e', 'i', 'g', 'e', 'r', 'return']","[2.5494939567033725, 2.632889494232586, 2.8993376255566545, 3.049302291863569, 3.199387249909705, 3.415736276878306, 3.5325177446356975, 3.6825064692911837, 3.8155767219122936, 8.397111586789833, 14.628179190427545, 14.794556461896718, 14.878049195152926, 15.161260221189877, 15.444346785372545, 15.510913668702415, 15.660990286522065, 15.794207134680619]",2017_Feb_07_1229,60.0349145331,famFaceGrey,001,12,
94,./greyInner/JanHofer7_1_cut.png,0,121,121,93,,,2.nein,1.275,None,None,None,None,None,polit,2.142,None,,['return'],[1.1833419355280057],2017_Feb_07_1229,60.0349145331,famFaceGrey,001,12,
133,./greyInner/LeonardoDiCaprio3_1_cut.png,0,122,122,132,,,1.ja,1.264,None,act,0.682,None,None,None,None,None,Leonardo di Caprio,"['lshift', 's', 'backspace', 'l', 'e', 'backspace', 'backspace', 'lshift', 'l', 'r', 'o', 'backspace', 'backspace', 'e', 'o', 'n', 'a', 'r', 'd', 'o', 'space', 'd', 'i', 'space', 'lshift', 'c', 'a', 'p', 'r', 'o', 'backspace', 'i', 'o', 'return']","[0.7168287504318869, 0.8667886050679954, 1.2174185007424967, 1.4332911724159203, 1.783031229981134, 2.16631119120575, 2.316179944897158, 2.5659379981079837, 2.6827197866441566, 2.9657944820410194, 3.099227534556121, 3.432265324447144, 3.582448119776018, 3.7322013933953713, 3.882301748786631, 4.132088672015016, 4.21537706970048, 4.415393685998424, 4.681677899778151, 4.8152488868199725, 5.114931541169426, 5.4313786941202125, 5.614907001652682, 5.9646627773418, 6.431245571258842, 6.681006832250205, 6.914175852411063, 7.06416104850905, 7.280881215594491, 7.4141179519865545, 7.697383189502943, 7.947210209978948, 8.030544158136763, 8.446265358448727]",2017_Feb_07_1229,60.0349145331,famFaceGrey,001,12,
74,./greyInner/GuentherJauch7_1_cut.png,0,123,123,73,,,1.ja,1.064,None,None,None,host,1.164,None,None,None,Günther Jauch,"['lshift', 'lshift', 'g', u'\xfc', 'n', 'z', 'j', 'backspace', 'backspace', 't', 'h', 't', 'backspace', 'e', 'r', 'space', 'lshift', 'j', 'a', 'u', 'c', 'h', 'return']","[0.5004508534457273, 1.1834670389398525, 1.3501827311738452, 1.8832236646885576, 2.366233498780275, 2.632894626680354, 2.866097649306539, 3.1488040915864985, 3.3153966050776944, 3.798252144961225, 3.9486071980645647, 4.198407593969023, 4.4982326737390395, 5.131687057988529, 5.215053725498365, 5.381015910266797, 5.64798723046988, 5.764167560300848, 5.931037225962427, 6.014011582008607, 6.16427810039022, 6.2146485829143785, 6.880261921633064]",2017_Feb_07_1229,60.0349145331,famFaceGrey,001,12,
85,./greyInner/HughLaurie(DrHouse)9_2_cut.png,0,124,124,84,,,2.nein,5.6,None,dummy,2.568,None,None,None,None,None,,['return'],[0.7746332625592913],2017_Feb_07_1229,60.0349145331,famFaceGrey,001,12,
101,./greyInner/JimParsons(SheldonCooper)1_1_cut.png,0,125,125,100,,,1.ja,1.811,None,act,1.497,None,None,None,None,None,Sheldon,"['lshift', 's', 'h', 'e', 'l', 'd', 'o', 'n', 'return']","[0.4835804981103138, 0.6835089004653128, 1.100079520860163, 1.4168208272149059, 1.5337168127116456, 1.8829561358561477, 1.9496025721255137, 2.149594488520961, 2.9658849414299766]",2017_Feb_07_1229,60.0349145331,famFaceGrey,001,12,
2,./greyInner/AlysonHannigan(Lily)12_2_cut.png,0,126,126,1,,,1.ja,12.625,None,act,1.271,None,None,None,None,None,Spielt bei How I met your mother,"['lshift', 's', 'p', 'i', 'e', 'l', 't', 'space', 'n', 'backspace', 'b', 'e', 'i', 'space', 'lshift', 'h', 'o', 'w', 'space', 'lshift', 'i', 'space', 'm', 'e', 't', 'space', 'y', 'o', 'u', 'space', 'r', 'backspace', 'backspace', 'r', 'space', 'm', 'o', 't', 'h', 'e', 'r', 'return']","[1.4828587476622488, 2.082542909667609, 2.499489161071324, 2.6990605375394807, 2.849271561331989, 2.9825512819716096, 3.0993693184191216, 3.3154886683569202, 3.764924275546946, 4.581692687641407, 4.881312790283118, 5.0146088706005685, 5.13171977734055, 5.315029635072278, 5.614898019868633, 5.7647715852290276, 6.081001250711779, 6.231114116442768, 6.347908736099271, 6.647650092816548, 6.7640658736818295, 6.913995895965854, 7.1810140497545945, 7.297612353288059, 7.496975224070411, 7.680535930179758, 8.080435077583388, 8.213865563873696, 8.413772153327955, 8.596500440587988, 8.763195603030908, 8.980312251696887, 9.0963841585708, 9.163240383637458, 9.380238023673883, 9.64623257493804, 10.329827764680886, 10.495885862063005, 10.662355196811404, 10.745891876649694, 10.962246036066063, 11.395462467211473]",2017_Feb_07_1229,60.0349145331,famFaceGrey,001,12,
110,./greyInner/JoachimLoew8_1_cut.png,0,127,127,109,,,1.ja,4.627,None,None,None,None,None,sport,2.555,None,Joachim Löw,"['lshift', 'j', 'o', 'a', 'c', 'h', 'i', 'm', 'space', 'lshift', 'l', u'\xf6', 'w', 'return']","[0.3335115789614065, 0.8500080675657955, 1.050274890685614, 1.1331334458827769, 1.4661949733435904, 1.5997630733854749, 1.7660826048195304, 1.9495669657699182, 2.115712314762277, 3.4823612210220745, 4.332231995613256, 4.598442430456998, 4.731972678697275, 5.397862848809382]",2017_Feb_07_1229,60.0349145331,famFaceGrey,001,12,
188,./greyInner/TaylorSwift3_1_cut.png,0,128,128,187,,,2.nein,3.895,None,None,None,music,18.704,None,None,None,,['return'],[3.5655700657680427],2017_Feb_07_1229,60.0349145331,famFaceGrey,001,12,
68,./greyInner/EmmaWatson(HermioneGranger)3_1_cut.png,0,129,129,67,,,2.nein,11.242,None,act,5.945,None,None,None,None,None,,['return'],[0.8332201521716343],2017_Feb_07_1229,60.0349145331,famFaceGrey,001,12,
61,./greyInner/EmilyDeschanel15_1_cut.png,0,130,130,60,,,1.ja,28.302,None,act,4.608,None,None,None,None,None,,['return'],[2.0000346440228896],2017_Feb_07_1229,60.0349145331,famFaceGrey,001,12,
53,./greyInner/DannFlorek(DonaldDonCragen)2_1_cut.png,0,131,131,52,,,2.nein,11.391,None,None,None,None,None,polit,2.562,None,,['return'],[0.8503205053148122],2017_Feb_07_1229,60.0349145331,famFaceGrey,001,12,
220,./greyInner/notfamousface5_1_cut.png,0,132,132,219,,,2.nein,4.752,None,None,None,None,None,polit,9.59,None,,['return'],[0.8002444969733915],2017_Feb_07_1229,60.0349145331,famFaceGrey,001,12,
199,./greyInner/UrsulavonderLeyen7_1_cut.png,0,133,133,198,,,1.ja,18.856,None,act,7.061,None,None,None,None,None,,['return'],[0.9833169790035754],2017_Feb_07_1229,60.0349145331,famFaceGrey,001,12,
147,./greyInner/MilaKunis10_1_cut.png,0,134,134,146,,,2.nein,11.027,None,None,None,music,0.763,None,None,None,,['return'],[0.8500776763867179],2017_Feb_07_1229,60.0349145331,famFaceGrey,001,12,
63,./greyInner/EmilyDeschanel5_1_cut.png,0,135,135,62,,,2.nein,9.626,None,None,None,music,3.243,None,None,None,,['return'],[0.7336618955214362],2017_Feb_07_1229,60.0349145331,famFaceGrey,001,12,
17,./greyInner/BastianSchweinsteiger12_1_cut.png,0,136,136,16,,,1.ja,4.445,None,None,None,None,None,sport,2.397,None,Schweinsteiger,"['lshift', 's', 'c', 'h', 'w', 'e', 'i', 'n', 's', 't', 'e', 'i', 'g', 'e', 'r', 'return']","[0.4668047722789197, 1.1665443967958709, 1.3831221384607488, 1.549700858498909, 2.3494289029313222, 2.5158943883434404, 2.8658994085180893, 3.0157364051901823, 3.4490076893689547, 3.598932258428249, 3.665323996983716, 3.8154856209675927, 4.065314566112647, 4.098478838759547, 4.1652548693309654, 6.1977827184728085]",2017_Feb_07_1229,60.0349145331,famFaceGrey,001,12,
161,./greyInner/OmarEpps(DrEricForeman)1_5_cut.png,0,137,137,160,,,2.nein,2.364,None,None,None,music,0.718,None,None,None,,['return'],[0.7167437442676601],2017_Feb_07_1229,60.0349145331,famFaceGrey,001,12,
175,./greyInner/SahraWagenknecht9_1_cut.png,0,138,138,174,,,2.nein,15.718,None,None,None,music,1.658,None,None,None,,['return'],[1.0165479734696419],2017_Feb_07_1229,60.0349145331,famFaceGrey,001,12,
120,./greyInner/JudithRakers8_1_cut.png,0,139,139,119,,,1.ja,4.906,None,act,6.172,None,None,None,None,None,,"['delete', 'return']","[0.6835489977129328, 1.2000124461847008]",2017_Feb_07_1229,60.0349145331,famFaceGrey,001,12,
60,./greyInner/ElvisPresley6_1_cut.png,0,140,140,59,,,1.ja,5.144,None,None,None,music,3.978,None,None,None,Elvis Presley,"['lshift', 'e', 'l', 'v', 'i', 's', 'space', 'lshift', 'p', 'r', 'e', 's', 'l', 'e', 'backspace', 'x', 'backspace', 'd', 'x', 'backspace', 'backspace', 'e', 'y', 'return']","[0.9668851271617314, 1.1833939015614305, 1.5332257016307267, 1.7832714926862536, 1.8662464902881766, 1.999775455416966, 2.3663069569374784, 2.4663075664157077, 2.7160021055879042, 2.982756259099915, 3.182706795136255, 3.3492730048346857, 3.4655784380756813, 3.565768948115874, 3.9156212779744237, 3.94865563554049, 4.332045623610611, 4.398782519268934, 4.682018565988983, 5.098535937238921, 5.265085466480741, 5.34842743408808, 5.881287448824878, 7.897480641851871]",2017_Feb_07_1229,60.0349145331,famFaceGrey,001,12,
123,./greyInner/KaleyCuoco(Penny)3_1_cut.png,0,141,141,122,,,1.ja,1.696,None,act,1.162,None,None,None,None,None,Spielt bei The big bang Theory,"['lshift', 's', 'p', 'i', 'e', 'l', 'z', 'backspace', 't', 'space', 'b', 'e', 'i', 'space', 'lshift', 'b', 'i', 'backspace', 'backspace', 'backspace', 'space', 'lshift', 't', 'h', 'e', 'space', 'b', 'i', 'f', 'backspace', 'g', 'space', 'b', 's', 'n', 'g', 'backspace', 'backspace', 'backspace', 'a', 'n', 'g', 'space', 'lshift', 't', 'h', 'e', 'o', 'r', 'y', 'return']","[1.9164893031775136, 2.0497250772350526, 2.332995767976172, 2.549537582508492, 2.6496094046979124, 2.7827159052303614, 2.916166921311742, 3.3326435537583166, 3.7323447811522783, 4.032281491656249, 4.1824075092845305, 4.298844140717847, 4.431943584137116, 4.565332369289536, 6.714482901090378, 6.881090170369134, 7.247656957466461, 7.680673223154372, 7.847544492708039, 7.980717073503911, 8.313855266902465, 8.430392622620275, 8.530566131428714, 8.730520837578297, 8.7804406270443, 8.913627001295026, 9.13019672351038, 9.346468763764278, 9.579815174145551, 9.829898817002686, 9.913321299882227, 10.013201617619416, 10.196505701347633, 10.29653325617619, 10.396419989472633, 10.596204041739838, 10.879459976693397, 11.029479175254892, 11.179162519274541, 11.26262830718224, 12.128929329724997, 12.245724270158462, 12.34551188306068, 12.56176788441553, 12.66215246513093, 12.828736959172602, 12.895282350378693, 13.228627124794002, 13.36186642740904, 13.678304277798816, 13.861609965417301]",2017_Feb_07_1229,60.0349145331,famFaceGrey,001,12,
22,./greyInner/BenedictCumberbatch2_2_cut.png,0,142,142,21,,,2.nein,3.469,None,None,None,None,None,sport,5.008,None,,['return'],[0.6668018211203162],2017_Feb_07_1229,60.0349145331,famFaceGrey,001,12,
143,./greyInner/MariskaHargitay(Liv)4_4_cut.png,0,143,143,142,,,2.nein,2.428,None,act,2.745,None,None,None,None,None,,['return'],[0.6669006207375787],2017_Feb_07_1229,60.0349145331,famFaceGrey,001,12,
80,./greyInner/GeorgeClooney4_2_cut.png,0,144,144,79,,,1.ja,5.365,None,act,36.685,None,None,None,None,None,,['return'],[0.816833209246397],2017_Feb_07_1229,60.0349145331,famFaceGrey,001,12,
51,./greyInner/DannFlorek(DonaldDonCragen)1_1_cut.png,0,145,145,50,,,2.nein,1.795,None,act,3.011,None,None,None,None,None,,['return'],[0.8667853972874582],2017_Feb_07_1229,60.0349145331,famFaceGrey,001,12,
13,./greyInner/BarackObama2_1_cut.png,0,146,146,12,,,1.ja,0.928,None,None,None,None,None,polit,1.713,None,Barack Obama,"['lshift', 'b', 'r', 'a', 'c', 'backspace', 'backspace', 'backspace', 'a', 'r', 'a', 'c', 'k', 'space', 'lshift', 'o', 'b', 'a', 'm', 'a', 'return']","[1.0502280571017764, 1.1668366255307774, 1.4000887271886313, 1.549985709341854, 1.7999169826598518, 2.133261757075161, 2.2997468099438265, 2.4497012113533856, 2.5827846158736065, 3.1161607623744203, 3.26601347716678, 3.499211688123978, 3.632710179343121, 4.582230632307983, 4.748759310981768, 4.898667841142014, 5.182096354647001, 5.331960617446384, 5.448437346127321, 5.5483952921349555, 6.1811263220461115]",2017_Feb_07_1229,60.0349145331,famFaceGrey,001,12,
3,./greyInner/AlysonHannigan(Lily)14_2_cut.png,0,147,147,2,,,1.ja,6.278,None,act,1.696,None,None,None,None,None,,['return'],[2.7494865146545635],2017_Feb_07_1229,60.0349145331,famFaceGrey,001,12,
213,./greyInner/notfamousface12_2_cut.png,0,148,148,212,,,2.nein,10.698,None,None,None,music,0.65,None,None,None,,['return'],[1.8663574794682063],2017_Feb_07_1229,60.0349145331,famFaceGrey,001,12,
160,./greyInner/NicoleKidman8_2_cut.png,0,149,149,159,,,1.ja,14.07,None,dummy,4.709,None,None,None,None,None,,['return'],[0.8332804584297264],2017_Feb_07_1229,60.0349145331,famFaceGrey,001,12,
157,./greyInner/NicoleKidman3_1_cut.png,0,150,150,156,,,1.ja,23.973,None,None,None,host,2.234,None,None,None,,['return'],[0.5169067636361433],2017_Feb_07_1229,60.0349145331,famFaceGrey,001,12,
106,./greyInner/JoachimLoew1_1_cut.png,0,151,151,105,,,1.ja,1.453,None,None,None,None,None,sport,6.286,None,Joachim Löw,"['lshift', 'j', 'o', 'a', 'c', 'h', 'i', 'm', 'space', 'lshift', 'l', u'\xf6', 'w', 'return']","[0.45012239283641975, 0.7335178662106046, 1.0162830108602066, 1.1333435554570315, 1.3999171109699091, 1.549854190370752, 1.6996065016555804, 1.8330430827263626, 1.9994283736450598, 2.0993994715499866, 2.1995688102433633, 2.4660778893830866, 3.1061287519387406, 3.3156846637011768]",2017_Feb_07_1229,60.0349145331,famFaceGrey,001,12,
14,./greyInner/BarackObama4_1_cut.png,0,152,152,13,,,1.ja,1.796,None,None,None,None,None,polit,1.131,None,Barack Obama,"['lshift', 'b', 'a', 'r', 'a', 'c', 'k', 'l', 'backspace', 'space', 'lshift', 'o', 'b', 'a', 'm', 'a', 'return']","[0.3169350562529871, 0.6501736531572533, 0.8501312463085924, 0.966748475742861, 1.066468083712607, 1.2833380541160295, 1.4165885839611292, 1.7993755094339576, 2.11621144529272, 2.2161693913003546, 2.432871915598298, 3.0157825972164574, 3.1658495916963147, 3.282393042196418, 3.3821694278685754, 4.648402958726365]",2017_Feb_07_1229,60.0349145331,famFaceGrey,001,12,
102,./greyInner/JimParsons(SheldonCooper)10_1_cut.png,0,153,153,101,,,1.ja,1.946,None,act,0.745,None,None,None,None,None,Sheldon,"['lshift', 's', 'h', 'e', 'l', 'd', 'o', 'n', 'return']","[0.30028443383162085, 0.8000786547581811, 1.0500336656477884, 1.0999252266519761, 1.249841455484784, 1.9662855931219383, 2.066180345867906, 2.282803317228172, 2.8323906203222577]",2017_Feb_07_1229,60.0349145331,famFaceGrey,001,12,
137,./greyInner/LisaEdelstein(DrLisaCuddy)10_1_cut.png,0,154,154,136,,,1.ja,2.594,None,dummy,1.261,None,None,None,None,None,,['return'],[2.8329436415551754],2017_Feb_07_1229,60.0349145331,famFaceGrey,001,12,
99,./greyInner/JasonSegel(Marshall)7_1_cut.png,0,155,155,98,,,1.ja,9.857,None,act,1.01,None,None,None,None,None,,['return'],[0.5001640779355512],2017_Feb_07_1229,60.0349145331,famFaceGrey,001,12,
21,./greyInner/BenedictCumberbatch16_1_cut.png,0,156,156,20,,,2.nein,1.194,None,None,None,None,None,sport,8.542,None,,['return'],[0.6505095076990983],2017_Feb_07_1229,60.0349145331,famFaceGrey,001,12,
122,./greyInner/KaleyCuoco(Penny)14_2_cut.png,0,157,157,121,,,1.ja,3.676,None,act,0.761,None,None,None,None,None,Spielt bei the Big bang Theory,"['lshift', 's', 'p', 'i', 'e', 'l', 't', 'space', 'b', 'i', 'space', 'backspace', 'backspace', 'e', 'backspace', 'e', 'i', 'space', 't', 'h', 'e', 'space', 's', 'backspace', 'lshift', 'b', 'i', 'g', 'space', 'b', 's', 'backspace', 'a', 'n', 'g', 'space', 'lshift', 't', 'h', 'e', 'o', 'r', 'y', 'return']","[1.2165241717430035, 1.3832119562939624, 1.799817862265627, 1.9996121794265491, 2.116349059046115, 2.2493163419385382, 2.382824777276255, 2.4993762472258823, 2.8327614396639547, 3.049053688930144, 3.2158874274609843, 3.6989511522515386, 3.8653431795064535, 3.948771757168288, 4.082185563001985, 4.8484673709463095, 5.048406038196845, 5.182388904162508, 5.448123625266817, 5.614713251756257, 5.714766468821836, 5.847852439565031, 5.898090761562344, 6.381159298021885, 7.0142149552466435, 7.096786414154849, 7.43077563152292, 7.714017773025262, 7.813988550151407, 8.063698165888127, 8.230482183831555, 8.713569325413118, 8.913563166475797, 9.029987929125127, 9.546452660708383, 9.713280946012674, 9.846222566666256, 9.929835591663505, 10.112564841258063, 10.17960262665838, 10.496221075049107, 10.62947962434373, 10.962620063186478, 11.162613583472194]",2017_Feb_07_1229,60.0349145331,famFaceGrey,001,12,
24,./greyInner/BenedictCumberbatch4_1_cut.png,0,158,158,23,,,2.nein,1.765,None,None,None,None,None,sport,3.185,None,,['return'],[0.5500925284068217],2017_Feb_07_1229,60.0349145331,famFaceGrey,001,12,
69,./greyInner/EmmaWatson(HermioneGranger)4_1_cut.png,0,159,159,68,,,1.ja,2.059,None,act,0.942,None,None,None,None,None,Hermine Granger,"['lshift', 'h', 'e', 'r', 'm', 'i', 'n', 'e', 'space', 'lshift', 'g', 'r', 'a', 'n', 'g', 'e', 'r', 'return']","[2.7825625733585184, 3.032753356059402, 3.249062285780383, 3.3989919872874452, 3.7156113980126975, 4.048626412666636, 4.148401836006087, 4.84840193223863, 5.048245328431221, 5.181678380944504, 5.314623209376805, 5.49811815600151, 5.631491223033663, 5.797952217553757, 6.014499164533845, 6.064647989476725, 6.16437112600579, 6.930633045712966]",2017_Feb_07_1229,60.0349145331,famFaceGrey,001,12,
77,./greyInner/GeorgeClooney15_1_cut.png,0,160,160,76,,,1.ja,8.106,None,None,None,None,None,polit,12.519,None,,['return'],[5.614863696626344],2017_Feb_07_1229,60.0349145331,famFaceGrey,001,12,
215,./greyInner/notfamousface13_1_cut.png,0,161,161,214,,,2.nein,5.229,None,act,1.645,None,None,None,None,None,,['return'],[0.750526476853338],2017_Feb_07_1229,60.0349145331,famFaceGrey,001,12,
87,./greyInner/Ice-T(OdafinFinTutuola)12_1_cut.png,0,162,162,86,,,1.ja,7.76,None,act,0.663,None,None,None,None,None,Morgan Freeman,"['lshift', 'm', 'o', 'r', 'g', 'a', 'n', 'space', 'lshift', 'f', 'r', 'r', 'e', 'backspace', 'backspace', 'e', 'e', 'm', 's', 'n', 'backspace', 'backspace', 'a', 'n', 'return']","[1.2500012029177014, 1.4498721860163641, 1.6164521891660115, 1.7993793587720575, 1.933025728640132, 2.1659673172162, 2.232773821693627, 2.3660233892060205, 2.76598605064828, 3.132516910613049, 3.2991200097767432, 3.398996798956432, 3.5489152732334333, 3.8820518627417187, 4.015420438881847, 4.131982494503973, 4.298602274124278, 5.098479801092253, 5.198249129649412, 5.315013916952012, 5.731337859082487, 5.848025659672203, 6.48117017239565, 6.5640810144032, 6.814377012280602]",2017_Feb_07_1229,60.0349145331,famFaceGrey,001,12,
55,./greyInner/DannFlorek(DonaldDonCragen)8_1_cut.png,0,163,163,54,,,2.nein,1.149,None,None,None,None,None,polit,8.364,None,,['return'],[0.8167251070681232],2017_Feb_07_1229,60.0349145331,famFaceGrey,001,12,
148,./greyInner/MilaKunis4_1_cut.png,0,164,164,147,,,1.ja,4.395,None,None,None,music,0.747,None,None,None,,['return'],[0.8833830913426937],2017_Feb_07_1229,60.0349145331,famFaceGrey,001,12,
56,./greyInner/ElvisPresley1_1_cut.png,0,165,165,55,,,1.ja,1.325,None,None,None,music,1.074,None,None,None,Elvis Presley,"['lshift', 'e', 'l', 'v', 'i', 's', 'space', 'lshift', 'p', 'r', 'e', 's', 'l', 'e', 'y', 'return']","[0.4499982517590979, 0.6832442586346588, 0.8500022935622837, 1.249781149224873, 1.3164619087365281, 1.466387119351566, 1.566454450648962, 1.8828666388017155, 2.232709986876216, 2.4826941885603446, 2.6324266116116632, 2.8159815437174984, 3.199121645744526, 3.332302245989922, 3.5822986372386367, 4.39856503179908]",2017_Feb_07_1229,60.0349145331,famFaceGrey,001,12,
8,./greyInner/AngelaMerkel4_1_cut.png,0,166,166,7,,,1.ja,1.544,None,None,None,None,None,polit,2.358,None,Angela Merkel,"['lshift', 'a', 'n', 'g', 'e', 'l', 'a', 'space', 'lshift', 'm', 'e', 'r', 'k', 'e', 'r', 'l', 'backspace', 'backspace', 'l', 'return']","[0.2836007712776336, 0.5167447707572137, 0.7501184472675959, 0.9332820302424807, 1.0165970524994918, 1.1831975854402117, 1.3496746188593534, 1.4496941542383865, 1.599558737814732, 1.666390583754037, 1.849524334376838, 2.0662291041207936, 3.249110723254489, 3.3489958526606642, 3.3777439749064797, 3.465521981150232, 4.015286995243514, 4.16524813299111, 4.631885459166369, 5.398159889215094]",2017_Feb_07_1229,60.0349145331,famFaceGrey,001,12,
141,./greyInner/MariskaHargitay(Liv)13_1_cut.png,0,167,167,140,,,1.ja,10.708,None,dummy,3.478,None,None,None,None,None,,['return'],[2.100188585371143],2017_Feb_07_1229,60.0349145331,famFaceGrey,001,12,
89,./greyInner/Ice-T(OdafinFinTutuola)6_1_cut.png,0,168,168,88,,,1.ja,23.097,None,act,0.851,None,None,None,None,None,Morgan Freeman,"['lshift', 'm', 'o', 'r', 'g', 'a', 'space', 'backspace', 'n', 'space', 'lshift', 'f', 'r', 'e', 'e', 'm', 'a', 'n', 'n', 'backspace', 'return']","[0.5836266580627125, 0.6504151989738602, 0.8168402663613961, 0.9669441503101552, 1.1498783770312002, 1.250154214012582, 1.4832417565685319, 1.7997700663472642, 2.083014132516837, 2.4163040538969653, 2.5328083694821544, 2.732501641581621, 2.9327604452537344, 3.115923707449838, 3.249070626008688, 3.3825797029021487, 3.482200511256451, 3.582421174427509, 3.6990733686598105, 4.282124551031302, 4.4986637993406475]",2017_Feb_07_1229,60.0349145331,famFaceGrey,001,12,
81,./greyInner/HughLaurie(DrHouse)2_1_cut.png,0,169,169,80,,,1.ja,2.268,None,act,2.402,None,None,None,None,None,,['return'],[1.066389813888236],2017_Feb_07_1229,60.0349145331,famFaceGrey,001,12,
4,./greyInner/AlysonHannigan(Lily)5_4_cut.png,0,170,170,3,,,1.ja,17.991,None,act,1.085,None,None,None,None,None,Spielt bei How I met your mother,"['lshift', 's', 'p', 'i', 'e', 'l', 't', 'space', 'b', 'e', 'i', 'space', 'lshift', 'lshift', 'j', 'o', 'w', 'backspace', 'backspace', 'backspace', 'lshift', 'h', 'o', 'w', 'space', 'lshift', 'i', 'space', 'm', 'e', 't', 'space', 'y', 'o', 'u', 'r', 'space', 'm', 'o', 'g', 'h', 'backspace', 'backspace', 't', 'h', 'e', 'r', 'return']","[0.9997372828365769, 1.116592529529953, 1.3830448309672647, 1.6497560002317186, 1.749484910764295, 1.8828980750440678, 2.0330346783448476, 2.149599300189948, 2.366038786547506, 2.466144290425291, 2.582692873371343, 2.71595559277921, 3.2325008396364865, 3.4823503145707946, 3.582104245784649, 3.7653117753416154, 3.882218667289635, 4.148720368535578, 4.298653919377102, 4.432037892860535, 4.598531606734468, 4.9150647281840065, 5.165027437744357, 5.298778702010168, 5.4647797009129135, 5.898078251220795, 6.147946652055907, 6.381142617567093, 6.830956742769558, 6.931118062013411, 7.1309697984324885, 7.26404774972616, 7.980583629865578, 8.147254092406001, 8.347128924839126, 8.580216788172038, 8.746757014852847, 9.013394725960097, 9.296721873624847, 9.563240896883144, 9.879749318426548, 10.446083477336288, 10.56277608959499, 11.413265003347988, 11.54579506585651, 11.662238754406644, 11.812280407426442, 12.495419450886402]",2017_Feb_07_1229,60.0349145331,famFaceGrey,001,12,
196,./greyInner/UrsulavonderLeyen1_1_cut.png,0,171,171,195,,,1.ja,6.644,None,None,None,host,1.782,None,None,None,,['return'],[0.9666349203398568],2017_Feb_07_1229,60.0349145331,famFaceGrey,001,12,
152,./greyInner/NeilPatrickHarris(Barney)11_2_cut.png,0,172,172,151,,,2.nein,2.845,None,None,None,None,None,sport,7.311,None,,['return'],[0.633660323708682],2017_Feb_07_1229,60.0349145331,famFaceGrey,001,12,
88,./greyInner/Ice-T(OdafinFinTutuola)5_1_cut.png,0,173,173,87,,,1.ja,2.862,None,act,0.93,None,None,None,None,None,Morgan Freeman,"['lshift', 'm', 'o', 'r', 'g', 'a', 'n', 'space', 'lshift', 'f', 'r', 'e', 'e', 'm', 'n', 'backspace', 'a', 'b', 'backspace', 'n', 'return']","[0.5669048229283362, 1.1168055261059635, 1.283428834281949, 1.4166418331042223, 1.5501066426386387, 1.7163302614553686, 1.7664085152428015, 1.916510795301292, 2.0496891501006758, 2.61611505151086, 2.782922807025898, 2.8827482717279054, 3.0327036354719894, 3.315854355250849, 3.699128863248916, 4.0821525228693645, 4.148892626308225, 4.365474217309384, 5.09852278533981, 5.398300069191464, 6.014846246303932]",2017_Feb_07_1229,60.0349145331,famFaceGrey,001,12,
58,./greyInner/ElvisPresley4_10_cut.png,0,174,174,57,,,1.ja,1.265,None,None,None,music,1.148,None,None,None,Elvis Presley,"['lshift', 'e', 'l', 'v', 'i', 's', 'space', 'lshift', 'p', 'r', 'e', 's', 'l', 'e', 'y', 'return']","[0.1168809089322167, 0.3671278277779493, 0.5836308281759557, 0.8668517983296624, 1.0169357940430928, 1.1335357014668261, 1.2502401825113338, 1.4501079578294593, 1.7998435245044675, 2.000000962334525, 2.18293711372462, 2.4497583098345785, 2.616185943445089, 2.816048265538484, 3.0493170476493106, 3.932501256647811]",2017_Feb_07_1229,60.0349145331,famFaceGrey,001,12,
7,./greyInner/AngelaMerkel3_1_cut.png,0,175,175,6,,,1.ja,1.053,None,None,None,None,None,polit,1.886,None,Angela Merkel,"['lshift', 'a', 'n', 'g', 'e', 'l', 'a', 'space', 'lshift', 'comma', 'e', 'r', 'backspace', 'backspace', 'lshift', 'm', 'e', 'r', 'k', 'l', 'backspace', 'e', 'l', 'return']","[0.38376048663303663, 0.567061041803754, 0.8336387674298749, 1.066933211779542, 1.1668500982050318, 1.3168859772231372, 1.450163773195527, 1.599680954224823, 1.7332140894668555, 1.8333272920135641, 2.0163391470068746, 2.199679799423393, 2.5663168368973857, 2.7329093503885815, 2.9828319627013116, 3.199119400298514, 3.3992165318704792, 3.549327152155456, 3.665649907406987, 3.932466291847959, 4.265693982300945, 4.398871695544585, 4.532271387150104, 4.848744523116693]",2017_Feb_07_1229,60.0349145331,famFaceGrey,001,12,
222,./greyInner/notfamousface7_cut.png,0,176,176,221,,,2.nein,2.803,None,None,None,music,3.576,None,None,None,,['return'],[0.983350660690121],2017_Feb_07_1229,60.0349145331,famFaceGrey,001,12,
119,./greyInner/JudithRakers7_1_cut.png,0,177,177,118,,,2.nein,13.889,None,dummy,4.543,None,None,None,None,None,,['return'],[1.016865864445208],2017_Feb_07_1229,60.0349145331,famFaceGrey,001,12,
115,./greyInner/JoshRadnor(Ted)9_1_cut.png,0,178,178,114,,,1.ja,4.346,None,None,None,music,2.196,None,None,None,,['return'],[12.095595365528425],2017_Feb_07_1229,60.0349145331,famFaceGrey,001,12,
155,./greyInner/NeilPatrickHarris(Barney)3_7_cut.png,0,179,179,154,,,1.ja,14.333,None,act,1.452,None,None,None,None,None,,['return'],[0.6503484771546937],2017_Feb_07_1229,60.0349145331,famFaceGrey,001,12,
135,./greyInner/LeonardoDiCaprio7_1_cut.png,0,180,180,134,,,1.ja,5.019,None,act,1.404,None,None,None,None,None,Leonardo di Caprio,"['lshift', 'l', 'e', 'o', 'n', 'a', 'r', 'f', 'backspace', 'd', 'o', 'space', 'f', 'i', 'r', 'backspace', 'backspace', 'backspace', 'd', 'i', 'space', 'lshift', 'c', 'a', 'p', 'r', 'i', 'o', 'return']","[0.5334322826474818, 0.7166869665670674, 0.9168209876061155, 1.065988841417493, 1.3330445262290596, 1.816329908600892, 2.032331212243662, 2.3494523197223316, 2.9158737302404916, 3.1490645633039094, 3.265819085712792, 3.465311230020234, 3.649018531665206, 3.7988789451283083, 3.898776584876032, 4.198728692725126, 4.348647808557871, 4.481907320185201, 4.948344480902961, 5.08172781283065, 5.5481065919557295, 5.7313936744503735, 5.848018602557204, 5.980659333468793, 6.280899820718332, 6.697693381805948, 6.848752863344998, 6.997591278175605, 7.580707257699032]",2017_Feb_07_1229,60.0349145331,famFaceGrey,001,12,
29,./greyInner/Beyonce5_3_cut.png,0,181,181,28,,,1.ja,1.875,None,None,None,music,0.993,None,None,None,Beyonce,"['lshift', 'b', 'e', 'y', 'o', 'n', 'c', 'e', 'space', 'lshift', 'k', 'n', 'o', 'w', 'l', 'w', 'a', 'backspace', 'backspace', 'w', 's', 'backspace', 'backspace', 'e', 's', 'backspace', 'backspace', 'backspace', 'backspace', 'backspace', 'backspace', 'backspace', 'lshift', 'k', 'period', 'backspace', 'backspace', 'return']","[0.3334233650184615, 0.6168121020546096, 0.8166012867695827, 1.1665893057124777, 1.3828818757556292, 1.6164092049166356, 1.949392462551259, 2.0661226058346074, 2.515871933885137, 2.8158160222828883, 2.998759872343726, 3.29894839355984, 3.4987462392800808, 3.5988895949576545, 3.848687424637319, 3.9820252060926578, 4.14870625430558, 4.73171156542594, 4.898324287929427, 5.33145378824338, 5.498059132854905, 5.931250222540257, 6.114620386531897, 6.7808935655466485, 6.947438924675225, 8.04702380589697, 8.56352029449954, 9.512787012085028, 9.695701029793781, 9.845827688977806, 10.128844002783808, 10.26287755166959, 11.429070055022748, 11.57890673091606, 11.812084732860967, 12.711834237339644, 12.895260216699171, 13.446302568694591]",2017_Feb_07_1229,60.0349145331,famFaceGrey,001,12,
114,./greyInner/JoshRadnor(Ted)7_1_cut.png,0,182,182,113,,,1.ja,9.739,None,act,4.908,None,None,None,None,None,,['return'],[0.633666418490975],2017_Feb_07_1229,60.0349145331,famFaceGrey,001,12,
167,./greyInner/RobertSeanLeonard(Wilson)10_1_cut.png,0,183,183,166,,,2.nein,4.502,None,None,None,music,3.803,None,None,None,,['return'],[1.3499902643870882],2017_Feb_07_1229,60.0349145331,famFaceGrey,001,12,
70,./greyInner/EmmaWatson(HermioneGranger)9_1_cut.png,0,184,184,69,,,1.ja,3.661,None,None,None,host,1.829,None,None,None,,['return'],[26.156174927928078],2017_Feb_07_1229,60.0349145331,famFaceGrey,001,12,
108,./greyInner/JoachimLoew15_1_cut.png,0,185,185,107,,,1.ja,2.095,None,None,None,None,None,sport,2.794,None,Jogi Löw,"['lshift', 'j', 'o', 'g', 'i', 'space', 'lshift', 'l', u'\xf6', 'w', 'return']","[0.8501132827423135, 0.9335283877280744, 1.1001744711411447, 1.400040289714525, 1.5666113110819424, 1.816672820257736, 2.1162338997528423, 2.3163999985899864, 2.516340911286534, 2.7660726607027755, 3.249398140322228]",2017_Feb_07_1229,60.0349145331,famFaceGrey,001,12,
127,./greyInner/KatjaBurkard10_1_cut.png,0,186,186,126,,,1.ja,3.428,None,None,None,host,1.429,None,None,None,Katja Burkhardt,"['lshift', 'k', 'a', 't', 'j', 'a', 'space', 'lshift', 'b', 'u', 'r', 'g', 'backspace', 'h', 'backspace', 'k', 'h', 'a', 'r', 'd', 'z', 'backspace', 't', 'return']","[0.7173035018367955, 0.8337840798540128, 1.4003334807839565, 2.2166463881530944, 2.3999876821253565, 2.483229887782727, 2.616559970565504, 3.0327607339531824, 3.1995803582522058, 3.616076558155328, 3.6828718354045122, 3.882640811107194, 5.548650310625817, 6.115141329964899, 7.414171201131467, 8.264183759589287, 8.647235006115807, 8.780754027127841, 8.997198004375605, 9.147120007211925, 10.863118905017473, 11.279610293251608, 11.879450353353604, 12.695885477131014]",2017_Feb_07_1229,60.0349145331,famFaceGrey,001,12,
26,./greyInner/Beyonce1_1_cut.png,0,187,187,25,,,1.ja,2.919,None,None,None,music,2.698,None,None,None,Beyonce,"['lshift', 'b', 'e', 'y', 'o', 'n', 'v', 'c', 'e', 'backspace', 'backspace', 'backspace', 'c', 'e', 'return']","[0.46704311031498946, 0.6502031647305557, 0.8502980508565088, 2.2995504938207887, 2.432941203642258, 2.632715953346633, 3.199440178275836, 3.282815186013977, 3.665800031500112, 3.8156989383205655, 3.965718778439623, 4.1322670245699555, 4.182181040032447, 4.548764507584565]",2017_Feb_07_1229,60.0349145331,famFaceGrey,001,12,
205,./greyInner/Usher7_1_cut.png,0,188,188,204,,,1.ja,2.426,None,None,None,music,1.145,None,None,None,Usher,"['lshift', 'u', 's', 'h', 'e', 'r', 'return']","[0.26675351195808616, 0.5834152653751516, 0.8332945726615435, 0.9998322331175586, 1.1500317089030432, 1.2327613113538973, 1.716226329392157]",2017_Feb_07_1229,60.0349145331,famFaceGrey,001,12,
118,./greyInner/JudithRakers4_3_cut.png,0,189,189,117,,,2.nein,6.128,None,dummy,1.446,None,None,None,None,None,,['return'],[0.7502483623484295],2017_Feb_07_1229,60.0349145331,famFaceGrey,001,12,
149,./greyInner/MilaKunis5_2_cut.png,0,190,190,148,,,1.ja,5.359,None,None,None,music,0.877,None,None,None,,['return'],[1.0333817601149349],2017_Feb_07_1229,60.0349145331,famFaceGrey,001,12,
100,./greyInner/JasonSegel(Marshall)9_1_cut.png,0,191,191,99,,,1.ja,5.86,None,act,0.929,None,None,None,None,None,Spielt auch bei How I met your mother,"['lshift', 's', 'p', 'u', 'e', 'l', 't', 'space', 'a', 'backspace', 'backspace', 'backspace', 'backspace', 'backspace', 'backspace', 'i', 'e', 'l', 'z', 'space', 'a', 'backspace', 'backspace', 'backspace', 't', 'space', 'a', 'u', 'c', 'h', 'space', 'b', 'e', 'i', 'space', 't', 'h', 'e', 'backspace', 'backspace', 'backspace', 'backspace', 'space', 'lshift', 'h', 'o', 'w', 'space', 'lshift', 'i', 'space', 'm', 'e', 't', 'space', 'y', 'o', 'u', 'r', 'space', 'm', 'o', 't', 'h', 'e', 'r', 'pound', 'return']","[1.0168145399675268, 1.1332704180804285, 1.5165648143138242, 1.7497633460479847, 1.866382179372522, 1.9997151491570548, 2.116243843869597, 2.266228077633059, 2.51632006071668, 2.766083246375274, 2.8826600577849604, 3.0660834709196934, 3.149119095560309, 3.3992437979977694, 3.515890218228378, 4.348776440525398, 4.4487558786568115, 4.548718957112214, 4.681898595024904, 4.831783066836579, 4.998587293792298, 5.215157657563395, 5.348350126594596, 5.498309018897999, 5.764928124883227, 6.248135237428869, 6.3480277447288245, 6.497970598133179, 6.581269260712361, 6.697792822977135, 6.847799831975863, 6.947825141358408, 7.064399707322082, 7.164413147918822, 7.314256239373208, 7.530757956657908, 7.714134536208803, 7.880671555109075, 8.813553254436556, 8.98020382874165, 9.130258633658741, 9.296796294116575, 9.63002366379078, 9.79663510318278, 10.12982879117044, 10.529661216756722, 10.646262407291943, 10.979389694237398, 11.345969954010798, 11.44579092782078, 11.612498279828287, 11.812537029807572, 11.912376608741397, 12.062329406262506, 12.195505194838915, 12.54551502668437, 12.76201289463279, 12.995293866308202, 13.178268190276867, 13.24507212853132, 13.478514130751137, 13.678329619258875, 13.928234588784107, 14.094771607684379, 14.19481808841374, 14.328178324327382, 14.994540679619604, 16.14402129195878]",2017_Feb_07_1229,60.0349145331,famFaceGrey,001,12,
124,./greyInner/KaleyCuoco(Penny)5_2_cut.png,0,192,192,123,,,1.ja,1.451,None,act,0.9,None,None,None,None,None,Spielt bei Big bang Theory,"['lshift', 's', 'p', 'i', 'e', 'l', 't', 'space', 'b', 'e', 'i', 'space', 'lshift', 'lshift', 'b', 'i', 'g', 'space', 'b', 'a', 'j', 'backspace', 'n', 'g', 'space', 'lshift', 't', 'h', 'e', 'o', 'r', 'x', 'backspace', 'y', 'return']","[1.516539472851946, 1.716431948074387, 2.5495943602090847, 2.7994194560178585, 2.915963548073705, 3.0159943106809806, 3.1491521356911107, 3.332548924254297, 3.598770907105063, 3.7489158506341482, 3.898507131374572, 4.132224681876323, 4.948506153003109, 5.631565643523572, 5.69828874572886, 5.964819958548105, 6.147951142947932, 6.314381984338979, 6.497914782763473, 6.631076777886847, 7.197513264971349, 7.730749231495793, 7.963843831166741, 8.163895091487575, 8.280440466654909, 8.39704165719013, 8.547105123112487, 8.980091556450134, 9.0965737383558, 10.212703706043612, 10.429539673979889, 10.71278149470345, 11.179183369842576, 11.262658139532505, 11.712363200222171]",2017_Feb_07_1229,60.0349145331,famFaceGrey,001,12,
44,./greyInner/CobieSmulders(Robin)4_7_cut.png,0,193,193,43,,,1.ja,3.359,None,None,None,music,8.728,None,None,None,,['return'],[0.6502599424329674],2017_Feb_07_1229,60.0349145331,famFaceGrey,001,12,
105,./greyInner/JimParsons(SheldonCooper)9_3_cut.png,0,194,194,104,,,1.ja,1.906,None,act,0.807,None,None,None,None,None,Sheldon,"['lshift', 's', 'h', 'e', u'\xf6', 'l', 'backspace', 'backspace', 'l', 's', 'p', 'm', 'n', 'backspace', 'backspace', 'backspace', 'backspace', 'd', 'o', 'n', 'delete', 'return']","[0.3663262036152446, 0.7335268479928345, 1.1500724477064068, 1.2331892291731492, 1.4667300310102291, 2.0496256360620464, 2.4161616284745833, 2.932663891080665, 3.049506948211274, 3.1491858173794753, 3.34922809591626, 3.382469676054825, 3.915268742975968, 4.032585909955742, 4.182172379027179, 4.282273071234158, 5.081823404667375, 5.215174979573931, 6.081294762561811, 6.3812372470711125, 6.880917591817706]",2017_Feb_07_1229,60.0349145331,famFaceGrey,001,12,
198,./greyInner/UrsulavonderLeyen5_1_cut.png,0,195,195,197,,,2.nein,1.708,None,None,None,host,2.443,None,None,None,,['return'],[0.7503163672790834],2017_Feb_07_1229,60.0349145331,famFaceGrey,001,12,
97,./greyInner/JasonSegel(Marshall)14_1_cut.png,0,196,196,96,,,2.nein,23.094,None,None,None,music,9.834,None,None,None,,['return'],[1.7663956841261097],2017_Feb_07_1229,60.0349145331,famFaceGrey,001,12,
65,./greyInner/EmilyDeschanel8_3_cut.png,0,197,197,64,,,2.nein,31.724,None,None,None,music,2.622,None,None,None,,['return'],[1.0003971231344622],2017_Feb_07_1229,60.0349145331,famFaceGrey,001,12,
204,./greyInner/Usher4_1_cut.png,0,198,198,203,,,1.ja,2.677,None,None,None,music,1.294,None,None,None,Usher,"['lshift', 'u', 's', 'h', 'e', 'r', 'return']","[0.3168660889878083, 0.5502169902629248, 0.8167360135194031, 1.066621415586269, 1.1830346302285761, 1.2330766361046699, 1.799599412463067]",2017_Feb_07_1229,60.0349145331,famFaceGrey,001,12,
189,./greyInner/TaylorSwift7_1_cut.png,0,199,199,188,,,1.ja,10.143,None,act,0.447,None,None,None,None,None,Scarlett Johannson,"['lshift', 's', 'c', 'a', 'r', 'l', 'e', 't', 't', 'space', 'lshift', 'k', 'backspace', 'lshift', 'j', 'o', 'h', 'a', 'n', 'n', 's', 'p', 'o', 'n', 'backspace', 'backspace', 'backspace', 'o', 'b', 'backspace', 'n', 'return']","[0.6166815454180323, 0.7668114123825944, 1.0166968144512794, 1.1332623986309045, 1.3830769087653607, 1.59977333828283, 1.6829847492535919, 1.8829606267499912, 2.0161014505265484, 2.149450138431348, 2.532710852978198, 2.9992939676740207, 3.2822563907793665, 3.399027914420003, 3.4824937023258826, 3.63227680829732, 3.8321307901624095, 3.932170534553734, 4.048849674138182, 4.182075824857748, 4.248755942813659, 4.465557266728865, 4.631973031553571, 4.915022706269156, 5.048246932319671, 5.21507297217795, 5.697957382079039, 5.847978826088365, 6.114460959877761, 6.197867724635216, 6.347830145496118]",2017_Feb_07_1229,60.0349145331,famFaceGrey,001,12,
41,./greyInner/CobieSmulders(Robin)12_1_cut.png,0,200,200,40,,,1.ja,7.641,None,None,None,music,6.475,None,None,None,,['return'],[0.6670651798394829],2017_Feb_07_1229,60.0349145331,famFaceGrey,001,12,
109,./greyInner/JoachimLoew4_1_cut.png,0,201,201,108,,,1.ja,1.343,None,None,None,None,None,sport,0.61,None,Jogi Löw,"['lshift', 'j', 'o', 'g', 'u', 'backspace', 'i', 'space', 'lshift', 'l', u'\xf6', 'e', 'backspace', 'w', 'return']","[0.43350994299544254, 0.6834136294073687, 0.8666638224367489, 1.1332537376256369, 1.333113172715457, 1.7830568922199745, 2.0992807836992142, 2.199540581783367, 2.3160673518268595, 2.449474100547377, 2.6498952178753825, 2.7826350691811967, 3.0490764641672286, 3.1326266166815913, 3.582256936102567]",2017_Feb_07_1229,60.0349145331,famFaceGrey,001,12,
28,./greyInner/Beyonce3_2_cut.png,0,202,202,27,,,1.ja,4.244,None,None,None,music,1.378,None,None,None,Beyonce,"['lshift', 'b', 'e', 'y', 'o', 'n', 'c', 'v', 'e', 'backspace', 'backspace', 'e', 'return']","[0.28368289044010453, 0.5167258448564098, 0.7668585667433945, 1.1167240484992362, 1.266510683028173, 1.433208732474668, 1.7996363019301498, 1.828444409657095, 1.8996025881642709, 2.416106133883659, 2.5325982599078998, 2.682693162070791, 2.849244615981661]",2017_Feb_07_1229,60.0349145331,famFaceGrey,001,12,
67,./greyInner/EmmaWatson(HermioneGranger)16_1_cut.png,0,203,203,66,,,1.ja,5.823,None,act,2.434,None,None,None,None,None,Hermine Granger,"['lshift', 'h', 'e', 'r', 'm', 'i', 'n', 'e', 'space', 'lshift', 'g', 'r', 'r', 'a', 'backspace', 'backspace', 'a', 'n', 'g', 'e', 'r', 'return']","[1.0335604334486561, 1.283150078223116, 1.433394142146426, 1.6332519733459776, 1.9498832528552157, 2.316476022970164, 2.4330364747020212, 2.5344055230270897, 2.716248463073498, 3.115938784014361, 3.1994048926990217, 3.6657384421287134, 3.798936685165245, 4.265518195970799, 4.49874431461285, 4.632108720637916, 4.732023361619213, 5.29844605524886, 5.51494231930883, 5.581629494381559, 5.6649486867518135, 6.41482526742584]",2017_Feb_07_1229,60.0349145331,famFaceGrey,001,12,
34,./greyInner/BritneySpears7_1_cut.png,0,204,204,33,,,1.ja,1.746,None,None,None,music,1.297,None,None,None,Britney Spears,"['lshift', 'b', 'r', 'i', 't', 'n', 'e', 'y', 'space', 'lshift', 's', 'p', 'e', 'a', 'r', 's', 'return']","[0.36696551412205736, 0.6168679174224962, 0.8832785177237383, 1.0000930256119318, 1.2166220090257411, 1.4831811295298394, 1.6330842064635362, 1.916283042937721, 2.016389829926993, 2.149654474002091, 2.2994289189682604, 2.5162565466762317, 2.6493219876301737, 2.9993080819040188, 3.115802774151234, 3.2492566772343707, 4.132105994025551]",2017_Feb_07_1229,60.0349145331,famFaceGrey,001,12,
197,./greyInner/UrsulavonderLeyen4_1_cut.png,0,205,205,196,,,1.ja,3.845,None,None,None,host,1.746,None,None,None,Anne Will,"['lshift', 'a', 'n', 'b', 'b', 'backspace', 'backspace', 'e', 'backspace', 'h', 'e', 'space', 'backspace', 'backspace', 'backspace', 'n', 'e', 'space', 'lshift', 'w', 'i', 'l', 'l', 'lshift', u'?', 'lshift', u'?', 'backspace', 'backspace', 'backspace', 'l', 'return']","[0.8834263963708509, 0.966637165785869, 1.316863843543615, 1.4500117244351713, 1.749957095946229, 1.8664197103953484, 2.18294609550685, 2.516296002368108, 2.6828397576082352, 2.7996119228046155, 2.9660302538541146, 3.4157879221329495, 3.565783062345872, 3.732115745675401, 3.915728738595135, 4.032504432350834, 4.498797884532905, 4.5485345097768, 4.715441706463025, 4.932044789587962, 5.098539786573383, 5.2153151595503005, 6.41472518469709, 6.598084763014413, 8.447060567052176, 8.513827295062583, 8.897144145754282, 9.096993636727348, 9.313224938177882, 10.162685116960347, 10.379710664681625]",2017_Feb_07_1229,60.0349145331,famFaceGrey,001,12,
84,./greyInner/HughLaurie(DrHouse)8_1_cut.png,0,206,206,83,,,1.ja,10.004,None,None,None,music,1.091,None,None,None,Robbie Williams,"['lshift', 'r', 'p', 'o', 'backspace', 'backspace', 'o', 'b', 'b', 'i', 'e', 'space', 'lshift', 'w', 'i', 'l', 'l', 'i', 'a', 'm', 's', 'return']","[3.0491082211865432, 3.215785740840147, 3.5489505588102475, 4.1153289850808505, 4.348599691858908, 4.531796635743376, 4.698539594106478, 5.2315054655755375, 5.547900331715937, 5.664847000130976, 5.781457172450246, 6.047836336509135, 6.347595977571473, 6.547745075175044, 6.78100295083641, 6.914319560943113, 7.130913020730077, 7.497176672639398, 7.747230483144449, 7.847356837590269, 8.463577104279466]",2017_Feb_07_1229,60.0349145331,famFaceGrey,001,12,
168,./greyInner/RobertSeanLeonard(Wilson)11_2_cut.png,0,207,207,167,,,1.ja,7.958,None,act,2.027,None,None,None,None,None,Josh Hartnett,"['lshift', 'j', 'o', 'a', 's', 'h', 'space', 'lshift', 'backspace', 'backspace', 'backspace', 'backspace', 's', 'h', 'lshift', 'space', 'h', 'a', 'r', 't', 'b', 'e', 'backspace', 'backspace', 'backspace', 'backspace', 'backspace', 'backspace', 'backspace', 'backspace', 'backspace', 's', 'h', 'space', 'lshift', 'h', 'a', 'r', 't', 'n', 'e', 't', 't', 'return']","[0.48344962069495523, 0.7164467038619478, 0.8667119391302549, 0.9499512577858695, 1.2498879682916595, 1.3665818636618496, 1.5162020144216513, 1.682916744321119, 1.999477773453691, 2.1327879680029582, 2.2494930906013906, 3.5155675155838253, 4.098603621390794, 4.215234323499317, 4.448483858932377, 4.56519475553614, 4.7484369291141775, 4.931734276506177, 5.11488470758195, 5.948050006720223, 6.197893707651019, 6.281144574311838, 6.764021285542185, 6.897599650479606, 7.0308963723527995, 7.163958284747423, 7.397328753479087, 7.547265191322367, 7.680683167271127, 7.797109213031945, 8.14712064876585, 8.779806769762217, 8.946746685800463, 9.08005335179223, 9.246366788443993, 9.34661086840606, 9.546494361844452, 9.763011155695494, 9.91298319989437, 10.179659404358972, 10.296281766241009, 10.429490915727001, 10.562741124795139, 11.795555364513348]",2017_Feb_07_1229,60.0349145331,famFaceGrey,001,12,
73,./greyInner/GuentherJauch4_1_cut.png,0,208,208,72,,,1.ja,2.227,None,None,None,host,1.194,None,None,None,Günther Jauch,"['lshift', 'g', u'\xfc', 'n', 't', 'h', 'e', 'r', 'space', 'lshift', 'j', 'a', 'u', 'c', 'h', 'return']","[0.2336283742242813, 0.8667257325851097, 1.13324892595665, 1.4331352743192838, 1.6996895831525762, 1.8829320775093947, 1.9827453526486352, 2.1327850810012023, 2.2161940912064892, 2.5659027125311695, 2.715917740979421, 2.8324977601678256, 2.932636624955194, 3.2323035611807427, 3.34896056708385, 3.9485055114473653]",2017_Feb_07_1229,60.0349145331,famFaceGrey,001,12,
191,./greyInner/TomCruise1_1_cut.png,0,209,209,190,,,2.nein,2.645,None,None,None,music,4.694,None,None,None,,['return'],[0.9171959770592366],2017_Feb_07_1229,60.0349145331,famFaceGrey,001,12,
221,./greyInner/notfamousface6_8_cut.png,0,210,210,220,,,2.nein,4.063,None,None,None,None,None,sport,3.009,None,,['return'],[0.8003455420366663],2017_Feb_07_1229,60.0349145331,famFaceGrey,001,12,
27,./greyInner/Beyonce11_2_cut.png,0,211,211,26,,,1.ja,6.226,None,None,None,music,1.676,None,None,None,Beyonce,"['lshift', 'v', 'b', 'e', 'backspace', 'backspace', 'backspace', 'lshift', 'b', 'e', 'y', 'o', 'n', 'c', 'e', 'return']","[0.33356707355051185, 0.6834287059718918, 0.8999272154760547, 1.3829967142701207, 1.5331346006842068, 1.6829892401437974, 2.1160545848633774, 2.2660760288708843, 2.4994025510186475, 3.26582229349151, 3.4822592136242747, 3.732207167398883, 3.9991582785896753, 4.098696326225763, 4.631792112773837]",2017_Feb_07_1229,60.0349145331,famFaceGrey,001,12,
182,./greyInner/SigmarGabriel11_3_cut.png,0,212,212,181,,,2.nein,4.963,None,dummy,5.79,None,None,None,None,None,,['return'],[1.100174791919926],2017_Feb_07_1229,60.0349145331,famFaceGrey,001,12,
158,./greyInner/NicoleKidman5_1_cut.png,0,213,213,157,,,1.ja,10.889,None,act,0.876,None,None,None,None,None,Scarlett Johannsson,"['lshift', 's', 'c', 'a', 'r', 'l', 'e', 't', 't', 'space', 'lshift', 'j', 'o', 'h', 'a', 'n', 'n', 's', 's', 'backspace', 's', 'o', 'm', 'n', 'backspace', 'backspace', 'n', 'return']","[6.46440054134473, 6.647647847370536, 6.914191891310111, 7.130797861436804, 7.297445548740143, 7.597188188568907, 7.7307870832974, 7.980380577406322, 8.130399134412073, 8.297025650368596, 8.380139865612364, 8.946816294623204, 9.179967351217783, 9.513274594608447, 9.61309396452998, 9.746592134972161, 9.879728467858513, 10.229734129588905, 10.379584598935253, 10.77911196466448, 11.095897217603124, 11.195823085812663, 11.745454014711868, 12.212279637558822, 12.411917094290402, 12.928475493043152, 13.428290564539566]",2017_Feb_07_1229,60.0349145331,famFaceGrey,001,12,
136,./greyInner/LisaEdelstein(DrLisaCuddy)1_1_cut.png,0,214,214,135,,,1.ja,2.146,None,act,1.596,None,None,None,None,None,,['return'],[1.21667108805741],2017_Feb_07_1229,60.0349145331,famFaceGrey,001,12,
128,./greyInner/KatjaBurkard4_1_cut.png,0,215,215,127,,,1.ja,1.351,None,None,None,host,1.017,None,None,None,Katja Burkhardt,"['lshift', 'k', 'a', 't', 'j', 'a', 'space', 'lshift', 'b', 'u', 'r', 'g', 'backspace', 'k', 'h', 'a', 'r', 'd', 't', 'return']","[0.5174334810726577, 0.6339483823321643, 0.7172566682529578, 0.9671581092188717, 1.1837069808661909, 1.2837682173831126, 1.400456338749791, 1.5500325429256918, 2.000063193261667, 2.2500214119299926, 2.333234426791023, 2.4333434592244885, 3.2163647450888675, 3.632892702013123, 3.9327793711527192, 4.015966723776728, 5.348758476959119, 5.5817831470303645, 5.665335865769521, 6.414912198255479]",2017_Feb_07_1229,60.0349145331,famFaceGrey,001,12,
79,./greyInner/GeorgeClooney3_1_cut.png,0,216,216,78,,,1.ja,1.48,None,dummy,0.663,None,None,None,None,None,George Clooney,"['lshift', 'g', 'e', 'o', 's', 'backspace', 'r', 'g', 'e', 'space', 'lshift', 'c', 'l', 'o', 'o', 'n', 'e', 'y', 'return']","[0.4169574786337762, 0.7335695114652481, 0.933393660978254, 1.3165805965891195, 1.4165715827275562, 2.232940626241543, 2.3328517386653402, 3.332400404051441, 3.398974665275091, 3.565636466810247, 3.7655857197332807, 4.048773328979223, 4.332049472945073, 4.5486378002842685, 4.648558215267258, 4.865299232922553, 4.948410881943346, 5.2983915229924605, 5.698071579039606]",2017_Feb_07_1229,60.0349145331,famFaceGrey,001,12,
201,./greyInner/Usher1_1_cut.png,0,217,217,200,,,1.ja,1.282,None,None,None,music,1.349,None,None,None,Usher,"['lshift', 'u', 's', 'h', 'e', 'r', 'return']","[0.33361037858048803, 0.6500485497472255, 0.8834209431461204, 1.0165575968094345, 1.1165315817161172, 1.1998433961925912, 2.066304807724009]",2017_Feb_07_1229,60.0349145331,famFaceGrey,001,12,
219,./greyInner/notfamousface4_2_cut.png,0,218,218,218,,,2.nein,9.615,None,dummy,4.237,None,None,None,None,None,,['return'],[0.6502801514470775],2017_Feb_07_1229,60.0349145331,famFaceGrey,001,12,
107,./greyInner/JoachimLoew12_1_cut.png,0,219,219,106,,,2.nein,6.062,None,None,None,music,2.08,None,None,None,,['return'],[0.5499356679756602],2017_Feb_07_1229,60.0349145331,famFaceGrey,001,12,
224,./greyInner/notfamousface9_1_cut.png,0,220,220,223,,,2.nein,2.959,None,None,None,None,None,sport,1.511,None,,['return'],[0.7834261076714029],2017_Feb_07_1229,60.0349145331,famFaceGrey,001,12,
