num,pic,trials.thisRepN,trials.thisTrialN,trials.thisN,trials.thisIndex,key_resp_2.keys,key_resp_2.rt,ratingBekannt.response,ratingBekannt.rt,key_resp_5.keys,ratingK1.response,ratingK1.rt,ratingK2.response,ratingK2.rt,ratingK3.response,ratingK3.rt,key_resp_6.keys,inputText,key_resp_4.keys,key_resp_4.rt,date,frameRate,expName,session,participant,
,,,,,,space,37.850094887,,,,,,,,,,,,,,2017_Feb_08_1028,60.0229125069,famFaceGrey,001,13,
191,./greyInner/TomCruise1_1_cut.png,0,0,0,190,,,1.ja,30.771,None,act,2.578,None,None,None,None,None,,['return'],[3.149083272171083],2017_Feb_08_1028,60.0229125069,famFaceGrey,001,13,
171,./greyInner/SahraWagenknecht12_1_cut.png,0,1,1,170,,,2.nein,5.948,None,None,None,None,None,sport,7.96,None,,['return'],[1.6171443950584035],2017_Feb_08_1028,60.0229125069,famFaceGrey,001,13,
115,./greyInner/JoshRadnor(Ted)9_1_cut.png,0,2,2,114,,,2.nein,5.927,None,None,None,music,5.011,None,None,None,,['return'],[1.350145891180773],2017_Feb_08_1028,60.0229125069,famFaceGrey,001,13,
174,./greyInner/SahraWagenknecht6_2_cut.png,0,3,3,173,,,2.nein,36.388,None,None,None,host,3.34,None,None,None,,['return'],[1.2000550460127215],2017_Feb_08_1028,60.0229125069,famFaceGrey,001,13,
7,./greyInner/AngelaMerkel3_1_cut.png,0,4,4,6,,,1.ja,1.636,None,None,None,None,None,polit,2.033,None,Angela Merkel,"['a', 'n', 'a', 'g', 'backspace', 'backspace', 'backspace', 'backspace', 'backspace', 'lshift', 'a', 'n', 'g', 'e', 'l', 'a', 'space', 'lshift', 'm', 'e', 'r', 'k', 'e', 'l', 'return']","[2.5994870070881007, 2.882673722137042, 3.1490794227995593, 3.299099375375363, 3.5491157352043956, 3.715659756617015, 3.8821514907333494, 4.032688221436501, 4.1820476860145845, 4.248855774314052, 4.3319877641310995, 4.731968260648728, 4.948558602832236, 5.048416432710383, 5.2316641602981235, 5.365027882281083, 5.614647756842942, 5.7647940971171465, 5.88150992881242, 6.014593929797684, 6.131318101797888, 6.397884513721692, 6.531135320806698, 6.8142373496821165, 7.530613089403005]",2017_Feb_08_1028,60.0229125069,famFaceGrey,001,13,
119,./greyInner/JudithRakers7_1_cut.png,0,5,5,118,,,2.nein,7.059,None,act,2.993,None,None,None,None,None,,['return'],[1.033508779133399],2017_Feb_08_1028,60.0229125069,famFaceGrey,001,13,
204,./greyInner/Usher4_1_cut.png,0,6,6,203,,,1.ja,4.96,None,None,None,music,1.477,None,None,None,Usher,"['lshift', 'u', 's', 'h', 'e', 'r', 'return']","[1.0999806889860793, 1.3830018810594993, 2.0995328787653307, 2.232866768119038, 2.449458393426312, 2.5839621709428684, 3.449001922119578]",2017_Feb_08_1028,60.0229125069,famFaceGrey,001,13,
169,./greyInner/RobertSeanLeonard(Wilson)2_6_cut.png,0,7,7,168,,,2.nein,3.102,None,act,1.259,None,None,None,None,None,,['return'],[0.8666526378458457],2017_Feb_08_1028,60.0229125069,famFaceGrey,001,13,
129,./greyInner/KatjaBurkard5_3_cut.png,0,8,8,128,,,2.nein,3.243,None,None,None,music,6.359,None,None,None,,['return'],[1.0332819869940977],2017_Feb_08_1028,60.0229125069,famFaceGrey,001,13,
107,./greyInner/JoachimLoew12_1_cut.png,0,9,9,106,,,2.nein,3.097,None,None,None,host,5.028,None,None,None,,['return'],[0.933346207342538],2017_Feb_08_1028,60.0229125069,famFaceGrey,001,13,
180,./greyInner/Shakira9_1_cut.png,0,10,10,179,,,1.ja,9.907,None,None,None,music,5.459,None,None,None,Beyonce,"['b', 'backspace', 'lshift', 'b', 'e', 'y', 'o', 'n', 'c', 'e', 'return']","[1.5165455611613652, 1.9162482613671727, 2.182685077782935, 2.449442354378334, 2.6158827635406396, 2.9492421870588714, 3.315713262881218, 3.632235535344762, 3.932157713883953, 4.131749231408776, 10.796063504365065]",2017_Feb_08_1028,60.0229125069,famFaceGrey,001,13,
117,./greyInner/JudithRakers2_1_cut.png,0,11,11,116,,,2.nein,9.128,None,dummy,1.898,None,None,None,None,None,,['return'],[1.2998522482896533],2017_Feb_08_1028,60.0229125069,famFaceGrey,001,13,
128,./greyInner/KatjaBurkard4_1_cut.png,0,12,12,127,,,2.nein,2.966,None,None,None,music,9.247,None,None,None,,['return'],[1.7164552933991217],2017_Feb_08_1028,60.0229125069,famFaceGrey,001,13,
177,./greyInner/Shakira2_1_cut.png,0,13,13,176,,,1.ja,7.06,None,None,None,music,1.246,None,None,None,Shakira,"['lshift', 's', 'h', 'a', 'k', 'i', 'r', 'a', 'return']","[1.533073479369932, 1.8164523422142338, 2.0663978094510185, 2.1830623161924905, 2.5827977360563636, 2.7659386435841498, 3.015917472040883, 3.1494011661029617, 4.898475713031985]",2017_Feb_08_1028,60.0229125069,famFaceGrey,001,13,
220,./greyInner/notfamousface5_1_cut.png,0,14,14,219,,,1.ja,11.605,None,act,2.849,None,None,None,None,None,,['return'],[1.0003015341028458],2017_Feb_08_1028,60.0229125069,famFaceGrey,001,13,
193,./greyInner/TomCruise5_1_cut.png,0,15,15,192,,,1.ja,3.359,None,act,2.26,None,None,None,None,None,,['return'],[28.68884022285306],2017_Feb_08_1028,60.0229125069,famFaceGrey,001,13,
189,./greyInner/TaylorSwift7_1_cut.png,0,16,16,188,,,1.ja,2.97,None,None,None,music,1.646,None,None,None,Taylor Swift,"['lshift', 't', 'a', 'y', 'l', 'o', 'r', 'space', 'lshift', 's', 'w', 'i', 'f', 't', 'return']","[64.14176208830963, 64.29167554160654, 64.75823444725597, 65.20817433290381, 65.95779645293237, 66.14104674676787, 66.2575595241151, 66.40773858404714, 66.5241082930861, 66.62410470033933, 66.92417507968207, 67.12378776875016, 67.45721070689865, 67.6737808398816, 68.62342977719845]",2017_Feb_08_1028,60.0229125069,famFaceGrey,001,13,
23,./greyInner/BenedictCumberbatch3_9_cut.png,0,17,17,22,,,1.ja,6.703,None,act,1.117,None,None,None,None,None,,['return'],[1.3000588312281707],2017_Feb_08_1028,60.0229125069,famFaceGrey,001,13,
154,./greyInner/NeilPatrickHarris(Barney)2_2_cut.png,0,18,18,153,,,2.nein,2.713,None,None,None,None,None,sport,3.396,None,,['return'],[1.166728791245987],2017_Feb_08_1028,60.0229125069,famFaceGrey,001,13,
168,./greyInner/RobertSeanLeonard(Wilson)11_2_cut.png,0,19,19,167,,,2.nein,3.098,None,dummy,1.311,None,None,None,None,None,,['return'],[0.9502943486095319],2017_Feb_08_1028,60.0229125069,famFaceGrey,001,13,
219,./greyInner/notfamousface4_2_cut.png,0,20,20,218,,,1.ja,4.634,None,None,None,music,1.004,None,None,None,Sarah Connor,"['lshift', 's', 'a', 'r', 'a', 'h', 'space', 'lshift', 'v', 'o', 'backspace', 'backspace', 'lshift', 'c', 'o', 'n', 'n', 'o', 'r', 'return']","[1.016676760574228, 1.1668551789443882, 1.466599965612204, 1.699910694580467, 1.8163352571637006, 2.133074377556568, 2.299564507768082, 2.4163467411221973, 2.5827666203031185, 2.733038385933014, 3.232774062421413, 3.3659616756572177, 3.5823925897029767, 3.765490512582346, 3.8990483070465416, 4.1654642726998645, 4.298785330815008, 4.382194154601166, 4.482259850541595, 6.364753935340559]",2017_Feb_08_1028,60.0229125069,famFaceGrey,001,13,
113,./greyInner/JoshRadnor(Ted)6_2_cut.png,0,21,21,112,,,2.nein,2.094,None,act,2.013,None,None,None,None,None,,['return'],[1.2001105411186472],2017_Feb_08_1028,60.0229125069,famFaceGrey,001,13,
66,./greyInner/EmmaWatson(HermioneGranger)11_2_cut.png,0,22,22,65,,,1.ja,3.802,None,act,1.245,None,None,None,None,None,Emma Watson,"['lshift', 'e', 'm', 'm', 'a', 'space', 'lshift', 'w', 'a', 't', 's', 'o', 'n', 'return']","[0.8833502491825129, 1.0168204704445998, 1.3498440362968722, 1.4831840204888067, 1.566542160883273, 1.716446632312909, 1.849417076838563, 2.0329692255577356, 2.2994377992886257, 2.5328037025819867, 2.732803895050438, 2.9325862772470828, 3.0991354311549912, 3.815404350816152]",2017_Feb_08_1028,60.0229125069,famFaceGrey,001,13,
164,./greyInner/OmarEpps(DrEricForeman)5_2_cut.png,0,23,23,163,,,2.nein,6.005,None,None,None,music,1.581,None,None,None,,['return'],[1.1666033658902961],2017_Feb_08_1028,60.0229125069,famFaceGrey,001,13,
64,./greyInner/EmilyDeschanel6_12_cut.png,0,24,24,63,,,1.ja,12.268,None,act,1.056,None,None,None,None,None,,['return'],[1.1001138130845902],2017_Feb_08_1028,60.0229125069,famFaceGrey,001,13,
142,./greyInner/MariskaHargitay(Liv)14_1_cut.png,0,25,25,141,,,2.nein,1.948,None,None,None,host,1.311,None,None,None,,['return'],[1.150177456026995],2017_Feb_08_1028,60.0229125069,famFaceGrey,001,13,
216,./greyInner/notfamousface14_6_cut.png,0,26,26,215,,,2.nein,3.151,None,None,None,music,4.408,None,None,None,,['return'],[1.4667853770074544],2017_Feb_08_1028,60.0229125069,famFaceGrey,001,13,
221,./greyInner/notfamousface6_8_cut.png,0,27,27,220,,,2.nein,2.759,None,None,None,None,None,sport,3.098,None,,['return'],[1.1501918911703797],2017_Feb_08_1028,60.0229125069,famFaceGrey,001,13,
175,./greyInner/SahraWagenknecht9_1_cut.png,0,28,28,174,,,2.nein,8.839,None,act,2.058,None,None,None,None,None,,['return'],[1.333259019077559],2017_Feb_08_1028,60.0229125069,famFaceGrey,001,13,
76,./greyInner/GeorgeClooney11_1_cut.png,0,29,29,75,,,1.ja,8.709,None,act,1.447,None,None,None,None,None,,['return'],[1.3502748451269326],2017_Feb_08_1028,60.0229125069,famFaceGrey,001,13,
49,./greyInner/CristinMilioti(Tracy_Mutter)8_1_cut.png,0,30,30,48,,,2.nein,2.036,None,None,None,music,1.587,None,None,None,,['return'],[1.4166136308808746],2017_Feb_08_1028,60.0229125069,famFaceGrey,001,13,
45,./greyInner/CobieSmulders(Robin)5_1_cut.png,0,31,31,44,,,2.nein,2.929,None,act,4.345,None,None,None,None,None,,['return'],[0.968290802055435],2017_Feb_08_1028,60.0229125069,famFaceGrey,001,13,
78,./greyInner/GeorgeClooney16_1_cut.png,0,32,32,77,,,2.nein,3.008,None,None,None,music,1.676,None,None,None,,['return'],[1.0333993928261407],2017_Feb_08_1028,60.0229125069,famFaceGrey,001,13,
185,./greyInner/SigmarGabriel8_2_cut.png,0,33,33,184,,,2.nein,1.788,None,None,None,host,1.517,None,None,None,,['return'],[1.116845747984371],2017_Feb_08_1028,60.0229125069,famFaceGrey,001,13,
192,./greyInner/TomCruise4_1_cut.png,0,34,34,191,,,1.ja,8.139,None,act,1.075,None,None,None,None,None,,['return'],[6.464453940986914],2017_Feb_08_1028,60.0229125069,famFaceGrey,001,13,
183,./greyInner/SigmarGabriel3_3_cut.png,0,35,35,182,,,2.nein,2.736,None,None,None,None,None,polit,6.044,None,,['return'],[1.300147045992162],2017_Feb_08_1028,60.0229125069,famFaceGrey,001,13,
208,./greyInner/WillSmith4_1_cut.png,0,36,36,207,,,1.ja,2.042,None,act,1.374,None,None,None,None,None,Will Smith,"['lshift', 'w', 'i', u'\xf6', u'\xf6', 'space', 'lshift', 'backspace', 'backspace', 'backspace', 'l', 'l', 'space', 'lshift', 's', 'backspace', 'backspace', 'backspace', 'backspace', 'l', 'l', 'space', 'lshift', 's', 'm', 'i', 't', 'h', 'return']","[1.6830485226109886, 1.8829989940309133, 2.0162064956862196, 2.2662623115734277, 2.382811016388132, 2.5327385840473653, 2.617065803723108, 2.849294538511458, 2.982609181007774, 3.148939241519656, 3.6989037631456085, 3.8323916273602663, 3.948818756191031, 3.9820949691279566, 4.0822238589180415, 4.465291500074272, 4.615328133259936, 4.781654985962632, 4.915130018938726, 5.398255015731138, 5.548223322572085, 5.7815799232180325, 5.914723589462028, 6.064588284052661, 6.380956581655482, 6.597642516564974, 6.947701476105522, 7.030970118612004, 7.947325841601014]",2017_Feb_08_1028,60.0229125069,famFaceGrey,001,13,
99,./greyInner/JasonSegel(Marshall)7_1_cut.png,0,37,37,98,,,2.nein,3.393,None,dummy,9.491,None,None,None,None,None,,['return'],[1.1003178297755767],2017_Feb_08_1028,60.0229125069,famFaceGrey,001,13,
13,./greyInner/BarackObama2_1_cut.png,0,38,38,12,,,1.ja,1.863,None,None,None,None,None,polit,1.73,None,Barack Obama,"['lshift', 'b', 'a', 'r', 'a', 'c', 'k', 'space', 'lshift', 'o', 'b', 'a', 'n', 'a', 'backspace', 'backspace', 'm', 'a', 'return']","[0.9502350041316276, 2.2330290832846913, 2.516057653320331, 2.7660236505385, 2.9162033520324258, 3.1327571251867994, 3.2159760466438456, 3.399300120100179, 3.548999612496573, 3.732507493443336, 4.115746752413543, 4.2986117883151564, 4.465435209944644, 4.532075850582714, 5.165099865528646, 5.348509266720157, 6.281471499253257, 6.397974973952387, 7.597459350636655]",2017_Feb_08_1028,60.0229125069,famFaceGrey,001,13,
72,./greyInner/GuentherJauch3_1_cut.png,0,39,39,71,,,2.nein,1.878,None,None,None,host,12.144,None,None,None,Günter Jauch,"['lshift', 'g', u'\xfc', 'n', 't', 'e', 'r', 'space', 'lshift', 'j', 'a', 'u', 'c', 'h', 'lshift', u'?', '1', 'backspace', 'lshift', u'?', 'return']","[6.347745808034688, 6.614412624398938, 6.948973372614091, 7.147251292105921, 7.347525110733841, 7.597414120521535, 7.830671279069065, 8.363770100134843, 8.480317842606837, 8.63039617731738, 8.83011664878859, 8.980140771516744, 9.313392733412911, 9.396625127671086, 9.613299514466235, 10.046449403860606, 10.462823090583697, 11.312505453276572, 11.74563128409909, 11.97866934925105, 14.97782922391525]",2017_Feb_08_1028,60.0229125069,famFaceGrey,001,13,
3,./greyInner/AlysonHannigan(Lily)14_2_cut.png,0,40,40,2,,,2.nein,9.659,None,None,None,host,1.295,None,None,None,,['return'],[1.3832264277320974],2017_Feb_08_1028,60.0229125069,famFaceGrey,001,13,
47,./greyInner/CristinMilioti(Tracy_Mutter)2_1_cut.png,0,41,41,46,,,2.nein,4.511,None,None,None,music,0.93,None,None,None,,['return'],[1.0333070079091158],2017_Feb_08_1028,60.0229125069,famFaceGrey,001,13,
42,./greyInner/CobieSmulders(Robin)2_1_cut.png,0,42,42,41,,,2.nein,18.621,None,dummy,1.477,None,None,None,None,None,,['return'],[1.699739397547546],2017_Feb_08_1028,60.0229125069,famFaceGrey,001,13,
27,./greyInner/Beyonce11_2_cut.png,0,43,43,26,,,1.ja,16.912,None,None,None,music,1.527,None,None,None,Beyonce,"['lshift', 'b', 'e', 'c', 'backspace', 'y', 'o', 'n', 'c', 'c', 'backspace', 'e', 'return']","[3.715579240596071, 3.8488547478150394, 3.9988448677613633, 4.6317671951428565, 4.981901217428003, 5.2484714787233315, 5.698239425776592, 5.94804920266688, 6.881318101798115, 8.313735327478753, 8.846684343836387, 9.62999840892644, 13.061733975066545]",2017_Feb_08_1028,60.0229125069,famFaceGrey,001,13,
141,./greyInner/MariskaHargitay(Liv)13_1_cut.png,0,44,44,140,,,2.nein,3.701,None,None,None,host,1.378,None,None,None,,['return'],[1.1504982369879144],2017_Feb_08_1028,60.0229125069,famFaceGrey,001,13,
81,./greyInner/HughLaurie(DrHouse)2_1_cut.png,0,45,45,80,,,2.nein,13.119,None,act,2.668,None,None,None,None,None,,['return'],[0.9499973054398652],2017_Feb_08_1028,60.0229125069,famFaceGrey,001,13,
58,./greyInner/ElvisPresley4_10_cut.png,0,46,46,57,,,1.ja,3.787,None,None,None,music,1.004,None,None,None,Elvis Presley,"['lshift', 'e', 'l', 'v', 'i', 's', 'space', 'lshift', 'p', 'r', 'e', 's', 'l', 'e', 'y', 'return']","[1.0165548638092332, 1.183151172518592, 1.4996112134758732, 2.065943262829933, 2.13281903591178, 2.233257800109641, 3.9988211299701106, 4.0986674117339135, 4.232013811544675, 4.365571606008871, 4.565185257420126, 4.765219452670408, 5.331604751664145, 5.4148227107784805, 5.614863963210155, 6.564336150217514]",2017_Feb_08_1028,60.0229125069,famFaceGrey,001,13,
5,./greyInner/AlysonHannigan(Lily)8_3_cut.png,0,47,47,4,,,2.nein,2.33,None,act,3.002,None,None,None,None,None,,['return'],[1.1166410897312744],2017_Feb_08_1028,60.0229125069,famFaceGrey,001,13,
166,./greyInner/RobertSeanLeonard(Wilson)1_1_cut.png,0,48,48,165,,,2.nein,2.458,None,None,None,host,1.338,None,None,None,,['return'],[0.9330648824402488],2017_Feb_08_1028,60.0229125069,famFaceGrey,001,13,
36,./greyInner/CarenMiosga1_1_cut.png,0,49,49,35,,,2.nein,2.178,None,None,None,None,None,polit,2.095,None,,['return'],[0.9501182398616947],2017_Feb_08_1028,60.0229125069,famFaceGrey,001,13,
176,./greyInner/Shakira1_1_cut.png,0,50,50,175,,,1.ja,5.327,None,None,None,music,4.359,None,None,None,Jennifer Lopez,"['lshift', 'j', 'e', 'n', 'n', 'i', 'f', 'e', 'r', 'space', 'lshift', 'l', 'o', 'p', 'e', 'z', 'return']","[4.698267654500796, 7.7476836406844996, 7.9139950959006455, 8.430267030902996, 8.596997105272749, 8.747091479031042, 9.163556267546937, 9.48014430010744, 9.629976275040008, 9.82975224161737, 10.029774247191199, 10.129753973834795, 10.329588964108552, 11.27939476331494, 11.362663085040367, 11.662693687544106, 34.23700195548099]",2017_Feb_08_1028,60.0229125069,famFaceGrey,001,13,
68,./greyInner/EmmaWatson(HermioneGranger)3_1_cut.png,0,51,51,67,,,1.ja,2.842,None,act,1.328,None,None,None,None,None,Emma Watson,"['lshift', 'e', 'm', 'm', 'a', 'space', 'lshift', 'w', 'a', 't', 's', 'o', 'n', 'return']","[0.9830672562193286, 1.133347362153927, 1.3998624491241571, 1.4997889261280761, 1.583295588106921, 1.74972444915511, 1.9163608554845268, 2.1162221497970677, 2.382786637035224, 2.5986032555420024, 2.8161055779960407, 2.998978954202812, 3.182402790537708, 3.3657701694237403]",2017_Feb_08_1028,60.0229125069,famFaceGrey,001,13,
114,./greyInner/JoshRadnor(Ted)7_1_cut.png,0,52,52,113,,,2.nein,2.558,None,act,1.109,None,None,None,None,None,,['return'],[1.099681079569109],2017_Feb_08_1028,60.0229125069,famFaceGrey,001,13,
121,./greyInner/KaleyCuoco(Penny)10_1_cut.png,0,53,53,120,,,2.nein,3.91,None,None,None,host,1.807,None,None,None,,['return'],[0.9998652719968959],2017_Feb_08_1028,60.0229125069,famFaceGrey,001,13,
144,./greyInner/MariskaHargitay(Liv)6_5_cut.png,0,54,54,143,,,2.nein,4.004,None,None,None,host,3.19,None,None,None,,['return'],[0.9165777034136227],2017_Feb_08_1028,60.0229125069,famFaceGrey,001,13,
133,./greyInner/LeonardoDiCaprio3_1_cut.png,0,55,55,132,,,1.ja,1.712,None,act,1.132,None,None,None,None,None,Leonardo DiCaprio,"['lshift', 'l', 'e', 'o', 'n', 'a', 'r', 'd', 'o', 'space', 'lshift', 'd', 'i', 'space', 'lshift', 'backspace', 'v', 'c', 'backspace', 'backspace', 'lshift', 'c', 'a', 'p', 'r', 'i', 'o', 'return']","[2.7161598541347303, 2.915999335341894, 3.0993856403047175, 3.4493207783943944, 3.8658077007962675, 4.065679580880442, 4.249039261023427, 4.582243426556943, 4.715577957472306, 4.91537477481188, 4.981931370838538, 5.0487968789298066, 5.181928676278403, 5.681730754425644, 5.8982261454448235, 5.998291520604653, 6.198307431340254, 6.647998711743639, 6.831108503518408, 6.947900039520391, 7.081066481212474, 7.364361941007246, 7.680979164635119, 7.914196546344101, 7.997212734234381, 8.180859192556, 8.897154416255944]",2017_Feb_08_1028,60.0229125069,famFaceGrey,001,13,
170,./greyInner/RobertSeanLeonard(Wilson)8_1_cut.png,0,56,56,169,,,2.nein,6.46,None,dummy,1.013,None,None,None,None,None,,['return'],[0.9499860781061216],2017_Feb_08_1028,60.0229125069,famFaceGrey,001,13,
210,./greyInner/WillSmith6_1_cut.png,0,57,57,209,,,1.ja,1.379,None,act,2.245,None,None,None,None,None,Will Smith,"['lshift', 'w', 'i', 'l', 'l', 'space', 'lshift', 's', 'm', 'i', 't', 'h', 'return']","[1.016443873596927, 1.30024905433811, 1.4666856141288918, 1.7999718995879448, 1.9498914477230755, 2.0831445002745568, 2.183062316192718, 2.299788092097515, 2.749640725324298, 2.966039240493501, 3.232756419468842, 3.28267667332193, 3.4659731596157144]",2017_Feb_08_1028,60.0229125069,famFaceGrey,001,13,
21,./greyInner/BenedictCumberbatch16_1_cut.png,0,58,58,20,,,1.ja,3.794,None,act,1.212,None,None,None,None,None,,['return'],[4.7486280198322675],2017_Feb_08_1028,60.0229125069,famFaceGrey,001,13,
213,./greyInner/notfamousface12_2_cut.png,0,59,59,212,,,2.nein,21.762,None,None,None,music,1.885,None,None,None,,['return'],[1.1499144156396142],2017_Feb_08_1028,60.0229125069,famFaceGrey,001,13,
187,./greyInner/TaylorSwift2_1_cut.png,0,60,60,186,,,1.ja,1.922,None,None,None,music,1.66,None,None,None,Taylor Swift,"['lshift', 't', 'a', 'y', 'l', 'o', 'r', 'space', 'lshift', 's', 'w', 'i', 'f', 't', 'return']","[0.7165749446971859, 0.9333295267324502, 1.3663267243900918, 1.6162301693207155, 2.032948054014014, 2.216115907142921, 2.31619571744568, 2.499380892746103, 2.5826716691385627, 2.6826231670575, 2.999193235884377, 3.2658311819623123, 3.6655463926254015, 3.8652055949328314, 4.465349561427956]",2017_Feb_08_1028,60.0229125069,famFaceGrey,001,13,
222,./greyInner/notfamousface7_cut.png,0,61,61,221,,,2.nein,2.604,None,None,None,None,None,sport,2.637,None,,['return'],[1.1834709911363461],2017_Feb_08_1028,60.0229125069,famFaceGrey,001,13,
57,./greyInner/ElvisPresley2_1_cut.png,0,62,62,56,,,1.ja,2.495,None,None,None,music,1.455,None,None,None,Elvis Presley,"['lshift', 'e', 'l', 'v', 'i', 's', 'space', 'lshift', 'p', 'r', 'e', 's', 'l', 'e', 'y', 'return']","[0.9168317619346453, 1.133353777773209, 1.4500223263548833, 1.8830666788135204, 1.9830265170376151, 2.082971278556215, 2.2496525942201515, 2.3662404343117487, 2.483839375991465, 2.6329024389619917, 2.8491402428699075, 3.015726286588233, 3.3158685208663883, 3.365800322834275, 3.599089880259271, 4.7653111960257775]",2017_Feb_08_1028,60.0229125069,famFaceGrey,001,13,
53,./greyInner/DannFlorek(DonaldDonCragen)2_1_cut.png,0,63,63,52,,,2.nein,2.945,None,None,None,None,None,polit,1.379,None,,['return'],[1.0334821543137878],2017_Feb_08_1028,60.0229125069,famFaceGrey,001,13,
62,./greyInner/EmilyDeschanel3_1_cut.png,0,64,64,61,,,2.nein,8.762,None,None,None,host,5.915,None,None,None,,['return'],[1.0835583077137017],2017_Feb_08_1028,60.0229125069,famFaceGrey,001,13,
63,./greyInner/EmilyDeschanel5_1_cut.png,0,65,65,62,,,2.nein,2.724,None,dummy,3.843,None,None,None,None,None,,['return'],[0.8166271678378507],2017_Feb_08_1028,60.0229125069,famFaceGrey,001,13,
214,./greyInner/notfamousface1_2_cut.png,0,66,66,213,,,2.nein,4.788,None,None,None,music,1.335,None,None,None,,['return'],[0.7996578550278173],2017_Feb_08_1028,60.0229125069,famFaceGrey,001,13,
126,./greyInner/KatjaBurkard1_1_cut.png,0,67,67,125,,,2.nein,1.861,None,None,None,None,None,polit,0.894,None,,['return'],[1.0001552579847157],2017_Feb_08_1028,60.0229125069,famFaceGrey,001,13,
135,./greyInner/LeonardoDiCaprio7_1_cut.png,0,68,68,134,,,1.ja,2.068,None,act,1.687,None,None,None,None,None,Leonardo DiCaprio,"['lshift', 'l', 'e', 'o', 'n', 'a', 'r', 'd', 'o', 'space', 'lshift', 'd', 'i', 'lshift', 'c', 'a', 'p', 'r', 'i', 'o', 'p', 'backspace', 'return']","[0.700113428147688, 0.8833277945154805, 1.0167816559483072, 1.199917751761859, 1.6997037908613493, 1.883047431956129, 1.983038065151959, 2.299511899690515, 2.4326497918773384, 2.666021469228326, 2.7159154190426307, 2.7823741768761465, 2.899190092231038, 3.4824378839748533, 3.6321447543332397, 3.89895111041551, 4.065388953330512, 4.232115178328513, 4.315389915673222, 4.631915395946635, 4.661296044899245, 5.2982964606312635, 5.498098410466355]",2017_Feb_08_1028,60.0229125069,famFaceGrey,001,13,
65,./greyInner/EmilyDeschanel8_3_cut.png,0,69,69,64,,,1.ja,22.312,None,None,None,music,1.845,None,None,None,Adele,"['lshift', 'a', 'd', 'e', 'l', 'e', 'return']","[0.8667748553916681, 1.0503638939212578, 1.4667067856721587, 1.649907679239277, 1.8164292459850913, 1.8832168043027195, 2.416293812263575]",2017_Feb_08_1028,60.0229125069,famFaceGrey,001,13,
101,./greyInner/JimParsons(SheldonCooper)1_1_cut.png,0,70,70,100,,,2.nein,2.696,None,act,0.73,None,None,None,None,None,,['return'],[1.1667066573595548],2017_Feb_08_1028,60.0229125069,famFaceGrey,001,13,
218,./greyInner/notfamousface3_3_cut.png,0,71,71,217,,,2.nein,1.97,None,None,None,music,1.726,None,None,None,,['return'],[1.1500533137959792],2017_Feb_08_1028,60.0229125069,famFaceGrey,001,13,
17,./greyInner/BastianSchweinsteiger12_1_cut.png,0,72,72,16,,,1.ja,9.802,None,None,None,None,None,sport,1.18,None,Schweinsteiger,"['lshift', 's', 'c', 'h', 'w', 'e', 'i', 'n', 's', 't', 'e', 'i', 'e', 'backspace', 'g', 'e', 'r', 'return']","[1.5165587131809843, 1.6996585607457746, 1.7997297099627758, 1.932942344113144, 2.299565149330192, 2.4327890108143038, 2.5661084650246266, 2.849785974943188, 2.9825062103195705, 3.165869739833852, 3.382370263348548, 3.499080320986195, 3.615604004886336, 3.9823098923716316, 4.131968004023747, 4.33198840569321, 4.448648421501275, 4.615225162571733]",2017_Feb_08_1028,60.0229125069,famFaceGrey,001,13,
152,./greyInner/NeilPatrickHarris(Barney)11_2_cut.png,0,73,73,151,,,2.nein,3.23,None,None,None,None,None,sport,6.446,None,,['return'],[1.166680353321226],2017_Feb_08_1028,60.0229125069,famFaceGrey,001,13,
116,./greyInner/JudithRakers1_1_cut.png,0,74,74,115,,,2.nein,7.625,None,act,1.678,None,None,None,None,None,,['return'],[1.0169288944089203],2017_Feb_08_1028,60.0229125069,famFaceGrey,001,13,
132,./greyInner/LeonardoDiCaprio2_1_cut.png,0,75,75,131,,,1.ja,1.762,None,dummy,1.843,None,None,None,None,None,Leonardo DiCaprio,"['lshift', 'l', 'e', 'o', 'n', 'a', 'r', 'd', 'o', 'space', 'lshift', 'd', 'i', 'space', 'lshift', 'backspace', 'v', 'a', 'backspace', 'backspace', 'lshift', 'c', 'a', 'p', 'r', 'i', 'o', 'return']","[0.6668567828496634, 0.8833778363455167, 1.0168474160454934, 1.16670761970272, 1.6666367271104718, 1.9831352617829907, 2.1329845588879834, 2.4161889168899506, 2.5661976421320105, 2.782698165646252, 2.832393872827197, 2.9159435194551406, 3.0493364325052426, 3.299185023891823, 3.382473554817807, 3.5823245841397693, 3.6824977417022637, 3.9655615976435, 4.26553478035521, 4.4154793494049045, 4.58195921462584, 5.115167101218049, 5.365037505710006, 5.614935176583913, 5.781561317922296, 5.881234377967303, 6.097975487202348, 6.381321951169866]",2017_Feb_08_1028,60.0229125069,famFaceGrey,001,13,
75,./greyInner/GuentherJauch9_1_cut.png,0,76,76,74,,,1.ja,7.252,None,None,None,host,1.637,None,None,None,Günter Jauch,"['lshift', 'g', u'\xfc', 'n', 't', 'e', 'r', 'space', 'lshift', 'j', 'a', 'u', 'c', 'h', 'return']","[0.8500204658253097, 1.0665902780274337, 1.250006415619282, 1.4330889410121017, 1.566550821969031, 1.7663899823955944, 1.8662795695890964, 2.0495449401296355, 2.078005589287386, 2.199358630547522, 2.4160628499721497, 2.5494641033274092, 2.6658928360629943, 2.7159234385667332, 3.19913889558984]",2017_Feb_08_1028,60.0229125069,famFaceGrey,001,13,
181,./greyInner/SigmarGabriel1_2_cut.png,0,77,77,180,,,2.nein,2.007,None,None,None,None,None,polit,1.208,None,,['return'],[0.8169787437705054],2017_Feb_08_1028,60.0229125069,famFaceGrey,001,13,
110,./greyInner/JoachimLoew8_1_cut.png,0,78,78,109,,,1.ja,4.305,None,None,None,None,None,sport,5.941,None,Löw Fußballtrainer,"['lshift', 'f', 'u', u'\xdf', 'b', 'a', 'l', 'l', 't', 'r', 'a', 'i', 'n', 'e', 'r', 'lshift', '8', 'lshift', 'l', 'backspace', 'space', 'lshift', 'l', u'\xf6', 'w', 'backspace', 'backspace', 'backspace', 'backspace', 'backspace', 'backspace', 'backspace', 'backspace', 'backspace', 'backspace', 'backspace', 'backspace', 'backspace', 'backspace', 'backspace', 'backspace', 'backspace', 'backspace', 'backspace', 'backspace', 'lshift', 'j', 'o', 'g', 'i', 'backspace', 'backspace', 'backspace', 'backspace', 'backspace', 'lshift', 'l', u'\xf6', 'w', 'space', 'lshift', 'f', 'u', u'\xdf', 'b', 'a', 'l', 'l', 't', 'r', 'a', 'i', 'n', 'e', 'r', 'return']","[0.9163550814269001, 1.1165881608726522, 1.2666555890305062, 2.2325729327590125, 2.565824253093524, 2.666014091265879, 2.8158409337033845, 2.9493413083755513, 3.315698827737833, 3.4157035752959928, 3.532252280110697, 3.6990500392635113, 3.8987461313813583, 4.115440085814953, 4.231776112852913, 15.22764060471036, 15.41103300451141, 17.859966600286043, 18.043242235817615, 18.759584935099156, 19.15940504113678, 19.625867070935783, 19.925908900773265, 20.24236220533021, 20.842085627986307, 21.342039435528022, 21.608205833594184, 23.141246272525223, 23.2578007513971, 24.274285364176194, 24.457289619014773, 24.607304118314005, 24.77400051068298, 24.923960477219225, 25.073852758972862, 25.2237136041922, 25.390314403834964, 25.556458090608885, 25.707027220189048, 25.856781566129484, 26.006997195091117, 26.190019734444377, 26.35616823293276, 26.52439731673121, 26.656210704331897, 26.93981860478243, 27.17298337841339, 27.33957808321793, 27.806019903816832, 27.872661827578668, 28.47247635202757, 28.63909254915643, 28.805665120074536, 28.955749549623306, 29.08886306245722, 29.27208127819631, 29.58876105411173, 30.171885665966784, 30.6882971406867, 34.286971930382606, 35.05335710106374, 35.53641184682556, 35.80306262414206, 36.169347326226216, 36.4693224336238, 36.57033796198857, 36.70265080554509, 36.83573352340636, 37.019247819972406, 37.135529955809034, 37.318974001344486, 37.55218689212006, 37.75192276107691, 38.00216334679726, 38.10166703449522, 42.533338123661906]",2017_Feb_08_1028,60.0229125069,famFaceGrey,001,13,
10,./greyInner/AngelaMerkel6_1_cut.png,0,79,79,9,,,1.ja,17.695,None,None,None,None,None,polit,2.308,None,Angela Merkel,"['lshift', 'a', 'n', 'g', 'e', 'l', 'a', 'space', 'lshift', 'm', 'e', 'r', 'k', 'e', u'\xf6', 'l', 'backspace', 'backspace', 'l', 'return']","[1.133420500212651, 1.9331774765573755, 2.5328617639356708, 2.699539871789966, 2.766051558482104, 2.9660745263986428, 3.0821410974299397, 3.1985544326794297, 3.4486237213668574, 3.5657973074926304, 3.6657648444597726, 3.7824049718483366, 4.015554668774257, 4.115606250352812, 4.382354545080943, 4.78193887711268, 4.965183717671607, 5.365232540533725, 5.581491836765963]",2017_Feb_08_1028,60.0229125069,famFaceGrey,001,13,
106,./greyInner/JoachimLoew1_1_cut.png,0,80,80,105,,,1.ja,2.27,None,None,None,None,None,sport,1.489,None,Löw,"['lshift', 'l', u'\xf6', 'w', 'return']","[1.533217830801732, 1.9496110851632693, 2.3494552497727454, 2.549423043364186, 4.232217186673552]",2017_Feb_08_1028,60.0229125069,famFaceGrey,001,13,
195,./greyInner/TomCruise7_1_cut.png,0,81,81,194,,,2.nein,5.121,None,act,0.814,None,None,None,None,None,,['return'],[0.9167634355899281],2017_Feb_08_1028,60.0229125069,famFaceGrey,001,13,
102,./greyInner/JimParsons(SheldonCooper)10_1_cut.png,0,82,82,101,,,2.nein,1.829,None,None,None,host,1.829,None,None,None,,['return'],[0.8838994261873268],2017_Feb_08_1028,60.0229125069,famFaceGrey,001,13,
153,./greyInner/NeilPatrickHarris(Barney)13_4_cut.png,0,83,83,152,,,2.nein,2.103,None,None,None,music,1.108,None,None,None,,['return'],[2.6495076653814067],2017_Feb_08_1028,60.0229125069,famFaceGrey,001,13,
118,./greyInner/JudithRakers4_3_cut.png,0,84,84,117,,,2.nein,2.612,None,None,None,host,1.695,None,None,None,,['return'],[0.8836912393435341],2017_Feb_08_1028,60.0229125069,famFaceGrey,001,13,
149,./greyInner/MilaKunis5_2_cut.png,0,85,85,148,,,2.nein,3.759,None,None,None,music,4.026,None,None,None,,['return'],[0.9168571036302637],2017_Feb_08_1028,60.0229125069,famFaceGrey,001,13,
211,./greyInner/notfamousface10_4_cut.png,0,86,86,210,,,2.nein,3.213,None,None,None,host,6.712,None,None,None,,['return'],[1.533071875465339],2017_Feb_08_1028,60.0229125069,famFaceGrey,001,13,
54,./greyInner/DannFlorek(DonaldDonCragen)5_1_cut.png,0,87,87,53,,,2.nein,1.761,None,None,None,None,None,polit,0.861,None,,['return'],[0.800352345806914],2017_Feb_08_1028,60.0229125069,famFaceGrey,001,13,
198,./greyInner/UrsulavonderLeyen5_1_cut.png,0,88,88,197,,,2.nein,1.943,None,None,None,None,None,polit,1.175,None,,['return'],[0.7999702956831243],2017_Feb_08_1028,60.0229125069,famFaceGrey,001,13,
150,./greyInner/MilaKunis7_3_cut.png,0,89,89,149,,,2.nein,4.152,None,None,None,music,1.192,None,None,None,,['return'],[0.9833848293701521],2017_Feb_08_1028,60.0229125069,famFaceGrey,001,13,
37,./greyInner/CarenMiosga13_1_cut.png,0,90,90,36,,,2.nein,4.682,None,act,2.327,None,None,None,None,None,,['return'],[0.7838606758473361],2017_Feb_08_1028,60.0229125069,famFaceGrey,001,13,
95,./greyInner/JanHofer9_2_cut.png,0,91,91,94,,,2.nein,1.746,None,None,None,host,2.296,None,None,None,,['return'],[0.8171577395464737],2017_Feb_08_1028,60.0229125069,famFaceGrey,001,13,
112,./greyInner/JoshRadnor(Ted)3_1_cut.png,0,92,92,111,,,2.nein,2.696,None,act,1.329,None,None,None,None,None,,['return'],[1.5832625476682551],2017_Feb_08_1028,60.0229125069,famFaceGrey,001,13,
89,./greyInner/Ice-T(OdafinFinTutuola)6_1_cut.png,0,93,93,88,,,2.nein,3.528,None,None,None,music,2.219,None,None,None,,['return'],[1.5833517247751843],2017_Feb_08_1028,60.0229125069,famFaceGrey,001,13,
20,./greyInner/BastianSchweinsteiger6_2_cut.png,0,94,94,19,,,2.nein,2.262,None,None,None,None,None,sport,1.355,None,Schweinsteiger,"['lshift', 's', 'c', 'h', 'w', 'e', 'i', 'n', 's', 't', 'e', 'i', 'g', 'e', 'r', 'return']","[0.9833187484923656, 1.233323560206827, 1.316412886155831, 1.4333147708084653, 1.6497896318460334, 1.7662860493642256, 1.9830983719725737, 2.2661625486944104, 2.4825581768350276, 2.6661969364135985, 2.8659860550101257, 2.982371803096612, 3.282489016459749, 3.449122214979525, 3.5490531829168503, 3.6823498616790857]",2017_Feb_08_1028,60.0229125069,famFaceGrey,001,13,
71,./greyInner/GuentherJauch2_1_cut.png,0,95,95,70,,,2.nein,2.679,None,None,None,host,5.927,None,None,None,,['return'],[1.0667365541453364],2017_Feb_08_1028,60.0229125069,famFaceGrey,001,13,
73,./greyInner/GuentherJauch4_1_cut.png,0,96,96,72,,,1.ja,3.278,None,None,None,host,4.094,None,None,None,Günter Jauch,"['lshift', 'g', u'\xfc', 'n', 't', 'e', 'r', 'space', 'lshift', 'j', 'a', 'u', 'c', 'h', 'return']","[0.8168982277493342, 1.0501752747168211, 1.2165810395354129, 1.4001639832267756, 1.5166879879075168, 1.6998622566552513, 1.7999087057382894, 1.9497124519466524, 1.999809135328178, 2.1664670339819168, 2.349873868926352, 2.449539551008911, 2.6661484984883828, 2.732838539394379, 3.2660801079873636]",2017_Feb_08_1028,60.0229125069,famFaceGrey,001,13,
105,./greyInner/JimParsons(SheldonCooper)9_3_cut.png,0,97,97,104,,,2.nein,1.509,None,None,None,None,None,sport,4.098,None,,['return'],[0.8168247689095551],2017_Feb_08_1028,60.0229125069,famFaceGrey,001,13,
8,./greyInner/AngelaMerkel4_1_cut.png,0,98,98,7,,,1.ja,1.56,None,None,None,None,None,polit,1.377,None,Angela Merkel,"['lshift', 'a', 'n', 'g', 'e', 'l', 'a', 'space', 'lshift', 'm', 'e', 'r', 'k', 'e', 'l', 'return']","[0.43349184189855805, 0.666765681056404, 0.8499572719756543, 1.0330593650073752, 1.0999527810422478, 1.2997714114871997, 1.4164272571429137, 1.5662361358467933, 1.6997223961566306, 1.8162948387625875, 1.949490792303095, 2.049448385060259, 2.1995834980007203, 2.3161264287582526, 2.5659297900292586, 2.8825643358291018]",2017_Feb_08_1028,60.0229125069,famFaceGrey,001,13,
109,./greyInner/JoachimLoew4_1_cut.png,0,99,99,108,,,1.ja,2.187,None,None,None,None,None,sport,0.926,None,Löw,"['lshift', 'l', u'\xf6', 'w', 'return']","[0.8999923654127997, 1.0998084296102206, 1.5662897062670709, 1.7498171548522805, 2.199662410117071]",2017_Feb_08_1028,60.0229125069,famFaceGrey,001,13,
199,./greyInner/UrsulavonderLeyen7_1_cut.png,0,100,100,198,,,2.nein,1.68,None,act,0.864,None,None,None,None,None,,['return'],[0.9500720474038644],2017_Feb_08_1028,60.0229125069,famFaceGrey,001,13,
123,./greyInner/KaleyCuoco(Penny)3_1_cut.png,0,101,101,122,,,2.nein,2.013,None,None,None,host,5.394,None,None,None,,['return'],[0.7001602621680831],2017_Feb_08_1028,60.0229125069,famFaceGrey,001,13,
44,./greyInner/CobieSmulders(Robin)4_7_cut.png,0,102,102,43,,,2.nein,3.612,None,None,None,music,1.683,None,None,None,,['return'],[0.8335108321316511],2017_Feb_08_1028,60.0229125069,famFaceGrey,001,13,
9,./greyInner/AngelaMerkel5_1_cut.png,0,103,103,8,,,1.ja,1.328,None,None,None,None,None,polit,1.228,None,Angela Merkel,"['lshift', 'a', 'n', 'g', 'e', 'l', 'a', 'space', 'lshift', 'm', 'e', 'r', 'k', 'e', 'l', 'return']","[0.3506848031943264, 0.5006364294254126, 0.7338576605056915, 0.933672762360402, 1.0170671510031752, 1.150386284432443, 1.2837352504911905, 1.466885139886017, 1.5833000790403275, 1.700205171502148, 1.8500631296928987, 1.9334247986776063, 2.116759778686628, 2.2334043970085986, 2.3831959535405076, 2.6163004203513083]",2017_Feb_08_1028,60.0229125069,famFaceGrey,001,13,
202,./greyInner/Usher11_1_cut.png,0,104,104,201,,,1.ja,3.011,None,None,None,music,1.079,None,None,None,Usher,"['lshift', 'u', 's', 'h', 'e', 'r', 'return']","[0.5667015890207949, 0.7829948880348638, 0.9831968517273708, 1.1333640427642422, 1.299764033525662, 1.5163239015178078, 1.8329302185929919]",2017_Feb_08_1028,60.0229125069,famFaceGrey,001,13,
194,./greyInner/TomCruise6_1_cut.png,0,105,105,193,,,1.ja,3.869,None,act,1.246,None,None,None,None,None,,['return'],[4.948501824602317],2017_Feb_08_1028,60.0229125069,famFaceGrey,001,13,
197,./greyInner/UrsulavonderLeyen4_1_cut.png,0,106,106,196,,,2.nein,1.864,None,None,None,None,None,polit,0.862,None,,['return'],[1.0841418082809469],2017_Feb_08_1028,60.0229125069,famFaceGrey,001,13,
120,./greyInner/JudithRakers8_1_cut.png,0,107,107,119,,,2.nein,3.906,None,None,None,music,1.791,None,None,None,,['return'],[0.9666269112130976],2017_Feb_08_1028,60.0229125069,famFaceGrey,001,13,
84,./greyInner/HughLaurie(DrHouse)8_1_cut.png,0,108,108,83,,,2.nein,3.209,None,None,None,music,1.742,None,None,None,,['return'],[0.983307521158622],2017_Feb_08_1028,60.0229125069,famFaceGrey,001,13,
146,./greyInner/MilaKunis1_3_cut.png,0,109,109,145,,,2.nein,2.231,None,None,None,music,4.141,None,None,None,,['return'],[0.8499601590051498],2017_Feb_08_1028,60.0229125069,famFaceGrey,001,13,
182,./greyInner/SigmarGabriel11_3_cut.png,0,110,110,181,,,2.nein,1.551,None,None,None,host,1.224,None,None,None,,['return'],[0.8335974429910493],2017_Feb_08_1028,60.0229125069,famFaceGrey,001,13,
39,./greyInner/CarenMiosga6_2_cut.png,0,111,111,38,,,2.nein,2.313,None,None,None,music,5.245,None,None,None,,['return'],[0.733461816801082],2017_Feb_08_1028,60.0229125069,famFaceGrey,001,13,
59,./greyInner/ElvisPresley5_2_cut.png,0,112,112,58,,,1.ja,1.748,None,None,None,music,1.365,None,None,None,Elvis Presley,"['lshift', 'e', 'l', 'v', 'i', 's', 'space', 'lshift', 'p', 'r', 'e', 's', 'l', 'e', 'y', 'return']","[0.5169734829628396, 0.7835277052099627, 1.2165887382789151, 1.449806761549553, 1.566572314293353, 1.6664878847445834, 1.8163891483650332, 1.933019652324674, 2.1495609150215387, 2.249667991705792, 2.4494256737684736, 2.6327170275667413, 2.966038278150336, 3.0325855715291254, 3.2325896133693277, 3.5490259165353564]",2017_Feb_08_1028,60.0229125069,famFaceGrey,001,13,
2,./greyInner/AlysonHannigan(Lily)12_2_cut.png,0,113,113,1,,,2.nein,1.902,None,None,None,music,5.036,None,None,None,,['return'],[0.7669086852083637],2017_Feb_08_1028,60.0229125069,famFaceGrey,001,13,
122,./greyInner/KaleyCuoco(Penny)14_2_cut.png,0,114,114,121,,,2.nein,1.709,None,None,None,host,1.027,None,None,None,,['return'],[0.8832812812761404],2017_Feb_08_1028,60.0229125069,famFaceGrey,001,13,
80,./greyInner/GeorgeClooney4_2_cut.png,0,115,115,79,,,1.ja,15.145,None,act,1.317,None,None,None,None,None,,['return'],[17.493399931737713],2017_Feb_08_1028,60.0229125069,famFaceGrey,001,13,
124,./greyInner/KaleyCuoco(Penny)5_2_cut.png,0,116,116,123,,,2.nein,2.552,None,None,None,host,1.052,None,None,None,,['return'],[0.9998960669686312],2017_Feb_08_1028,60.0229125069,famFaceGrey,001,13,
85,./greyInner/HughLaurie(DrHouse)9_2_cut.png,0,117,117,84,,,2.nein,3.271,None,None,None,None,None,polit,3.221,None,,['return'],[0.9337728460200196],2017_Feb_08_1028,60.0229125069,famFaceGrey,001,13,
14,./greyInner/BarackObama4_1_cut.png,0,118,118,13,,,1.ja,1.696,None,None,None,None,None,polit,0.73,None,Barack Obama,"['lshift', 'b', 'a', 'r', 'a', 'k', 'space', 'backspace', 'backspace', 'c', 'k', 'space', 'lshift', 'o', 'b', 'a', 'm', 'a', 'return']","[0.8834262742702776, 1.699938602524071, 1.9496515035643824, 2.2328686928049137, 2.3827969020258024, 2.682565426484871, 2.916029167970919, 3.3325183358397226, 3.498997238717493, 3.748855774314052, 3.865717561346173, 4.198791489809537, 4.3153164568329885, 4.448542563784031, 4.748650153718245, 5.048407771624625, 5.39841540621137, 5.515170373183537, 5.9312422050224995]",2017_Feb_08_1028,60.0229125069,famFaceGrey,001,13,
158,./greyInner/NicoleKidman5_1_cut.png,0,119,119,157,,,1.ja,5.745,None,dummy,0.859,None,None,None,None,None,,['return'],[0.8333539702421149],2017_Feb_08_1028,60.0229125069,famFaceGrey,001,13,
40,./greyInner/CarenMiosga9_1_cut.png,0,120,120,39,,,2.nein,4.562,None,None,None,None,None,polit,1.927,None,,['return'],[0.8672146460885415],2017_Feb_08_1028,60.0229125069,famFaceGrey,001,13,
127,./greyInner/KatjaBurkard10_1_cut.png,0,121,121,126,,,2.nein,4.37,None,None,None,host,1.846,None,None,None,,['return'],[0.9835644667082306],2017_Feb_08_1028,60.0229125069,famFaceGrey,001,13,
184,./greyInner/SigmarGabriel4_5_cut.png,0,122,122,183,,,2.nein,1.537,None,None,None,None,None,polit,3.093,None,,['return'],[0.7503130822174171],2017_Feb_08_1028,60.0229125069,famFaceGrey,001,13,
131,./greyInner/LeonardoDiCaprio1_1_cut.png,0,123,123,130,,,1.ja,1.546,None,act,1.021,None,None,None,None,None,Leonardo DiCaprio,"['lshift', 'l', 'e', 'o', 'n', 'a', 'r', 'd', 'o', 'space', 'lshift', 'd', 'i', 'lshift', 'c', 'a', 'p', 'r', 'i', 'o', 'return']","[0.7834253760834144, 1.0167274439659195, 1.1332312394461042, 1.2665522975617023, 1.5831294235695168, 1.7164270646744626, 1.8497654449615766, 2.182875300892647, 2.366164730005039, 2.6326807793179796, 2.6591708710357125, 2.766051879263159, 2.9665425458201753, 3.349033743590553, 3.5656577677750647, 3.798926795218449, 3.9987813531311076, 4.132112034675174, 4.215479156936453, 4.481931050057028, 4.815239469402513]",2017_Feb_08_1028,60.0229125069,famFaceGrey,001,13,
186,./greyInner/TaylorSwift1_2_cut.png,0,124,124,185,,,1.ja,1.776,None,None,None,music,0.65,None,None,None,Taylor Swift,"['lshift', 't', 'a', 'y', 'l', 'o', 'r', 'space', 'lshift', 's', 'w', 'i', 'f', 't', 'return']","[0.6508963261599092, 0.8334158809670953, 1.1164014663536364, 1.499828382186024, 1.9328028043955783, 2.099681079569109, 2.216198347849513, 2.3659982446865797, 2.4493352135373243, 2.5661325235964796, 2.982630031769986, 3.2325177584339144, 3.6489013893665287, 3.8822047403727993, 4.298386600080903]",2017_Feb_08_1028,60.0229125069,famFaceGrey,001,13,
215,./greyInner/notfamousface13_1_cut.png,0,125,125,214,,,2.nein,1.777,None,dummy,1.279,None,None,None,None,None,,['return'],[1.0165121999416442],2017_Feb_08_1028,60.0229125069,famFaceGrey,001,13,
167,./greyInner/RobertSeanLeonard(Wilson)10_1_cut.png,0,126,126,166,,,2.nein,1.655,None,None,None,host,4.703,None,None,None,,['return'],[0.8333709716325757],2017_Feb_08_1028,60.0229125069,famFaceGrey,001,13,
4,./greyInner/AlysonHannigan(Lily)5_4_cut.png,0,127,127,3,,,2.nein,3.119,None,None,None,None,None,sport,1.384,None,,['return'],[0.8330450581770492],2017_Feb_08_1028,60.0229125069,famFaceGrey,001,13,
136,./greyInner/LisaEdelstein(DrLisaCuddy)1_1_cut.png,0,128,128,135,,,2.nein,1.996,None,dummy,0.729,None,None,None,None,None,,['return'],[0.9002743318774264],2017_Feb_08_1028,60.0229125069,famFaceGrey,001,13,
61,./greyInner/EmilyDeschanel15_1_cut.png,0,129,129,60,,,2.nein,1.91,None,dummy,5.576,None,None,None,None,None,,['return'],[0.8833252282679496],2017_Feb_08_1028,60.0229125069,famFaceGrey,001,13,
206,./greyInner/WillSmith1_1_cut.png,0,130,130,205,,,1.ja,1.397,None,act,0.68,None,None,None,None,None,Will Smith,"['lshift', 'w', 'i', 'l', 'l', 'space', 'lshift', 's', 'm', 'i', 't', 'h', 'return']","[0.8501208702659824, 1.0833722547567959, 1.2501241422319254, 1.4664937871143593, 1.6164585653650647, 1.7331073538393866, 1.7995359582628225, 1.8997533835977265, 2.166300227882857, 2.3661676170340797, 2.6659682195891037, 2.7495210740262337, 3.2826385003877476]",2017_Feb_08_1028,60.0229125069,famFaceGrey,001,13,
26,./greyInner/Beyonce1_1_cut.png,0,131,131,25,,,1.ja,1.935,None,None,None,music,0.875,None,None,None,Beoncey,"['lshift', 'b', 'e', 'o', 'n', 'c', 'e', 'y', 'return']","[0.7000053249639677, 0.8834403886326072, 1.0001773918711478, 1.4996269317430233, 1.7833191975860245, 2.2164459907512537, 2.332974165584801, 2.6162243952639983, 4.315501868228239]",2017_Feb_08_1028,60.0229125069,famFaceGrey,001,13,
18,./greyInner/BastianSchweinsteiger14_1_cut.png,0,132,132,17,,,1.ja,2.052,None,None,None,None,None,sport,2.512,None,Schweinsteiger,"['lshift', 's', 'c', 'h', 'w', 'e', 'i', 'n', 's', 't', 'e', 'i', 'g', 'e', 'r', 'return']","[0.6835669046431576, 0.9169193351362992, 1.0168108470156767, 1.1167671566486206, 1.2833740511296128, 1.4332624835114984, 1.6333370971633485, 1.8331435379313916, 2.01637650959492, 2.20051793293851, 2.399735419863646, 2.532948374795069, 2.8161902641695633, 3.0157670257699465, 3.0658232907508136, 3.2325581768350276]",2017_Feb_08_1028,60.0229125069,famFaceGrey,001,13,
60,./greyInner/ElvisPresley6_1_cut.png,0,133,133,59,,,1.ja,1.695,None,None,None,music,1.112,None,None,None,Elvis Presley,"['lshift', 'e', 'l', 'w', 'i', 's', 'space', 'lshift', 'backspace', 'backspace', 'backspace', 'backspace', 'v', 'i', 's', 'backspace', 'backspace', 'backspace', 'v', 'o', 'backspace', 'i', 's', 'space', 'lshift', 'p', 'r', 'e', 's', 'l', 'e', 'y', 'return']","[0.7170490589569454, 0.8503450961570707, 1.066858130129276, 1.6334715043858523, 1.7499855648566154, 1.899910887048918, 2.1165217592142653, 2.4495263989897467, 2.8161540159208016, 2.96603603268386, 3.132736915986243, 3.299272597093932, 3.615977393923913, 3.765759647807954, 4.015693566930167, 4.349060689191447, 4.498889777095428, 4.632032480996713, 5.315202900373151, 5.76482649599393, 6.231334397470619, 6.531415362584994, 6.697952006035848, 6.847960410496853, 6.981249390516041, 7.0977624886440935, 7.264576928406768, 7.4642650010009675, 7.647582658838019, 7.897448572396115, 8.014402102783151, 8.230804788104706, 8.596943214070961]",2017_Feb_08_1028,60.0229125069,famFaceGrey,001,13,
100,./greyInner/JasonSegel(Marshall)9_1_cut.png,0,134,134,99,,,2.nein,1.879,None,None,None,None,None,sport,1.009,None,,['return'],[1.1505967167427116],2017_Feb_08_1028,60.0229125069,famFaceGrey,001,13,
29,./greyInner/Beyonce5_3_cut.png,0,135,135,28,,,1.ja,2.063,None,None,None,music,0.891,None,None,None,Beoncey,"['lshift', 'b', 'e', 'o', 'n', 'c', 'e', 'y', 'return']","[0.6499711938695327, 0.833319646678774, 0.9000606917575169, 1.2664881413693365, 1.5331536746098209, 1.9329843664190776, 2.0494868787754967, 2.3493923767046, 2.5326458783492853]",2017_Feb_08_1028,60.0229125069,famFaceGrey,001,13,
19,./greyInner/BastianSchweinsteiger3_1_cut.png,0,136,136,18,,,1.ja,1.778,None,None,None,None,None,sport,1.695,None,Sebastian Schweinsteiger,"['lshift', 's', 'e', 'b', 'a', 's', 'i', 'backspace', 't', 'i', 'a', 'n', 'space', 'lshift', 's', 'c', 'h', 'w', 'e', 'i', 'n', 's', 't', 'e', 'i', 'g', 'e', 'r', 'return']","[0.6504947083972183, 0.8501875927058791, 1.0836676940211873, 1.383513847472841, 1.4835237275260624, 1.6666351232056513, 2.4497163013188583, 2.7829849438248857, 2.882875814142153, 2.9995634171127676, 3.2994490266223693, 3.549500672357226, 3.682443529719876, 3.7491464018644365, 3.9157988472416037, 4.065566024420605, 4.149030343312916, 4.36544874690162, 4.465585656215353, 4.598703659982675, 4.848693394991642, 5.048846279197733, 5.232056475412719, 5.39856906029172, 5.515307025872971, 5.7317392230429505, 5.9317824001605, 6.014989452722148, 6.448144795393091]",2017_Feb_08_1028,60.0229125069,famFaceGrey,001,13,
70,./greyInner/EmmaWatson(HermioneGranger)9_1_cut.png,0,137,137,69,,,1.ja,2.561,None,act,1.095,None,None,None,None,None,Emma Watson,"['lshift', 'e', 'm', 'm', 'a', 'space', 'lshift', 'w', 'a', 't', 's', 'o', 'n', 'return']","[0.633510960444255, 0.8333863691191254, 1.0999906331962848, 1.21655762252567, 1.3332654346968411, 1.7331063914966762, 1.86630587362788, 2.132954726258504, 2.4660780549897936, 2.699409313939668, 2.88263619076497, 3.049331941571836, 3.249061715690914, 3.415882571072416]",2017_Feb_08_1028,60.0229125069,famFaceGrey,001,13,
147,./greyInner/MilaKunis10_1_cut.png,0,138,138,146,,,2.nein,1.962,None,None,None,music,2.479,None,None,None,,['return'],[1.0003756345049624],2017_Feb_08_1028,60.0229125069,famFaceGrey,001,13,
190,./greyInner/TaylorSwift8_1_cut.png,0,139,139,189,,,1.ja,1.462,None,None,None,music,1.344,None,None,None,Taylor Swift,"['lshift', 't', 'a', 'y', 'l', 'o', 'r', 'space', 'lshift', 's', 'w', 'i', 'f', 't', 'return']","[0.46684279679948304, 1.1334596354904534, 1.4162440912150487, 1.7163754189400606, 2.0329265616901466, 2.2159061163947626, 2.2994098913454764, 2.4827573818115525, 2.5993202009885863, 2.71599016100663, 3.032378667809553, 3.1991151577985875, 3.8156019518883113, 4.015508797097482, 4.298766725519272]",2017_Feb_08_1028,60.0229125069,famFaceGrey,001,13,
88,./greyInner/Ice-T(OdafinFinTutuola)5_1_cut.png,0,140,140,87,,,1.ja,5.477,None,act,0.946,None,None,None,None,None,,['return'],[1.0838976939694476],2017_Feb_08_1028,60.0229125069,famFaceGrey,001,13,
157,./greyInner/NicoleKidman3_1_cut.png,0,141,141,156,,,1.ja,6.943,None,act,1.162,None,None,None,None,None,,['return'],[1.000281966464172],2017_Feb_08_1028,60.0229125069,famFaceGrey,001,13,
1,./greyInner/AlysonHannigan(Lily)1_1_cut.png,0,142,142,0,,,2.nein,2.24,None,None,None,host,0.859,None,None,None,,['return'],[0.8169107382068432],2017_Feb_08_1028,60.0229125069,famFaceGrey,001,13,
50,./greyInner/CristinMilioti(Tracy_Mutter)9_1_cut.png,0,143,143,49,,,2.nein,2.001,None,dummy,1.252,None,None,None,None,None,,['return'],[0.7836794346039824],2017_Feb_08_1028,60.0229125069,famFaceGrey,001,13,
138,./greyInner/LisaEdelstein(DrLisaCuddy)2_2_cut.png,0,144,144,137,,,2.nein,3.174,None,None,None,music,0.775,None,None,None,,['return'],[0.6501716819698231],2017_Feb_08_1028,60.0229125069,famFaceGrey,001,13,
223,./greyInner/notfamousface8_9_cut.png,0,145,145,222,,,2.nein,1.869,None,act,0.801,None,None,None,None,None,,['return'],[1.1999957015350446],2017_Feb_08_1028,60.0229125069,famFaceGrey,001,13,
24,./greyInner/BenedictCumberbatch4_1_cut.png,0,146,146,23,,,1.ja,3.771,None,act,0.865,None,None,None,None,None,,['return'],[7.547721941931286],2017_Feb_08_1028,60.0229125069,famFaceGrey,001,13,
159,./greyInner/NicoleKidman7_1_cut.png,0,147,147,158,,,2.nein,2.478,None,None,None,host,4.094,None,None,None,,['return'],[0.7504737934782497],2017_Feb_08_1028,60.0229125069,famFaceGrey,001,13,
77,./greyInner/GeorgeClooney15_1_cut.png,0,148,148,76,,,1.ja,5.187,None,act,0.776,None,None,None,None,None,,['return'],[0.699984153420246],2017_Feb_08_1028,60.0229125069,famFaceGrey,001,13,
224,./greyInner/notfamousface9_1_cut.png,0,149,149,223,,,2.nein,6.991,None,act,0.711,None,None,None,None,None,,['return'],[0.7668480576071488],2017_Feb_08_1028,60.0229125069,famFaceGrey,001,13,
148,./greyInner/MilaKunis4_1_cut.png,0,150,150,147,,,2.nein,3.719,None,act,1.079,None,None,None,None,None,,['return'],[0.716854986475937],2017_Feb_08_1028,60.0229125069,famFaceGrey,001,13,
203,./greyInner/Usher2_1_cut.png,0,151,151,202,,,1.ja,2.378,None,None,None,music,0.762,None,None,None,Usher,"['lshift', 'u', 's', 'h', 'e', 'r', 'return']","[0.7340475628348031, 0.933875495927623, 1.1504744991971165, 1.3004181059041002, 1.5001950348241735, 1.583725113813216, 2.066895340720748]",2017_Feb_08_1028,60.0229125069,famFaceGrey,001,13,
196,./greyInner/UrsulavonderLeyen1_1_cut.png,0,152,152,195,,,2.nein,3.006,None,None,None,None,None,polit,1.479,None,,['return'],[0.883442313318028],2017_Feb_08_1028,60.0229125069,famFaceGrey,001,13,
43,./greyInner/CobieSmulders(Robin)3_4_cut.png,0,153,153,42,,,2.nein,2.518,None,None,None,host,0.909,None,None,None,,['return'],[0.7500927056976252],2017_Feb_08_1028,60.0229125069,famFaceGrey,001,13,
207,./greyInner/WillSmith14_1_cut.png,0,154,154,206,,,1.ja,1.276,None,None,None,music,1.493,None,None,None,Will Smith,"['lshift', 'w', 'i', 'l', 'l', 'space', 'lshift', 's', 'm', 'i', 'o', 'backspace', 't', 'h', 'return']","[1.466441179037247, 1.6829923859431801, 1.7996366834845503, 2.0162924649839624, 2.133733582430523, 2.2828187792874814, 2.365956543162156, 2.4826470331613564, 2.7325549690258413, 2.9158203395659257, 3.3655106576270555, 3.8322825618338356, 3.93218016855144, 4.98169110589879]",2017_Feb_08_1028,60.0229125069,famFaceGrey,001,13,
11,./greyInner/BarackObama1_3_cut.png,0,155,155,10,,,1.ja,2.26,None,None,None,None,None,polit,1.134,None,Barack Obama,"['lshift', 'b', 'a', 'r', 'a', 'c', 'k', 'space', 'lshift', 'o', 'b', 'a', 'n', 'a', 'backspace', 'backspace', 'm', 'a', 'return']","[0.750263361168436, 1.0170129390207876, 1.2333944527990752, 1.4668039823031904, 1.6000162956725035, 1.8332567736106284, 1.9662509559270802, 2.0664658150144533, 2.1663861971801452, 2.2663989642624074, 2.5330401181499838, 2.616220545892247, 2.932753083346597, 3.016263273916138, 3.2661202056078764, 3.4158928360629943, 3.6824967793590986, 3.799042597145217, 4.1156845209070525]",2017_Feb_08_1028,60.0229125069,famFaceGrey,001,13,
6,./greyInner/AngelaMerkel1_1_cut.png,0,156,156,5,,,1.ja,1.768,None,None,None,None,None,polit,0.777,None,Angela Merkel,"['lshift', 'a', 'n', 'g', 'e', 'l', 'a', 'space', 'lshift', 'm', 'e', 'r', 'k', 'e', 'l', 'return']","[0.5668494690435182, 0.7834985141425932, 1.0167361050521322, 1.200058574603645, 1.2667030646130115, 1.4665707745448344, 1.550058831228398, 1.8999464937360244, 2.0331325030670087, 2.149646884318827, 2.2996793473521393, 2.383032034470034, 2.5661912265127285, 2.682836165615754, 2.8162027746270724, 3.0326449160070297]",2017_Feb_08_1028,60.0229125069,famFaceGrey,001,13,
140,./greyInner/LisaEdelstein(DrLisaCuddy)9_1_cut.png,0,157,157,139,,,2.nein,2.862,None,None,None,None,None,sport,1.014,None,,['return'],[0.9834938948970375],2017_Feb_08_1028,60.0229125069,famFaceGrey,001,13,
90,./greyInner/Ice-T(OdafinFinTutuola)7_1_cut.png,0,158,158,89,,,2.nein,13.638,None,None,None,host,1.007,None,None,None,,['return'],[0.7503041003506041],2017_Feb_08_1028,60.0229125069,famFaceGrey,001,13,
162,./greyInner/OmarEpps(DrEricForeman)2_2_cut.png,0,159,159,161,,,2.nein,4.45,None,None,None,music,1.336,None,None,None,,['return'],[1.0164634412353735],2017_Feb_08_1028,60.0229125069,famFaceGrey,001,13,
173,./greyInner/SahraWagenknecht5_1_cut.png,0,160,160,172,,,2.nein,2.277,None,act,0.895,None,None,None,None,None,,['return'],[0.7337575768465285],2017_Feb_08_1028,60.0229125069,famFaceGrey,001,13,
139,./greyInner/LisaEdelstein(DrLisaCuddy)6_3_cut.png,0,161,161,138,,,2.nein,1.791,None,None,None,host,1.158,None,None,None,,['return'],[0.8500191827015442],2017_Feb_08_1028,60.0229125069,famFaceGrey,001,13,
82,./greyInner/HughLaurie(DrHouse)4_1_cut.png,0,162,162,81,,,2.nein,2.192,None,None,None,None,None,sport,1.209,None,,['return'],[0.9167669641801695],2017_Feb_08_1028,60.0229125069,famFaceGrey,001,13,
25,./greyInner/BenedictCumberbatch6_5_cut.png,0,163,163,24,,,1.ja,2.185,None,act,3.256,None,None,None,None,None,,['return'],[1.316864224967503],2017_Feb_08_1028,60.0229125069,famFaceGrey,001,13,
86,./greyInner/Ice-T(OdafinFinTutuola)10_1_cut.png,0,164,164,85,,,2.nein,7.877,None,act,0.914,None,None,None,None,None,,['return'],[1.4331947987288913],2017_Feb_08_1028,60.0229125069,famFaceGrey,001,13,
108,./greyInner/JoachimLoew15_1_cut.png,0,165,165,107,,,1.ja,1.612,None,None,None,None,None,sport,1.427,None,Löw,"['lshift', 'l', u'\xf6', 'g', 'backspace', 'w', 'return']","[0.8334293537673148, 1.0668254104712105, 1.3499120418605344, 1.7831199926090449, 2.034368792888472, 2.1829927067237804, 3.1994006528534555]",2017_Feb_08_1028,60.0229125069,famFaceGrey,001,13,
97,./greyInner/JasonSegel(Marshall)14_1_cut.png,0,166,166,96,,,2.nein,1.92,None,None,None,music,1.038,None,None,None,,['return'],[1.0832917387356247],2017_Feb_08_1028,60.0229125069,famFaceGrey,001,13,
67,./greyInner/EmmaWatson(HermioneGranger)16_1_cut.png,0,167,167,66,,,1.ja,1.555,None,dummy,1.112,None,None,None,None,None,Emma Watson,"['lshift', 'e', 'm', 'm', 'a', 'space', 'lshift', 'w', 'a', 't', 's', 'o', 'n', 'return']","[0.700186566206412, 0.8670035722166176, 1.1168595415651907, 1.2668499822925696, 1.350202027848809, 1.499784435194215, 1.6333236243626743, 1.8000838521429614, 2.0664747968812662, 2.2664570256160914, 2.4496271242114744, 2.649503174448, 2.816155619825622, 2.982801649583962]",2017_Feb_08_1028,60.0229125069,famFaceGrey,001,13,
96,./greyInner/JasonSegel(Marshall)11_1_cut.png,0,168,168,95,,,2.nein,2.654,None,None,None,music,2.212,None,None,None,,['return'],[0.8333238168311254],2017_Feb_08_1028,60.0229125069,famFaceGrey,001,13,
91,./greyInner/JanHofer1_3_cut.png,0,169,169,90,,,2.nein,1.956,None,None,None,None,None,polit,0.929,None,,['return'],[0.8503306610141408],2017_Feb_08_1028,60.0229125069,famFaceGrey,001,13,
125,./greyInner/KaleyCuoco(Penny)7_1_cut.png,0,170,170,124,,,1.ja,4.475,None,None,None,music,0.976,None,None,None,,['return'],[0.7833005922898337],2017_Feb_08_1028,60.0229125069,famFaceGrey,001,13,
165,./greyInner/OmarEpps(DrEricForeman)9_1_cut.png,0,171,171,164,,,2.nein,2.562,None,None,None,music,1.679,None,None,None,,['return'],[0.750625202091669],2017_Feb_08_1028,60.0229125069,famFaceGrey,001,13,
34,./greyInner/BritneySpears7_1_cut.png,0,172,172,33,,,1.ja,2.63,None,None,None,music,1.863,None,None,None,Britney Spears,"['lshift', 'b', 'r', 't', 'i', 'backspace', 'backspace', 'i', 't', 'n', 'e', 'y', 'space', 'lshift', 's', 'p', 'e', 'a', 'r', 's', 'return']","[0.35024533327850804, 0.6334545029949368, 0.9668437591421934, 1.183191590919705, 1.4831994179753565, 2.5827085589494345, 2.7655658961080007, 3.0658486324468868, 3.3490273279717258, 3.7487996376457886, 3.8655539630563, 4.082085602324241, 4.298655735306966, 4.398334890190199, 4.515222339699449, 4.79842541457765, 4.948316733988122, 5.148281640550977, 5.314916763756628, 5.514984961788741, 5.831537708443648]",2017_Feb_08_1028,60.0229125069,famFaceGrey,001,13,
79,./greyInner/GeorgeClooney3_1_cut.png,0,173,173,78,,,1.ja,5.944,None,dummy,0.847,None,None,None,None,None,,['return'],[1.1501306220070546],2017_Feb_08_1028,60.0229125069,famFaceGrey,001,13,
200,./greyInner/UrsulavonderLeyen8_2_cut.png,0,174,174,199,,,2.nein,1.976,None,None,None,host,2.959,None,None,None,,['return'],[0.6667868526001257],2017_Feb_08_1028,60.0229125069,famFaceGrey,001,13,
130,./greyInner/KatjaBurkard7_1_cut.png,0,175,175,129,,,2.nein,1.809,None,None,None,music,1.677,None,None,None,,['return'],[0.8671322053819495],2017_Feb_08_1028,60.0229125069,famFaceGrey,001,13,
156,./greyInner/NicoleKidman14_1_cut.png,0,176,176,155,,,1.ja,4.851,None,None,None,music,1.461,None,None,None,Madonna,"['lshift', 'm', 'a', 'd', 'o', 'n', 'n', 'a', 'return']","[0.9667667717121731, 1.150018669452038, 1.316686512315755, 1.5331504668006346, 1.6665959879287584, 1.8996670935193833, 2.0329531865099852, 2.132997710907148, 2.2491893865130805]",2017_Feb_08_1028,60.0229125069,famFaceGrey,001,13,
209,./greyInner/WillSmith5_1_cut.png,0,177,177,208,,,1.ja,1.623,None,act,0.88,None,None,None,None,None,Will Smith,"['lshift', 'w', 'i', 'l', 'l', 'space', 'lshift', 's', 'm', 'o', 'backspace', 'i', 't', 'h', 'return']","[0.8168716029299503, 1.0668481859197527, 1.2168687800572116, 1.4497961757779194, 1.5998976067176045, 1.7166920297481738, 1.799868608118686, 1.899976005584449, 2.083080985644756, 2.283081178113207, 2.6660224315710366, 2.949402898320386, 3.2992928062944884, 3.4493150043372225, 3.6992078634962127]",2017_Feb_08_1028,60.0229125069,famFaceGrey,001,13,
179,./greyInner/Shakira7_1_cut.png,0,178,178,178,,,1.ja,2.479,None,None,None,music,2.246,None,None,None,Shakira,"['lshift', 's', 'h', 'a', 'k', 'i', 'r', 'a', 'return']","[0.21686332678109466, 0.45016218685350395, 0.7502498883682165, 0.9168510087920367, 1.2000168730787664, 1.5166844593172755, 1.8829698029635438, 1.9830755965244862, 2.2326980373336482]",2017_Feb_08_1028,60.0229125069,famFaceGrey,001,13,
12,./greyInner/BarackObama11_2_cut.png,0,179,179,11,,,1.ja,1.31,None,None,None,None,None,polit,0.922,None,Barack Obama,"['lshift', 'b', 'a', 'r', 'a', 'k', 'backspace', 'c', 'k', 'space', 'lshift', 'o', 'b', 'a', 'm', 'a', 'return']","[0.7001637907583245, 0.900094694539348, 1.1497800084171104, 1.3832633175425144, 1.4999557322275905, 1.9164185960571558, 2.216461709018404, 2.4161080800872696, 2.516262953135083, 2.7328824863861882, 2.8659972823438693, 3.04946666957494, 3.3155647412963845, 3.565413011902365, 3.7823950276383584, 3.8657342419560337, 4.532083228544707]",2017_Feb_08_1028,60.0229125069,famFaceGrey,001,13,
98,./greyInner/JasonSegel(Marshall)6_1_cut.png,0,180,180,97,,,2.nein,2.049,None,None,None,host,2.718,None,None,None,,['return'],[0.9003144294974845],2017_Feb_08_1028,60.0229125069,famFaceGrey,001,13,
33,./greyInner/BritneySpears5_1_cut.png,0,181,181,32,,,1.ja,1.717,None,None,None,music,1.228,None,None,None,Britney Spears,"['lshift', 'b', 'r', 'i', 't', 'n', 'e', 'y', 'space', 'lshift', 's', 'p', 'e', 'a', 'r', 's', 'return']","[0.40018996648495886, 0.6831633621950459, 0.9000273305377959, 1.0514490959108116, 1.5331594486674476, 1.8996026165459625, 1.9995980614567088, 2.21635809676809, 2.4327184390031107, 2.53266159661689, 2.6493886556454527, 2.849217871862038, 2.982693867181297, 3.132562411143681, 3.3490571606007506, 3.5154391876285445, 3.732271719437449]",2017_Feb_08_1028,60.0229125069,famFaceGrey,001,13,
87,./greyInner/Ice-T(OdafinFinTutuola)12_1_cut.png,0,182,182,86,,,2.nein,2.379,None,act,1.513,None,None,None,None,None,,['return'],[1.0498387754892065],2017_Feb_08_1028,60.0229125069,famFaceGrey,001,13,
15,./greyInner/BarackObama5_2_cut.png,0,183,183,14,,,1.ja,1.345,None,None,None,None,None,polit,0.695,None,Barack Obama,"['lshift', 'b', 'a', 'r', 'a', 'c', 'k', 'space', 'lshift', 'm', 'o', 'backspace', 'backspace', 'o', 'backspace', 'lshift', 'o', 'b', 'a', 'm', 'a', 'return']","[0.7170102444606528, 0.8838724805864331, 1.1169830422354607, 1.3335512505327642, 1.4336182295969593, 1.7332885950822856, 1.8666805457896771, 2.0165952822103463, 2.1000015397485186, 2.2665311260184353, 2.4664148749980086, 2.7663992850434624, 2.8995875398409225, 3.1328251307504615, 3.9322154544570367, 4.0657982698357955, 4.232440771003439, 4.532390536704952, 4.782266715254536, 4.998745104882801, 5.082136606496988, 5.248690892900413]",2017_Feb_08_1028,60.0229125069,famFaceGrey,001,13,
143,./greyInner/MariskaHargitay(Liv)4_4_cut.png,0,184,184,142,,,2.nein,2.045,None,None,None,host,2.112,None,None,None,,['return'],[0.916829837248315],2017_Feb_08_1028,60.0229125069,famFaceGrey,001,13,
38,./greyInner/CarenMiosga2_11_cut.png,0,185,185,37,,,2.nein,4.145,None,act,5.373,None,None,None,None,None,,['return'],[0.7501687307853899],2017_Feb_08_1028,60.0229125069,famFaceGrey,001,13,
22,./greyInner/BenedictCumberbatch2_2_cut.png,0,186,186,21,,,1.ja,2.216,None,act,1.721,None,None,None,None,None,,['return'],[1.017019996201725],2017_Feb_08_1028,60.0229125069,famFaceGrey,001,13,
30,./greyInner/Beyonce8_3_cut.png,0,187,187,29,,,1.ja,2.894,None,None,None,music,1.38,None,None,None,Beyonce,"['lshift', 'b', 'e', 'y', 'o', 'n', 'c', 'e', 'return']","[0.5835464388183027, 0.7668422835499769, 0.8834002910125491, 1.599886379383861, 1.866324158142561, 2.0997285551516143, 2.3996523375953984, 2.4994123292804034, 2.6662890005495683]",2017_Feb_08_1028,60.0229125069,famFaceGrey,001,13,
188,./greyInner/TaylorSwift3_1_cut.png,0,188,188,187,,,1.ja,1.512,None,None,None,music,0.594,None,None,None,Taylor Swift,"['lshift', 't', 'a', 'y', 'l', 'o', 'r', 'space', 'lshift', 's', 'w', 'i', 'f', 't', 'return']","[0.7171045540630985, 0.8837047121442083, 1.1834652170787194, 1.4834076048182396, 1.9166238958719077, 2.0831076104641397, 2.19973618973836, 2.3664861525276137, 2.466324414767314, 2.5663224259251365, 2.8330360763097815, 3.066244155370896, 3.432651075001104, 3.599410661219281, 3.7825149997179324]",2017_Feb_08_1028,60.0229125069,famFaceGrey,001,13,
94,./greyInner/JanHofer7_1_cut.png,0,189,189,93,,,1.ja,7.638,None,None,None,host,7.455,None,None,None,,['return'],[0.9500168730787664],2017_Feb_08_1028,60.0229125069,famFaceGrey,001,13,
201,./greyInner/Usher1_1_cut.png,0,190,190,200,,,1.ja,1.921,None,None,None,music,1.683,None,None,None,Usher,"['lshift', 'u', 's', 'h', 'e', 'r', 'return']","[0.6000073138056905, 0.8332776243728404, 1.0664857034339548, 1.183344282656435, 1.449677486822111, 1.5664016588225422, 1.7497138633830218]",2017_Feb_08_1028,60.0229125069,famFaceGrey,001,13,
145,./greyInner/MariskaHargitay(Liv)8_8_cut.png,0,191,191,144,,,2.nein,3.625,None,None,None,host,2.889,None,None,None,,['return'],[0.7670206377638351],2017_Feb_08_1028,60.0229125069,famFaceGrey,001,13,
52,./greyInner/DannFlorek(DonaldDonCragen)10_1_cut.png,0,192,192,51,,,2.nein,1.426,None,None,None,None,None,polit,0.937,None,,['return'],[1.1333162464006818],2017_Feb_08_1028,60.0229125069,famFaceGrey,001,13,
69,./greyInner/EmmaWatson(HermioneGranger)4_1_cut.png,0,193,193,68,,,1.ja,1.526,None,None,None,music,0.777,None,None,None,Emma Watson,"['lshift', 'e', 'm', 'm', 'a', 'space', 'lshift', 'w', 'a', 't', 's', 'o', 'n', 'return']","[0.8332830776498668, 0.9500271380693448, 1.3163782418123446, 1.4831073538393866, 1.5664295667661463, 1.6997009038327633, 1.849613715567557, 1.9996490656294554, 2.299369152163308, 2.549022387945115, 2.7326531279995834, 2.9323424837170933, 3.1158789141695706, 3.29902142560195]",2017_Feb_08_1028,60.0229125069,famFaceGrey,001,13,
205,./greyInner/Usher7_1_cut.png,0,194,194,204,,,1.ja,3.685,None,None,None,music,0.86,None,None,None,Usher,"['lshift', 'u', 's', 'h', 'e', 'r', 'return']","[0.5834566201492635, 0.7833839953395909, 0.9999291074077519, 1.0998706611167108, 1.2664942362075635, 1.3664550367743686, 1.4829873817602675]",2017_Feb_08_1028,60.0229125069,famFaceGrey,001,13,
178,./greyInner/Shakira3_1_cut.png,0,195,195,177,,,1.ja,5.562,None,None,None,music,1.313,None,None,None,Shakira,"['lshift', 's', 'h', 'a', 'k', 'i', 'r', 'a', 'return']","[0.6171145624289238, 0.7838776772377969, 1.0337506479777403, 1.1335892309980409, 1.4836587763106763, 1.8001544239546092, 2.116587519310997, 2.216579114849992, 2.4332855797410957]",2017_Feb_08_1028,60.0229125069,famFaceGrey,001,13,
51,./greyInner/DannFlorek(DonaldDonCragen)1_1_cut.png,0,196,196,50,,,2.nein,2.379,None,dummy,5.511,None,None,None,None,None,,['return'],[0.9004828395018194],2017_Feb_08_1028,60.0229125069,famFaceGrey,001,13,
163,./greyInner/OmarEpps(DrEricForeman)3_1_cut.png,0,197,197,162,,,2.nein,1.884,None,None,None,music,0.727,None,None,None,,['return'],[0.6834045894770497],2017_Feb_08_1028,60.0229125069,famFaceGrey,001,13,
160,./greyInner/NicoleKidman8_2_cut.png,0,198,198,159,,,2.nein,9.307,None,dummy,1.944,None,None,None,None,None,,['return'],[1.033387523930287],2017_Feb_08_1028,60.0229125069,famFaceGrey,001,13,
28,./greyInner/Beyonce3_2_cut.png,0,199,199,27,,,1.ja,2.044,None,None,None,music,1.244,None,None,None,Beyonce,"['lshift', 'b', 'e', 'y', 'o', 'n', 'c', 'e', 'return']","[0.3837974178413788, 0.6505287111790494, 0.7670677925648306, 1.2167760743595863, 1.4999961506282489, 1.7832325867261716, 2.016492953083798, 2.099861679249443, 2.349704817359907]",2017_Feb_08_1028,60.0229125069,famFaceGrey,001,13,
212,./greyInner/notfamousface11_1_cut.png,0,200,200,211,,,2.nein,1.732,None,None,None,host,1.685,None,None,None,,['return'],[0.7331634905076498],2017_Feb_08_1028,60.0229125069,famFaceGrey,001,13,
172,./greyInner/SahraWagenknecht2_2_cut.png,0,201,201,171,,,2.nein,1.829,None,None,None,host,3.327,None,None,None,,['return'],[1.1002337851641641],2017_Feb_08_1028,60.0229125069,famFaceGrey,001,13,
103,./greyInner/JimParsons(SheldonCooper)6_1_cut.png,0,202,202,102,,,2.nein,1.294,None,None,None,None,None,sport,1.712,None,,['return'],[0.7668095638919112],2017_Feb_08_1028,60.0229125069,famFaceGrey,001,13,
92,./greyInner/JanHofer3_1_cut.png,0,203,203,91,,,2.nein,1.669,None,None,None,None,None,polit,1.097,None,,['return'],[0.8506030040498445],2017_Feb_08_1028,60.0229125069,famFaceGrey,001,13,
104,./greyInner/JimParsons(SheldonCooper)8_1_cut.png,0,204,204,103,,,2.nein,1.743,None,None,None,None,None,sport,0.66,None,,['return'],[0.6668442723916996],2017_Feb_08_1028,60.0229125069,famFaceGrey,001,13,
155,./greyInner/NeilPatrickHarris(Barney)3_7_cut.png,0,205,205,154,,,2.nein,2.672,None,None,None,host,3.382,None,None,None,,['return'],[0.8169880464183734],2017_Feb_08_1028,60.0229125069,famFaceGrey,001,13,
217,./greyInner/notfamousface2_cut.png,0,206,206,216,,,2.nein,1.871,None,None,None,None,None,sport,6.578,None,,['return'],[0.7666549474688509],2017_Feb_08_1028,60.0229125069,famFaceGrey,001,13,
46,./greyInner/CristinMilioti(Tracy_Mutter)10_1_cut.png,0,207,207,45,,,2.nein,1.615,None,dummy,1.026,None,None,None,None,None,,['return'],[0.8668043672405474],2017_Feb_08_1028,60.0229125069,famFaceGrey,001,13,
83,./greyInner/HughLaurie(DrHouse)5_3_cut.png,0,208,208,82,,,1.ja,4.394,None,dummy,1.16,None,None,None,None,None,,['return'],[1.0168326601210538],2017_Feb_08_1028,60.0229125069,famFaceGrey,001,13,
55,./greyInner/DannFlorek(DonaldDonCragen)8_1_cut.png,0,209,209,54,,,2.nein,1.313,None,None,None,None,None,polit,0.813,None,,['return'],[0.7667749195479701],2017_Feb_08_1028,60.0229125069,famFaceGrey,001,13,
32,./greyInner/BritneySpears14_2_cut.png,0,210,210,31,,,1.ja,1.427,None,None,None,music,1.094,None,None,None,Britney Spears,"['lshift', 'b', 'r', 'i', 't', 'n', 'e', 'y', 'space', 'lshift', 's', 'p', 'e', 'a', 'r', 's', 'return']","[0.5836814876024619, 0.7836951528715872, 1.033575501573523, 1.1668965596886665, 1.31679365315631, 1.6167597786870829, 1.7164283477986828, 1.9499729260869572, 2.183175872652555, 2.266113148426939, 2.3998127280756307, 2.5663041414109102, 2.832967429184464, 2.9827695714880065, 3.16630985131178, 3.3993370099110507, 3.7659309448413296]",2017_Feb_08_1028,60.0229125069,famFaceGrey,001,13,
134,./greyInner/LeonardoDiCaprio4_1_cut.png,0,211,211,133,,,1.ja,1.495,None,act,0.862,None,None,None,None,None,Leonardo DiCaprio,"['lshift', 'l', 'e', 'o', 'n', 'a', 'r', 'd', 'o', 'space', 'lshift', 'd', 'i', 'lshift', 'v', 'c', 'backspace', 'lshift', 'backspace', 'c', 'a', 'p', 'r', 'i', 'o', 'plus', 'return']","[0.6171719822209525, 0.8170307102859624, 0.9170370617489425, 1.1502810682777636, 1.5168243198158962, 1.633381044154703, 1.81677857645127, 2.066557879150423, 2.21654190425852, 2.4830646899717976, 2.5330093231777937, 2.649803425427308, 2.7996581758084176, 3.199466412950187, 3.366057268383429, 3.3930157003032946, 3.665876476234189, 3.765986760728083, 3.915325053762899, 4.11509396315887, 4.398335531752309, 4.698280164958305, 4.915423212737096, 5.01554697003121, 5.182014324794636, 5.448684348968527, 6.364818733095035]",2017_Feb_08_1028,60.0229125069,famFaceGrey,001,13,
93,./greyInner/JanHofer5_1_cut.png,0,212,212,92,,,2.nein,1.695,None,None,None,host,0.629,None,None,None,,['return'],[0.7841375098159915],2017_Feb_08_1028,60.0229125069,famFaceGrey,001,13,
151,./greyInner/NeilPatrickHarris(Barney)1_1_cut.png,0,213,213,150,,,2.nein,1.594,None,None,None,None,None,sport,4.077,None,,['return'],[0.7334262101139757],2017_Feb_08_1028,60.0229125069,famFaceGrey,001,13,
74,./greyInner/GuentherJauch7_1_cut.png,0,214,214,73,,,1.ja,1.545,None,None,None,host,1.794,None,None,None,Günter Jauch,"['lshift', 'g', u'\xfc', 'n', 't', 'e', 'r', 'space', 'lshift', 'j', 'a', 'u', 'c', 'h', 'return']","[0.5667612542792995, 1.6163260828279817, 1.8662677006932427, 2.116189430139002, 2.266133678408096, 2.466192894573396, 2.582626759804043, 2.7159122112329896, 2.782525585489111, 2.9325891642756687, 3.0824378198185514, 3.232552402777401, 3.5822196887652353, 3.6656256255228072, 4.298672095135771]",2017_Feb_08_1028,60.0229125069,famFaceGrey,001,13,
137,./greyInner/LisaEdelstein(DrLisaCuddy)10_1_cut.png,0,215,215,136,,,2.nein,2.111,None,None,None,host,5.426,None,None,None,,['return'],[0.8669599460058635],2017_Feb_08_1028,60.0229125069,famFaceGrey,001,13,
111,./greyInner/JoshRadnor(Ted)1_2_cut.png,0,216,216,110,,,2.nein,1.805,None,dummy,2.011,None,None,None,None,None,,['return'],[0.683651590817135],2017_Feb_08_1028,60.0229125069,famFaceGrey,001,13,
48,./greyInner/CristinMilioti(Tracy_Mutter)4_2_cut.png,0,217,217,47,,,2.nein,1.362,None,None,None,None,None,sport,2.726,None,,['return'],[0.6836676298648854],2017_Feb_08_1028,60.0229125069,famFaceGrey,001,13,
56,./greyInner/ElvisPresley1_1_cut.png,0,218,218,55,,,1.ja,1.458,None,None,None,music,1.157,None,None,None,Elvis Presley,"['lshift', 'e', 'l', 'v', 'i', 's', 'space', 'lshift', 'p', 'r', 'e', 's', 'l', 'e', 'y', 'return']","[0.5500703793427419, 0.7501661645374043, 1.2337007986161552, 1.4495960084582293, 1.6162972125416672, 1.766188852733194, 2.032930731842498, 2.149531082392059, 2.2660310285004925, 2.4162335054429604, 2.6159789978287336, 2.8158813521044976, 3.0991694339368223, 3.249114002986971, 3.4490269430343687, 3.7488246585608067]",2017_Feb_08_1028,60.0229125069,famFaceGrey,001,13,
41,./greyInner/CobieSmulders(Robin)12_1_cut.png,0,219,219,40,,,2.nein,4.186,None,act,0.969,None,None,None,None,None,,['return'],[0.7668769278934633],2017_Feb_08_1028,60.0229125069,famFaceGrey,001,13,
35,./greyInner/BritneySpears8_5_cut.png,0,220,220,34,,,1.ja,1.288,None,None,None,music,1.82,None,None,None,Britney Spears,"['lshift', 'b', 'r', 'i', 't', 'n', 'e', 'y', 'space', 'lshift', 's', 'p', 'e', 'a', 'r', 's', 'return']","[0.3670520101418333, 0.667038344872708, 0.900318920430891, 1.0500575481041778, 1.4331460400230753, 1.9330016885910482, 2.033017021920841, 2.23293413212059, 2.466119114952562, 2.53266095505478, 2.6661209113258337, 2.832617457156175, 2.9659083618612385, 3.1659541052263194, 3.332599172641494, 3.53252301924158, 3.81576619173984]",2017_Feb_08_1028,60.0229125069,famFaceGrey,001,13,
31,./greyInner/BritneySpears1_1_cut.png,0,221,221,30,,,1.ja,1.792,None,None,None,music,0.727,None,None,None,Britney Spears,"['lshift', 'b', 'r', 'i', 't', 'n', 'e', 's', 'backspace', 'y', 'space', 'lshift', 's', 'p', 'e', 'a', 'r', 's', 'return']","[0.5835095490078857, 0.7501350487846139, 0.9498600111887754, 1.0832946257642107, 1.2665888665910643, 1.6330605839752934, 1.7163757397211157, 1.899478795095547, 2.2328462381374266, 2.299620644436345, 2.5160704845588953, 2.649220245641118, 2.7659986296239367, 2.9324881182733407, 3.0991174674213653, 3.2658690341158945, 3.4323286901358188, 3.632142829647364, 3.7989530992572327]",2017_Feb_08_1028,60.0229125069,famFaceGrey,001,13,
161,./greyInner/OmarEpps(DrEricForeman)1_5_cut.png,0,222,222,160,,,2.nein,8.855,None,None,None,music,2.215,None,None,None,,['return'],[1.1499503431073208],2017_Feb_08_1028,60.0229125069,famFaceGrey,001,13,
16,./greyInner/BastianSchweinsteiger1_1_cut.png,0,223,223,15,,,1.ja,1.94,None,None,None,None,None,sport,0.625,None,Sebastian Schweinsteiger,"['lshift', 's', 'c', 'h', 'backspace', 'backspace', 'e', 'b', 'a', 's', 't', 'i', 'a', 'n', 'space', 'lshift', 's', 'c', 'h', 'w', 'e', 'i', 'n', 's', 't', 'e', 'i', 'g', 'e', 'r', 'return']","[0.9169376196514349, 4.082329075073176, 4.2321283303476775, 4.298744270851785, 5.714929979932094, 5.8813800125230955, 6.0647188419038685, 6.381200695966527, 6.514638839132203, 6.7310610920922045, 6.914342822462004, 7.030938682077704, 7.147503105159558, 7.463946786288034, 7.597404497092612, 7.630686804867764, 7.764267053998992, 7.880406763089013, 7.947189509692635, 8.11393145295824, 8.2469814511619, 8.380431784004031, 8.563716401401962, 8.746933975579395, 8.980312068549665, 9.146764346607597, 9.296685177866493, 9.480050952847705, 9.680059806402369, 9.763333581403913, 9.93004665438275]",2017_Feb_08_1028,60.0229125069,famFaceGrey,001,13,
