num,pic,trials.thisRepN,trials.thisTrialN,trials.thisN,trials.thisIndex,key_resp_2.keys,key_resp_2.rt,ratingBekannt.response,ratingBekannt.rt,key_resp_5.keys,ratingK1.response,ratingK1.rt,ratingK2.response,ratingK2.rt,ratingK3.response,ratingK3.rt,key_resp_6.keys,inputText,key_resp_4.keys,key_resp_4.rt,date,frameRate,expName,session,participant,
,,,,,,space,56.5759580444,,,,,,,,,,,,,,2017_Feb_08_1228,60.0201389705,famFaceGrey,001,14,
75,./greyInner/GuentherJauch9_1_cut.png,0,0,0,74,,,2.nein,8.855,None,act,14.747,None,None,None,None,None,,['return'],[10.030012587445526],2017_Feb_08_1228,60.0201389705,famFaceGrey,001,14,
146,./greyInner/MilaKunis1_3_cut.png,0,1,1,145,,,1.ja,5.457,None,None,None,music,8.954,None,None,None,,['return'],[46.449473470131124],2017_Feb_08_1228,60.0201389705,famFaceGrey,001,14,
85,./greyInner/HughLaurie(DrHouse)9_2_cut.png,0,2,2,84,,,1.ja,3.703,None,act,6.399,None,None,None,None,None,doktor haus,"['d', 'o', 'k', 't', 'o', 'r', 'space', 'h', 'a', 'u', 's', 'return']","[2.8159371679903415, 2.932699192144355, 4.732022151849378, 5.6483560617325566, 5.781544316530926, 5.89818251923316, 7.131124350096798, 7.28100219670705, 8.080678336249548, 8.21387236510418, 8.280538668219378, 9.446672090001812]",2017_Feb_08_1228,60.0201389705,famFaceGrey,001,14,
212,./greyInner/notfamousface11_1_cut.png,0,3,3,211,,,2.nein,3.267,None,None,None,None,None,sport,6.15,None,,['return'],[11.679504213778273],2017_Feb_08_1228,60.0201389705,famFaceGrey,001,14,
138,./greyInner/LisaEdelstein(DrLisaCuddy)2_2_cut.png,0,4,4,137,,,1.ja,13.953,None,act,16.403,None,None,None,None,None,doktor haus,"['d', 'o', 'k', 't', 'o', 'r', 'space', 'h', 'a', 'u', 's', 'return']","[3.415719614344198, 3.5491471717377863, 3.74898889841279, 4.248779107663722, 4.365539207132315, 4.448759090932072, 5.165059447128442, 5.281728765583466, 5.848199392312381, 5.998064407684069, 6.064780752629304, 6.931007393359323]",2017_Feb_08_1228,60.0201389705,famFaceGrey,001,14,
90,./greyInner/Ice-T(OdafinFinTutuola)7_1_cut.png,0,5,5,89,,,1.ja,6.387,None,None,None,None,None,polit,6.289,None,schwarzneger,"['s', 'c', 'h', 'w', 'a', 'r', 'z', 'n', 'e', 'g', 'e', 'r', 'return']","[1.4998582148145942, 1.7163667578533932, 2.282877802983421, 3.015100122152944, 3.2650452686084463, 3.6822440039613866, 3.8819975158712623, 5.331236174341029, 6.031211666675517, 6.397852114843772, 6.780979421258962, 6.930676347408735, 8.29695206762517]",2017_Feb_08_1228,60.0201389705,famFaceGrey,001,14,
103,./greyInner/JimParsons(SheldonCooper)6_1_cut.png,0,6,6,102,,,1.ja,5.842,None,act,6.676,None,None,None,None,None,lost,"['l', 'o', 's', 't', 'return']","[20.292087745141544, 20.40897840245998, 21.142034431344655, 21.2587749631748, 22.025046256614587]",2017_Feb_08_1228,60.0201389705,famFaceGrey,001,14,
121,./greyInner/KaleyCuoco(Penny)10_1_cut.png,0,7,7,120,,,1.ja,3.408,None,act,15.916,None,None,None,None,None,olsen schwester,"['o', 'l', 's', 'e', 'n', 'space', 's', 'c', 'h', 'w', 'e', 's', 't', 'e', 'r', 'return']","[1.9663279433571006, 2.166181859707649, 2.5828519480382965, 2.816042704927895, 2.965797371649387, 8.430557016890816, 9.213462727819206, 9.446689412176056, 9.729888637681142, 10.212898474108442, 10.363136557738471, 10.596399490343174, 10.89628125048148, 11.179304367240547, 11.312731603853535, 11.629181379819784]",2017_Feb_08_1228,60.0201389705,famFaceGrey,001,14,
100,./greyInner/JasonSegel(Marshall)9_1_cut.png,0,8,8,99,,,1.ja,5.36,None,act,1.779,None,None,None,None,None,,['return'],[0.8672364591948281],2017_Feb_08_1228,60.0201389705,famFaceGrey,001,14,
98,./greyInner/JasonSegel(Marshall)6_1_cut.png,0,9,9,97,,,2.nein,15.887,None,None,None,music,5.465,None,None,None,,['return'],[1.8331149884270417],2017_Feb_08_1228,60.0201389705,famFaceGrey,001,14,
44,./greyInner/CobieSmulders(Robin)4_7_cut.png,0,10,10,43,,,2.nein,8.363,None,None,None,music,49.215,None,None,None,,['return'],[1.066663736866758],2017_Feb_08_1228,60.0201389705,famFaceGrey,001,14,
218,./greyInner/notfamousface3_3_cut.png,0,11,11,217,,,1.ja,4.551,None,None,None,music,3.602,None,None,None,,['return'],[0.7504747558214149],2017_Feb_08_1228,60.0201389705,famFaceGrey,001,14,
179,./greyInner/Shakira7_1_cut.png,0,12,12,178,,,2.nein,23.221,None,dummy,7.627,None,None,None,None,None,,['return'],[1.1333451166865416],2017_Feb_08_1228,60.0201389705,famFaceGrey,001,14,
20,./greyInner/BastianSchweinsteiger6_2_cut.png,0,13,13,19,,,1.ja,2.438,None,None,None,None,None,sport,2.109,None,,['return'],[2.4826361266077583],2017_Feb_08_1228,60.0201389705,famFaceGrey,001,14,
22,./greyInner/BenedictCumberbatch2_2_cut.png,0,14,14,21,,,1.ja,2.145,None,act,1.661,None,None,None,None,None,,['return'],[1.5829045561149542],2017_Feb_08_1228,60.0201389705,famFaceGrey,001,14,
88,./greyInner/Ice-T(OdafinFinTutuola)5_1_cut.png,0,15,15,87,,,1.ja,7.494,None,act,7.594,None,None,None,None,None,,['return'],[34.18697199453891],2017_Feb_08_1228,60.0201389705,famFaceGrey,001,14,
101,./greyInner/JimParsons(SheldonCooper)1_1_cut.png,0,16,16,100,,,1.ja,4.078,None,None,None,music,16.323,None,None,None,,['return'],[3.3998419191430003],2017_Feb_08_1228,60.0201389705,famFaceGrey,001,14,
48,./greyInner/CristinMilioti(Tracy_Mutter)4_2_cut.png,0,17,17,47,,,2.nein,2.194,None,None,None,host,4.209,None,None,None,,['return'],[0.916679070196551],2017_Feb_08_1228,60.0201389705,famFaceGrey,001,14,
125,./greyInner/KaleyCuoco(Penny)7_1_cut.png,0,18,18,124,,,1.ja,2.791,None,None,None,music,2.025,None,None,None,britney,"['b', 'r', 'i', 't', 'n', 'e', 'y', 'return']","[1.5163027299731766, 1.8662988164451235, 2.216242294840413, 3.7331230721047177, 3.9654037734089798, 6.01465808598914, 6.631241755929295, 9.87972382042426]",2017_Feb_08_1228,60.0201389705,famFaceGrey,001,14,
51,./greyInner/DannFlorek(DonaldDonCragen)1_1_cut.png,0,19,19,50,,,2.nein,3.079,None,None,None,None,None,polit,4.228,None,,['return'],[1.4502802342467476],2017_Feb_08_1228,60.0201389705,famFaceGrey,001,14,
94,./greyInner/JanHofer7_1_cut.png,0,20,20,93,,,2.nein,10.038,None,None,None,None,None,polit,2.342,None,,['return'],[0.9831285253840178],2017_Feb_08_1228,60.0201389705,famFaceGrey,001,14,
126,./greyInner/KatjaBurkard1_1_cut.png,0,21,21,125,,,1.ja,1.893,None,act,1.86,None,None,None,None,None,friends,"['f', 'r', 'i', 'e', 'n', 's', 'backspace', 'd', 's', 'return']","[16.010657947412255, 16.193890598295184, 16.443957641515226, 16.893808029275533, 17.226799517031395, 17.843403075390597, 19.1443257697465, 20.35892887387854, 20.525681082135634, 22.724565598422487]",2017_Feb_08_1228,60.0201389705,famFaceGrey,001,14,
214,./greyInner/notfamousface1_2_cut.png,0,22,22,213,,,2.nein,10.319,None,None,None,music,13.583,None,None,None,,['return'],[0.9834618168006273],2017_Feb_08_1228,60.0201389705,famFaceGrey,001,14,
9,./greyInner/AngelaMerkel5_1_cut.png,0,23,23,8,,,1.ja,2.129,None,None,None,None,None,polit,2.626,None,merkel,"['m', 'e', 'r', 'k', 'e', 'l', 'return']","[1.2667264816227544, 1.7999940334739222, 1.949571629105776, 2.7494258020815323, 3.1159668081527343, 3.432607769571405, 4.3821171671716]",2017_Feb_08_1228,60.0201389705,famFaceGrey,001,14,
19,./greyInner/BastianSchweinsteiger3_1_cut.png,0,24,24,18,,,2.nein,16.241,None,None,None,host,3.595,None,None,None,,['return'],[1.0331831864587002],2017_Feb_08_1228,60.0201389705,famFaceGrey,001,14,
64,./greyInner/EmilyDeschanel6_12_cut.png,0,25,25,63,,,1.ja,2.088,None,act,1.472,None,None,None,None,None,,['return'],[50.36399272212111],2017_Feb_08_1228,60.0201389705,famFaceGrey,001,14,
208,./greyInner/WillSmith4_1_cut.png,0,26,26,207,,,1.ja,3.873,None,act,1.758,None,None,None,None,None,merfi,"['m', 'e', 'r', 'f', 'i', 'return']","[1.3498369791159348, 1.8497593501233496, 2.0164413073489413, 2.2171144982712576, 2.6160251902856544, 11.879033179015096]",2017_Feb_08_1228,60.0201389705,famFaceGrey,001,14,
74,./greyInner/GuentherJauch7_1_cut.png,0,27,27,73,,,2.nein,2.413,None,None,None,None,None,polit,1.413,None,,['return'],[1.799876306862643],2017_Feb_08_1228,60.0201389705,famFaceGrey,001,14,
141,./greyInner/MariskaHargitay(Liv)13_1_cut.png,0,28,28,140,,,2.nein,2.278,None,None,None,music,1.862,None,None,None,,['return'],[0.9667860185691097],2017_Feb_08_1228,60.0201389705,famFaceGrey,001,14,
65,./greyInner/EmilyDeschanel8_3_cut.png,0,29,29,64,,,1.ja,15.564,None,dummy,16.613,None,None,None,None,None,,['return'],[1.450008211992099],2017_Feb_08_1228,60.0201389705,famFaceGrey,001,14,
1,./greyInner/AlysonHannigan(Lily)1_1_cut.png,0,30,30,0,,,1.ja,6.079,None,None,None,music,13.607,None,None,None,lindsey stirling,"['l', 'i', 'n', 'd', 's', 'e', 'y', 'space', 's', 't', 'i', 'r', 'l', 'i', 'n', 'g', 'return']","[1.6831386620597186, 1.7832790999655117, 2.3162839322103537, 3.148589911053932, 3.332284486519711, 3.5154135251505068, 4.314906498764685, 4.548161732627705, 6.364564353792957, 7.314448102772076, 7.431071549550325, 7.5139780303525185, 8.147247442733715, 8.280461360007394, 9.096827732924794, 9.180039597200448, 36.586097930578035]",2017_Feb_08_1228,60.0201389705,famFaceGrey,001,14,
32,./greyInner/BritneySpears14_2_cut.png,0,31,31,31,,,1.ja,6.11,None,None,None,music,2.311,None,None,None,britney spirs,"['b', 'r', 'i', 't', 'n', 'e', 'y', 'space', 's', 'p', 'i', 'r', 's', 'return']","[1.616686319846849, 2.2829884724142175, 2.416245695119869, 2.4996506695333665, 3.2492471270852548, 3.3660675333740073, 3.7491451187397615, 3.998615830154449, 5.031944009608196, 5.5648272658672795, 5.6491817519254255, 6.481385722423511, 6.8310764254219976, 9.096929420489687]",2017_Feb_08_1228,60.0201389705,famFaceGrey,001,14,
155,./greyInner/NeilPatrickHarris(Barney)3_7_cut.png,0,32,32,154,,,1.ja,6.2,None,act,1.297,None,None,None,None,None,,['return'],[1.3000921924467548],2017_Feb_08_1228,60.0201389705,famFaceGrey,001,14,
209,./greyInner/WillSmith5_1_cut.png,0,33,33,208,,,1.ja,6.744,None,act,1.263,None,None,None,None,None,comedien,"['c', 'o', 'm', 'e', 'd', 'i', 'e', 'n', 'return']","[2.183076751336557, 2.366001452495766, 3.215665851455924, 3.3492708007197507, 3.849029252656692, 3.9655234247093176, 4.066095954567572, 5.414967062210053, 6.681191842411863]",2017_Feb_08_1228,60.0201389705,famFaceGrey,001,14,
63,./greyInner/EmilyDeschanel5_1_cut.png,0,34,34,62,,,2.nein,3.676,None,None,None,music,9.99,None,None,None,,['return'],[0.9334738781653869],2017_Feb_08_1228,60.0201389705,famFaceGrey,001,14,
116,./greyInner/JudithRakers1_1_cut.png,0,35,35,115,,,1.ja,3.36,None,act,1.66,None,None,None,None,None,,['return'],[1.2494825803114509],2017_Feb_08_1228,60.0201389705,famFaceGrey,001,14,
222,./greyInner/notfamousface7_cut.png,0,36,36,221,,,2.nein,1.765,None,None,None,host,1.201,None,None,None,,['return'],[0.7836098251373187],2017_Feb_08_1228,60.0201389705,famFaceGrey,001,14,
139,./greyInner/LisaEdelstein(DrLisaCuddy)6_3_cut.png,0,37,37,138,,,1.ja,4.972,None,act,5.276,None,None,None,None,None,serial comedien,"['s', 'e', 'r', 'i', 'a', 'l', 'e', 'backspace', 'space', 'c', 'o', 'm', 'e', 'd', 'i', 'e', 'n', 'return']","[1.8830567346049065, 2.049597227425693, 3.215824638031336, 3.3823846984923875, 3.9988576989999274, 4.098728360117093, 10.846043744259077, 13.69489560504553, 27.18958860483508, 27.95596158583976, 28.05609592890505, 29.338830342800065, 29.472081149884616, 30.105020478657025, 30.238524061138378, 30.321890862618602, 31.137781196590367, 31.221321219789388]",2017_Feb_08_1228,60.0201389705,famFaceGrey,001,14,
145,./greyInner/MariskaHargitay(Liv)8_8_cut.png,0,38,38,144,,,2.nein,2.815,None,dummy,51.15,None,None,None,None,None,,['return'],[0.65042574049221],2017_Feb_08_1228,60.0201389705,famFaceGrey,001,14,
118,./greyInner/JudithRakers4_3_cut.png,0,39,39,117,,,2.nein,1.546,None,None,None,host,5.943,None,None,None,,['return'],[0.20043934160457866],2017_Feb_08_1228,60.0201389705,famFaceGrey,001,14,
134,./greyInner/LeonardoDiCaprio4_1_cut.png,0,40,40,133,,,1.ja,6.726,None,act,1.079,None,None,None,None,None,titanic,"['t', 'i', 't', 'a', 'n', 'i', 'c', 'return']","[1.167070102188518, 1.2836104666985193, 1.3836389520474768, 2.3998685439619294, 2.8496323208637477, 3.4828821656046784, 4.699142103399936, 7.980959404527312]",2017_Feb_08_1228,60.0201389705,famFaceGrey,001,14,
58,./greyInner/ElvisPresley4_10_cut.png,0,41,41,57,,,2.nein,1.563,None,None,None,None,None,sport,3.821,None,,['return'],[0.7502251882342534],2017_Feb_08_1228,60.0201389705,famFaceGrey,001,14,
73,./greyInner/GuentherJauch4_1_cut.png,0,42,42,72,,,2.nein,2.877,None,None,None,None,None,polit,1.894,None,,['return'],[0.850287676365042],2017_Feb_08_1228,60.0201389705,famFaceGrey,001,14,
167,./greyInner/RobertSeanLeonard(Wilson)10_1_cut.png,0,43,43,166,,,1.ja,2.471,None,act,3.787,None,None,None,None,None,comedien,"['c', 'o', 'm', 'e', 'd', 'i', 'e', 'n', 'return']","[33.47068767739074, 33.87036311121483, 34.1536386825901, 34.71998131771579, 34.920036684510706, 35.219778904929626, 35.78636854139586, 36.252464880899424, 39.434783626826174]",2017_Feb_08_1228,60.0201389705,famFaceGrey,001,14,
8,./greyInner/AngelaMerkel4_1_cut.png,0,44,44,7,,,2.nein,6.707,None,None,None,None,None,polit,10.773,None,,['return'],[1.0833119479357265],2017_Feb_08_1228,60.0201389705,famFaceGrey,001,14,
160,./greyInner/NicoleKidman8_2_cut.png,0,45,45,159,,,2.nein,3.06,None,None,None,None,None,sport,5.642,None,,['return'],[0.6669206182596099],2017_Feb_08_1228,60.0201389705,famFaceGrey,001,14,
97,./greyInner/JasonSegel(Marshall)14_1_cut.png,0,46,46,96,,,1.ja,2.205,None,None,None,music,2.087,None,None,None,,['return'],[1.7163183199281775],2017_Feb_08_1228,60.0201389705,famFaceGrey,001,14,
93,./greyInner/JanHofer5_1_cut.png,0,47,47,92,,,1.ja,8.925,None,None,None,host,2.961,None,None,None,comedien,"['c', 'o', 'm', 'e', 'd', 'i', 'e', 'n', 'return']","[9.91360887562405, 10.313379581393747, 10.679968383827145, 11.462991821368632, 11.646179562916586, 12.64582157136465, 13.178856557018662, 13.56197552312915, 15.194717571610454]",2017_Feb_08_1228,60.0201389705,famFaceGrey,001,14,
52,./greyInner/DannFlorek(DonaldDonCragen)10_1_cut.png,0,48,48,51,,,2.nein,4.002,None,None,None,None,None,polit,6.451,None,,['return'],[0.7834648321404529],2017_Feb_08_1228,60.0201389705,famFaceGrey,001,14,
185,./greyInner/SigmarGabriel8_2_cut.png,0,49,49,184,,,2.nein,17.919,None,None,None,None,None,sport,4.036,None,,['return'],[0.9167772291712026],2017_Feb_08_1228,60.0201389705,famFaceGrey,001,14,
224,./greyInner/notfamousface9_1_cut.png,0,50,50,223,,,2.nein,6.293,None,None,None,None,None,sport,1.661,None,laufen,"['l', 'a', 'u', 'f', 'e', 'n', 'return']","[3.549242443683397, 3.699239941592168, 4.848925319625778, 5.731769376452576, 5.964878975759348, 6.0484096963100455, 6.731420045987761]",2017_Feb_08_1228,60.0201389705,famFaceGrey,001,14,
184,./greyInner/SigmarGabriel4_5_cut.png,0,51,51,183,,,2.nein,11.888,None,None,None,None,None,polit,1.674,None,,['return'],[0.7000954644136073],2017_Feb_08_1228,60.0201389705,famFaceGrey,001,14,
202,./greyInner/Usher11_1_cut.png,0,52,52,201,,,1.ja,2.46,None,None,None,None,None,sport,2.878,None,boks,"['b', 'o', 'k', 's', 'return']","[1.9831650944124704, 2.0831335937218682, 2.282840592393768, 2.466442782942977, 4.482216865893861]",2017_Feb_08_1228,60.0201389705,famFaceGrey,001,14,
60,./greyInner/ElvisPresley6_1_cut.png,0,53,53,59,,,1.ja,4.71,None,None,None,music,9.342,None,None,None,,['return'],[0.7171427269968262],2017_Feb_08_1228,60.0201389705,famFaceGrey,001,14,
188,./greyInner/TaylorSwift3_1_cut.png,0,54,54,187,,,1.ja,2.128,None,None,None,music,2.378,None,None,None,,['return'],[0.6838276995640626],2017_Feb_08_1228,60.0201389705,famFaceGrey,001,14,
183,./greyInner/SigmarGabriel3_3_cut.png,0,55,55,182,,,2.nein,4.678,None,None,None,None,None,polit,1.355,None,,['return'],[1.1498509010089037],2017_Feb_08_1228,60.0201389705,famFaceGrey,001,14,
186,./greyInner/TaylorSwift1_2_cut.png,0,56,56,185,,,2.nein,7.395,None,act,3.483,None,None,None,None,None,,['return'],[2.3494029624762334],2017_Feb_08_1228,60.0201389705,famFaceGrey,001,14,
29,./greyInner/Beyonce5_3_cut.png,0,57,57,28,,,1.ja,2.226,None,act,1.292,None,None,None,None,None,,['return'],[16.727098164106792],2017_Feb_08_1228,60.0201389705,famFaceGrey,001,14,
173,./greyInner/SahraWagenknecht5_1_cut.png,0,58,58,172,,,2.nein,2.444,None,None,None,None,None,polit,8.009,None,,['return'],[1.0501056652483385],2017_Feb_08_1228,60.0201389705,famFaceGrey,001,14,
194,./greyInner/TomCruise6_1_cut.png,0,59,59,193,,,1.ja,3.478,None,act,1.063,None,None,None,None,None,,"['g', 'backspace', 'return']","[97.87849202153484, 98.7282998095834, 114.77175825176892]",2017_Feb_08_1228,60.0201389705,famFaceGrey,001,14,
210,./greyInner/WillSmith6_1_cut.png,0,60,60,209,,,1.ja,3.444,None,act,1.995,None,None,None,None,None,comedien,"['c', 'o', 'm', 'e', 'd', 'i', 'e', 'n', 'return']","[1.5500533779522812, 1.7000351575934474, 2.1664805067830457, 2.316464531892052, 2.5330965756002115, 2.7826850136279973, 2.9329224556950066, 4.465491346612907, 5.14870731688643]",2017_Feb_08_1228,60.0201389705,famFaceGrey,001,14,
108,./greyInner/JoachimLoew15_1_cut.png,0,61,61,107,,,2.nein,1.729,None,None,None,None,None,polit,2.194,None,,['return'],[0.7502399441582384],2017_Feb_08_1228,60.0201389705,famFaceGrey,001,14,
4,./greyInner/AlysonHannigan(Lily)5_4_cut.png,0,62,62,3,,,1.ja,7.781,None,None,None,music,0.852,None,None,None,stirling,"['s', 'r', 'i', 'backspace', 'backspace', 't', 'i', 'r', 'l', 'i', 'n', 'g', 'return']","[1.499686276221837, 1.9996930126217194, 2.149489701649145, 3.465542671567164, 3.6156056087911566, 4.232019264822156, 4.348538457788891, 4.74815967962968, 5.148380120306683, 5.415033784651314, 5.964554345428041, 6.081322464418918, 7.014372911717146]",2017_Feb_08_1228,60.0201389705,famFaceGrey,001,14,
67,./greyInner/EmmaWatson(HermioneGranger)16_1_cut.png,0,63,63,66,,,1.ja,5.834,None,dummy,6.617,None,None,None,None,None,,['return'],[36.06953376412093],2017_Feb_08_1228,60.0201389705,famFaceGrey,001,14,
92,./greyInner/JanHofer3_1_cut.png,0,64,64,91,,,2.nein,1.646,None,None,None,None,None,polit,2.979,None,,['return'],[0.7335022352017404],2017_Feb_08_1228,60.0201389705,famFaceGrey,001,14,
142,./greyInner/MariskaHargitay(Liv)14_1_cut.png,0,65,65,141,,,2.nein,1.595,None,None,None,host,1.912,None,None,None,,['return'],[0.8334627149870357],2017_Feb_08_1228,60.0201389705,famFaceGrey,001,14,
30,./greyInner/Beyonce8_3_cut.png,0,66,66,29,,,1.ja,4.446,None,act,0.829,None,None,None,None,None,,['return'],[0.7834074123493338],2017_Feb_08_1228,60.0201389705,famFaceGrey,001,14,
117,./greyInner/JudithRakers2_1_cut.png,0,67,67,116,,,2.nein,1.599,None,None,None,None,None,sport,6.912,None,,['return'],[0.30023750622422085],2017_Feb_08_1228,60.0201389705,famFaceGrey,001,14,
123,./greyInner/KaleyCuoco(Penny)3_1_cut.png,0,68,68,122,,,1.ja,2.878,None,act,5.511,None,None,None,None,None,,['return'],[9.979528400663185],2017_Feb_08_1228,60.0201389705,famFaceGrey,001,14,
221,./greyInner/notfamousface6_8_cut.png,0,69,69,220,,,2.nein,4.53,None,None,None,music,0.713,None,None,None,,['return'],[0.7671088525294181],2017_Feb_08_1228,60.0201389705,famFaceGrey,001,14,
21,./greyInner/BenedictCumberbatch16_1_cut.png,0,70,70,20,,,1.ja,12.94,None,act,2.144,None,None,None,None,None,,['return'],[10.663308624645651],2017_Feb_08_1228,60.0201389705,famFaceGrey,001,14,
33,./greyInner/BritneySpears5_1_cut.png,0,71,71,32,,,1.ja,10.141,None,None,None,music,3.328,None,None,None,,['return'],[1.066033081498972],2017_Feb_08_1228,60.0201389705,famFaceGrey,001,14,
106,./greyInner/JoachimLoew1_1_cut.png,0,72,72,105,,,2.nein,2.137,None,None,None,music,50.751,None,None,None,,['return'],[2.1329579340672353],2017_Feb_08_1228,60.0201389705,famFaceGrey,001,14,
83,./greyInner/HughLaurie(DrHouse)5_3_cut.png,0,73,73,82,,,1.ja,2.743,None,act,1.545,None,None,None,None,None,doctor haus,"['d', 'o', 'c', 't', 'o', 'r', 'space', 'h', 'a', 'u', 's', 'return']","[2.0828288518096088, 2.216119435734072, 3.032484204744833, 4.081839884107467, 4.232127368004512, 4.365225483352333, 5.748228326754543, 6.581092785250803, 6.747449470583888, 6.964329157193788, 7.347421819264127, 8.779977943100675]",2017_Feb_08_1228,60.0201389705,famFaceGrey,001,14,
190,./greyInner/TaylorSwift8_1_cut.png,0,74,74,189,,,2.nein,4.162,None,None,None,music,12.308,None,None,None,,['return'],[0.6839707678718696],2017_Feb_08_1228,60.0201389705,famFaceGrey,001,14,
175,./greyInner/SahraWagenknecht9_1_cut.png,0,75,75,174,,,2.nein,2.476,None,None,None,None,None,sport,1.826,None,,['return'],[0.6332222575802007],2017_Feb_08_1228,60.0201389705,famFaceGrey,001,14,
147,./greyInner/MilaKunis10_1_cut.png,0,76,76,146,,,2.nein,1.947,None,None,None,None,None,sport,10.976,None,,['return'],[0.2174833963781566],2017_Feb_08_1228,60.0201389705,famFaceGrey,001,14,
200,./greyInner/UrsulavonderLeyen8_2_cut.png,0,77,77,199,,,2.nein,2.343,None,None,None,None,None,polit,1.01,None,,['return'],[0.25025405852102267],2017_Feb_08_1228,60.0201389705,famFaceGrey,001,14,
15,./greyInner/BarackObama5_2_cut.png,0,78,78,14,,,1.ja,2.911,None,None,None,None,None,polit,1.711,None,obama,"['o', 'b', 'a', 'm', 'a', 'return']","[1.5168980994367303, 2.1497931604371843, 2.616362010296143, 2.766455742492326, 2.8826442102890724, 3.93259301364742]",2017_Feb_08_1228,60.0201389705,famFaceGrey,001,14,
43,./greyInner/CobieSmulders(Robin)3_4_cut.png,0,79,79,42,,,1.ja,3.225,None,act,1.009,None,None,None,None,None,brazil,"['b', 'r', 'a', 'z', 'i', 'l', 'return']","[10.812732886977756, 11.17946443694018, 12.212352504915543, 12.5788745849095, 12.662366490965724, 13.495024045741957, 13.844920048553831]",2017_Feb_08_1228,60.0201389705,famFaceGrey,001,14,
223,./greyInner/notfamousface8_9_cut.png,0,80,80,222,,,2.nein,2.294,None,None,None,None,None,sport,1.991,None,,['return'],[0.5836901486873103],2017_Feb_08_1228,60.0201389705,famFaceGrey,001,14,
204,./greyInner/Usher4_1_cut.png,0,81,81,203,,,2.nein,10.99,None,act,1.278,None,None,None,None,None,,['return'],[0.6169195276052051],2017_Feb_08_1228,60.0201389705,famFaceGrey,001,14,
70,./greyInner/EmmaWatson(HermioneGranger)9_1_cut.png,0,82,82,69,,,1.ja,4.878,None,act,1.512,None,None,None,None,None,olsen,"['o', 'l', 's', 'e', 'n', 'return']","[0.7171667855691339, 0.9005335228939657, 1.383630611742774, 1.5499802398935572, 1.8834506536240951, 2.4824763776905456]",2017_Feb_08_1228,60.0201389705,famFaceGrey,001,14,
72,./greyInner/GuentherJauch3_1_cut.png,0,83,83,71,,,2.nein,2.851,None,None,None,None,None,polit,8.25,None,,['return'],[0.6169054132424208],2017_Feb_08_1228,60.0201389705,famFaceGrey,001,14,
3,./greyInner/AlysonHannigan(Lily)14_2_cut.png,0,84,84,2,,,1.ja,7.377,None,None,None,music,1.778,None,None,None,stirling,"['s', 't', 'i', 'r', 'l', 'i', 'n', 'g', 'return']","[1.4999538075408054, 1.833176899150203, 1.999794379404193, 2.599401358571413, 3.7156209421191306, 3.982235150406268, 4.332221292668692, 4.498826262464718, 4.8154431653110805]",2017_Feb_08_1228,60.0201389705,famFaceGrey,001,14,
131,./greyInner/LeonardoDiCaprio1_1_cut.png,0,85,85,130,,,1.ja,113.475,None,act,0.604,None,None,None,None,None,oskar,"['o', 's', 'k', 'a', 'r', 'return']","[1.2332581208902411, 1.5999999358427885, 1.7330813705812034, 1.816573597416209, 2.7994811047174153, 2.999327963887481]",2017_Feb_08_1228,60.0201389705,famFaceGrey,001,14,
54,./greyInner/DannFlorek(DonaldDonCragen)5_1_cut.png,0,86,86,53,,,2.nein,1.811,None,None,None,None,None,polit,0.712,None,,['return'],[0.6000509400164447],2017_Feb_08_1228,60.0201389705,famFaceGrey,001,14,
152,./greyInner/NeilPatrickHarris(Barney)11_2_cut.png,0,87,87,151,,,1.ja,2.796,None,act,1.38,None,None,None,None,None,,['return'],[0.20058593850262696],2017_Feb_08_1228,60.0201389705,famFaceGrey,001,14,
215,./greyInner/notfamousface13_1_cut.png,0,88,88,214,,,2.nein,1.796,None,None,None,host,1.146,None,None,None,,['return'],[0.25021588558593066],2017_Feb_08_1228,60.0201389705,famFaceGrey,001,14,
216,./greyInner/notfamousface14_6_cut.png,0,89,89,215,,,1.ja,6.04,None,None,None,music,3.058,None,None,None,,['return'],[4.83197364976877],2017_Feb_08_1228,60.0201389705,famFaceGrey,001,14,
133,./greyInner/LeonardoDiCaprio3_1_cut.png,0,90,90,132,,,1.ja,4.314,None,act,0.916,None,None,None,None,None,oskar,"['o', 's', 'k', 'a', 'r', 'return']","[1.0666688693636388, 1.3835587568082701, 1.533724664719557, 1.6002661840411747, 1.8833845727458538, 3.5826822549115604]",2017_Feb_08_1228,60.0201389705,famFaceGrey,001,14,
71,./greyInner/GuentherJauch2_1_cut.png,0,91,91,70,,,2.nein,1.545,None,None,None,None,None,polit,0.879,None,,['return'],[0.666901692184183],2017_Feb_08_1228,60.0201389705,famFaceGrey,001,14,
114,./greyInner/JoshRadnor(Ted)7_1_cut.png,0,92,92,113,,,1.ja,4.376,None,None,None,host,4.342,None,None,None,osborn,"['o', 's', 'b', 'o', 'r', 'n', 'return']","[1.066605354732019, 1.233159320356208, 1.7662668025077437, 1.8827090080430935, 2.6490714032752294, 2.749224993200187, 3.5656446157554456]",2017_Feb_08_1228,60.0201389705,famFaceGrey,001,14,
27,./greyInner/Beyonce11_2_cut.png,0,93,93,26,,,2.nein,1.578,None,None,None,music,6.774,None,None,None,,['return'],[0.6997772497015831],2017_Feb_08_1228,60.0201389705,famFaceGrey,001,14,
158,./greyInner/NicoleKidman5_1_cut.png,0,94,94,157,,,2.nein,1.708,None,None,None,None,None,sport,0.742,None,,['return'],[0.6500924490737816],2017_Feb_08_1228,60.0201389705,famFaceGrey,001,14,
153,./greyInner/NeilPatrickHarris(Barney)13_4_cut.png,0,95,95,152,,,1.ja,2.556,None,dummy,0.89,None,None,None,None,None,comedien,"['c', 'o', 'm', 'e', 'd', 'i', 'e', 'n', 'return']","[1.3165357452653552, 1.4333545476474683, 1.7663104287184979, 1.9830707848104794, 2.1996550321564428, 2.482878316233837, 2.5660526491374185, 3.0326715408264135, 3.315955452506387]",2017_Feb_08_1228,60.0201389705,famFaceGrey,001,14,
130,./greyInner/KatjaBurkard7_1_cut.png,0,96,96,129,,,2.nein,1.843,None,None,None,None,None,polit,6.942,None,,['return'],[0.6334618809578387],2017_Feb_08_1228,60.0201389705,famFaceGrey,001,14,
148,./greyInner/MilaKunis4_1_cut.png,0,97,97,147,,,1.ja,1.814,None,act,4.612,None,None,None,None,None,serial,"['s', 'e', 'r', 'i', 'a', 'l', 'return']","[5.064899120803602, 5.231417800519921, 5.814608172471708, 5.914725193366394, 6.447667794105655, 6.531064428214449, 7.380786567746327]",2017_Feb_08_1228,60.0201389705,famFaceGrey,001,14,
78,./greyInner/GeorgeClooney16_1_cut.png,0,98,98,77,,,2.nein,2.142,None,None,None,music,4.675,None,None,None,brazil,"['b', 'r', 'a', 'z', 'i', 'l', 'return']","[0.8502052356598142, 1.2666292849917227, 1.5998113166388066, 2.1663772153133323, 2.5994305496387824, 2.8158701247721183, 3.415678554381884]",2017_Feb_08_1228,60.0201389705,famFaceGrey,001,14,
157,./greyInner/NicoleKidman3_1_cut.png,0,99,99,156,,,2.nein,2.813,None,None,None,None,None,sport,3.73,None,,['return'],[0.6500411241195252],2017_Feb_08_1228,60.0201389705,famFaceGrey,001,14,
59,./greyInner/ElvisPresley5_2_cut.png,0,100,100,58,,,1.ja,2.166,None,act,1.665,None,None,None,None,None,,['return'],[0.6336896354387136],2017_Feb_08_1228,60.0201389705,famFaceGrey,001,14,
132,./greyInner/LeonardoDiCaprio2_1_cut.png,0,101,101,131,,,1.ja,61.77,None,dummy,1.276,None,None,None,None,None,leonardo di kaprio,"['l', 'e', 'o', 'n', 'a', 'r', 'd', 'o', 'space', 'd', 'i', 'space', 'k', 'a', 'p', 'r', 'o', 'backspace', 'i', 'o', 'return']","[1.1998670683697128, 1.8160734999000852, 1.9830358196850284, 3.2489064577057434, 3.698881629259631, 4.015463246199943, 4.2653253103871975, 4.398714053284493, 4.915124565661245, 6.081196718281717, 6.181096249685652, 6.414422376139555, 7.597425347854369, 8.247110084326778, 8.66357679752764, 8.98009650374297, 9.113446432145793, 10.146212282574197, 10.479529042224385, 10.612790435081479, 12.09549649193832]",2017_Feb_08_1228,60.0201389705,famFaceGrey,001,14,
176,./greyInner/Shakira1_1_cut.png,0,102,102,175,,,2.nein,7.024,None,None,None,host,2.492,None,None,None,,['return'],[0.6334362184788915],2017_Feb_08_1228,60.0201389705,famFaceGrey,001,14,
84,./greyInner/HughLaurie(DrHouse)8_1_cut.png,0,103,103,83,,,2.nein,1.591,None,None,None,None,None,sport,3.14,None,,['return'],[0.6002231993916212],2017_Feb_08_1228,60.0201389705,famFaceGrey,001,14,
144,./greyInner/MariskaHargitay(Liv)6_5_cut.png,0,104,104,143,,,2.nein,10.526,None,None,None,music,1.641,None,None,None,,['return'],[0.5337455154822237],2017_Feb_08_1228,60.0201389705,famFaceGrey,001,14,
178,./greyInner/Shakira3_1_cut.png,0,105,105,177,,,2.nein,1.596,None,None,None,music,0.764,None,None,None,,['return'],[0.6668478009833052],2017_Feb_08_1228,60.0201389705,famFaceGrey,001,14,
122,./greyInner/KaleyCuoco(Penny)14_2_cut.png,0,106,106,121,,,1.ja,2.394,None,act,2.861,None,None,None,None,None,,['return'],[2.7330101572079],2017_Feb_08_1228,60.0201389705,famFaceGrey,001,14,
196,./greyInner/UrsulavonderLeyen1_1_cut.png,0,107,107,195,,,2.nein,1.946,None,None,None,None,None,polit,1.098,None,,['return'],[0.6335420761970454],2017_Feb_08_1228,60.0201389705,famFaceGrey,001,14,
56,./greyInner/ElvisPresley1_1_cut.png,0,108,108,55,,,2.nein,3.623,None,None,None,music,1.858,None,None,None,,['return'],[0.8500098800541309],2017_Feb_08_1228,60.0201389705,famFaceGrey,001,14,
5,./greyInner/AlysonHannigan(Lily)8_3_cut.png,0,109,109,4,,,1.ja,6.546,None,None,None,music,0.688,None,None,None,stirling,"['s', 'r', 'i', 'r', 'l', 'backspace', 'backspace', 'backspace', 'backspace', 't', 'i', 'r', 'l', 'i', 'n', 'g', 'return']","[0.6002193500207795, 0.8668483142319019, 1.5665893156838138, 1.9665463951914717, 2.332948823888728, 3.8491200336684415, 4.048930965371255, 4.232230017913025, 4.532058207629234, 5.231860799027345, 5.514889689842676, 6.048158524818064, 7.181076040484186, 7.347817983751156, 7.8641406021451985, 8.114198342716918, 9.446870653417136]",2017_Feb_08_1228,60.0201389705,famFaceGrey,001,14,
162,./greyInner/OmarEpps(DrEricForeman)2_2_cut.png,0,110,110,161,,,1.ja,3.269,None,dummy,1.321,None,None,None,None,None,comedien,"['c', 'o', 'm', 'e', 'd', 'i', 'e', 'n', 'return']","[1.2999824853595783, 1.4497236792813055, 1.8495883738723933, 2.0164563840553456, 2.2159968974065123, 2.366929151034128, 2.8493776207815245, 2.966005237713034, 3.598930772903259]",2017_Feb_08_1228,60.0201389705,famFaceGrey,001,14,
177,./greyInner/Shakira2_1_cut.png,0,111,111,176,,,2.nein,1.414,None,None,None,host,5.661,None,None,None,,['return'],[0.7503474057793937],2017_Feb_08_1228,60.0201389705,famFaceGrey,001,14,
47,./greyInner/CristinMilioti(Tracy_Mutter)2_1_cut.png,0,112,112,46,,,2.nein,1.598,None,None,None,None,None,sport,1.928,None,,['return'],[0.1837260119991697],2017_Feb_08_1228,60.0201389705,famFaceGrey,001,14,
120,./greyInner/JudithRakers8_1_cut.png,0,113,113,119,,,2.nein,1.425,None,None,None,host,3.741,None,None,None,,['return'],[0.19939487879673834],2017_Feb_08_1228,60.0201389705,famFaceGrey,001,14,
68,./greyInner/EmmaWatson(HermioneGranger)3_1_cut.png,0,114,114,67,,,1.ja,3.73,None,act,4.259,None,None,None,None,None,olsen,"['o', 'l', 's', 'e', 'n', 'return']","[34.13738310741792, 34.37052799263074, 34.57041077926806, 34.753603332530474, 34.85369597407043, 35.420218567314805]",2017_Feb_08_1228,60.0201389705,famFaceGrey,001,14,
95,./greyInner/JanHofer9_2_cut.png,0,115,115,94,,,2.nein,2.579,None,None,None,None,None,polit,0.996,None,,['return'],[0.566861979499663],2017_Feb_08_1228,60.0201389705,famFaceGrey,001,14,
205,./greyInner/Usher7_1_cut.png,0,116,116,204,,,1.ja,3.243,None,None,None,None,None,sport,1.893,None,boks,"['b', 'o', 'k', 's', 'return']","[1.6164704342609184, 1.9495963292392844, 2.1496468843179173, 2.3495569373371836, 2.7156703423879662]",2017_Feb_08_1228,60.0201389705,famFaceGrey,001,14,
79,./greyInner/GeorgeClooney3_1_cut.png,0,117,117,78,,,1.ja,4.079,None,act,2.53,None,None,None,None,None,,['return'],[26.840137525212413],2017_Feb_08_1228,60.0201389705,famFaceGrey,001,14,
206,./greyInner/WillSmith1_1_cut.png,0,118,118,205,,,1.ja,3.246,None,act,0.964,None,None,None,None,None,merfi,"['m', 'e', 'r', 'f', 'i', 'return']","[0.8999182650113653, 1.3163885068024683, 1.4499963430971547, 1.6666187633763911, 2.0166754774490983, 2.3663844649618113]",2017_Feb_08_1228,60.0201389705,famFaceGrey,001,14,
53,./greyInner/DannFlorek(DonaldDonCragen)2_1_cut.png,0,119,119,52,,,2.nein,1.578,None,None,None,None,None,polit,0.896,None,,['return'],[0.2506762062639609],2017_Feb_08_1228,60.0201389705,famFaceGrey,001,14,
163,./greyInner/OmarEpps(DrEricForeman)3_1_cut.png,0,120,120,162,,,1.ja,2.958,None,act,5.829,None,None,None,None,None,,['return'],[0.23357120310902246],2017_Feb_08_1228,60.0201389705,famFaceGrey,001,14,
99,./greyInner/JasonSegel(Marshall)7_1_cut.png,0,121,121,98,,,1.ja,1.811,None,act,1.278,None,None,None,None,None,,['return'],[8.047308134491686],2017_Feb_08_1228,60.0201389705,famFaceGrey,001,14,
34,./greyInner/BritneySpears7_1_cut.png,0,122,122,33,,,2.nein,3.48,None,None,None,music,3.562,None,None,None,,['return'],[0.36689258200385666],2017_Feb_08_1228,60.0201389705,famFaceGrey,001,14,
89,./greyInner/Ice-T(OdafinFinTutuola)6_1_cut.png,0,123,123,88,,,2.nein,2.071,None,None,None,host,6.486,None,None,None,,['return'],[0.18375456150533864],2017_Feb_08_1228,60.0201389705,famFaceGrey,001,14,
192,./greyInner/TomCruise4_1_cut.png,0,124,124,191,,,1.ja,5.973,None,act,0.892,None,None,None,None,None,bred pit,"['b', 'r', 'e', 'd', 'backspace', 'backspace', 'backspace', 'backspace', 'b', 'r', 'e', 'd', 'space', 'p', 'i', 't', 'return']","[4.3319720458639495, 4.7984106586518465, 4.981713881346877, 5.181569080821646, 5.964817706595568, 6.214668222668479, 6.664288610478252, 7.0648474750687456, 10.196413219768147, 10.646262645184834, 10.846227551748598, 10.995841716408904, 11.295701984221523, 12.0622558856885, 12.162091581680215, 12.845421108413575, 12.92863489737465]",2017_Feb_08_1228,60.0201389705,famFaceGrey,001,14,
102,./greyInner/JimParsons(SheldonCooper)10_1_cut.png,0,125,125,101,,,1.ja,2.295,None,dummy,0.579,None,None,None,None,None,,['return'],[0.8835058279473742],2017_Feb_08_1228,60.0201389705,famFaceGrey,001,14,
213,./greyInner/notfamousface12_2_cut.png,0,126,126,212,,,2.nein,1.336,None,None,None,music,0.986,None,None,None,,['return'],[0.20025393020841875],2017_Feb_08_1228,60.0201389705,famFaceGrey,001,14,
201,./greyInner/Usher1_1_cut.png,0,127,127,200,,,1.ja,3.65,None,None,None,None,None,sport,6.232,None,,['return'],[1.4831189019532758],2017_Feb_08_1228,60.0201389705,famFaceGrey,001,14,
156,./greyInner/NicoleKidman14_1_cut.png,0,128,128,155,,,2.nein,1.746,None,None,None,music,14.355,None,None,None,,['return'],[0.5004895117472188],2017_Feb_08_1228,60.0201389705,famFaceGrey,001,14,
110,./greyInner/JoachimLoew8_1_cut.png,0,129,129,109,,,2.nein,1.758,None,None,None,None,None,polit,0.708,None,,['return'],[0.8500105216153315],2017_Feb_08_1228,60.0201389705,famFaceGrey,001,14,
137,./greyInner/LisaEdelstein(DrLisaCuddy)10_1_cut.png,0,130,130,136,,,2.nein,4.343,None,dummy,1.562,None,None,None,None,None,brazil,"['b', 'r', 'a', 'z', 'i', 'l', 'return']","[1.3000158465802087, 1.816629734084927, 2.532991038662658, 2.9830371028092486, 3.266012743986721, 3.482639975980419, 4.082421459990655]",2017_Feb_08_1228,60.0201389705,famFaceGrey,001,14,
16,./greyInner/BastianSchweinsteiger1_1_cut.png,0,131,131,15,,,2.nein,1.541,None,None,None,None,None,sport,8.754,None,,['return'],[0.6668631984684907],2017_Feb_08_1228,60.0201389705,famFaceGrey,001,14,
136,./greyInner/LisaEdelstein(DrLisaCuddy)1_1_cut.png,0,132,132,135,,,2.nein,2.613,None,None,None,music,3.312,None,None,None,,['return'],[0.7500753835265641],2017_Feb_08_1228,60.0201389705,famFaceGrey,001,14,
25,./greyInner/BenedictCumberbatch6_5_cut.png,0,133,133,24,,,1.ja,2.41,None,act,1.223,None,None,None,None,None,,['return'],[0.8836796912291902],2017_Feb_08_1228,60.0201389705,famFaceGrey,001,14,
17,./greyInner/BastianSchweinsteiger12_1_cut.png,0,134,134,16,,,2.nein,1.596,None,None,None,None,None,sport,2.163,None,,['return'],[0.6667133937589824],2017_Feb_08_1228,60.0201389705,famFaceGrey,001,14,
220,./greyInner/notfamousface5_1_cut.png,0,135,135,219,,,2.nein,1.638,None,None,None,None,None,polit,0.749,None,,['return'],[0.8014266412428697],2017_Feb_08_1228,60.0201389705,famFaceGrey,001,14,
195,./greyInner/TomCruise7_1_cut.png,0,136,136,194,,,1.ja,7.011,None,act,0.497,None,None,None,None,None,bred pit,"['b', 'r', 'e', 'd', 'space', 'p', 'i', 't', 'return']","[1.0665466518166795, 1.583211864275654, 1.7497026360488235, 1.9162925291384454, 2.482749362286995, 3.500015718265786, 3.832083998418966, 4.3153180607368995, 4.432547783531845]",2017_Feb_08_1228,60.0201389705,famFaceGrey,001,14,
10,./greyInner/AngelaMerkel6_1_cut.png,0,137,137,9,,,2.nein,5.19,None,None,None,None,None,polit,1.745,None,,['return'],[0.43376514727606263],2017_Feb_08_1228,60.0201389705,famFaceGrey,001,14,
49,./greyInner/CristinMilioti(Tracy_Mutter)8_1_cut.png,0,138,138,48,,,2.nein,2.071,None,None,None,music,4.599,None,None,None,,['return'],[0.43339817385822244],2017_Feb_08_1228,60.0201389705,famFaceGrey,001,14,
219,./greyInner/notfamousface4_2_cut.png,0,139,139,218,,,2.nein,2.017,None,None,None,music,1.536,None,None,None,,['return'],[0.20038609196308244],2017_Feb_08_1228,60.0201389705,famFaceGrey,001,14,
105,./greyInner/JimParsons(SheldonCooper)9_3_cut.png,0,140,140,104,,,1.ja,1.708,None,act,0.679,None,None,None,None,None,,['return'],[1.4501371659389406],2017_Feb_08_1228,60.0201389705,famFaceGrey,001,14,
18,./greyInner/BastianSchweinsteiger14_1_cut.png,0,141,141,17,,,2.nein,1.13,None,None,None,None,None,sport,1.363,None,,['return'],[0.35052858286690025],2017_Feb_08_1228,60.0201389705,famFaceGrey,001,14,
26,./greyInner/Beyonce1_1_cut.png,0,142,142,25,,,2.nein,38.475,None,None,None,music,0.704,None,None,None,,['return'],[0.40030352294525073],2017_Feb_08_1228,60.0201389705,famFaceGrey,001,14,
112,./greyInner/JoshRadnor(Ted)3_1_cut.png,0,143,143,111,,,1.ja,2.248,None,act,3.802,None,None,None,None,None,,['return'],[0.26704726258503797],2017_Feb_08_1228,60.0201389705,famFaceGrey,001,14,
129,./greyInner/KatjaBurkard5_3_cut.png,0,144,144,128,,,2.nein,1.269,None,None,None,host,3.635,None,None,None,,['return'],[0.300166613629699],2017_Feb_08_1228,60.0201389705,famFaceGrey,001,14,
82,./greyInner/HughLaurie(DrHouse)4_1_cut.png,0,145,145,81,,,1.ja,3.941,None,act,0.91,None,None,None,None,None,doktor haus,"['d', 'o', 'k', 't', 'o', 'r', 'space', 'h', 'a', 'u', 's', 'return']","[1.4496896764976555, 1.5831454626168124, 1.7495794561600633, 2.3495081786313676, 2.7993162233033217, 2.882447892339769, 3.315606763600954, 4.565020376005123, 5.81464409993896, 5.931393613635009, 6.414494551854659, 6.547690505396531]",2017_Feb_08_1228,60.0201389705,famFaceGrey,001,14,
66,./greyInner/EmmaWatson(HermioneGranger)11_2_cut.png,0,146,146,65,,,1.ja,9.359,None,act,0.745,None,None,None,None,None,lindsey lohan,"['l', 'i', 'n', 'd', 's', 'e', 'y', 'space', 'l', 'o', 'h', 'a', 'n', 'return']","[0.9999037657107692, 1.2664522139020846, 1.5494419694405224, 2.3493291828544898, 2.5658608221219765, 2.749117210796612, 3.365668802640357, 3.565353346642951, 4.41526570928545, 4.615246013334399, 5.964497567196304, 6.064561338451313, 6.19771238265821, 6.997521004735972]",2017_Feb_08_1228,60.0201389705,famFaceGrey,001,14,
171,./greyInner/SahraWagenknecht12_1_cut.png,0,147,147,170,,,2.nein,1.829,None,None,None,music,1.112,None,None,None,,['return'],[0.3169973490657867],2017_Feb_08_1228,60.0201389705,famFaceGrey,001,14,
151,./greyInner/NeilPatrickHarris(Barney)1_1_cut.png,0,148,148,150,,,1.ja,1.378,None,act,2.759,None,None,None,None,None,,['return'],[3.6161409922151506],2017_Feb_08_1228,60.0201389705,famFaceGrey,001,14,
38,./greyInner/CarenMiosga2_11_cut.png,0,149,149,37,,,2.nein,4.256,None,None,None,host,1.669,None,None,None,,['return'],[0.40044113797739556],2017_Feb_08_1228,60.0201389705,famFaceGrey,001,14,
37,./greyInner/CarenMiosga13_1_cut.png,0,150,150,36,,,2.nein,1.545,None,None,None,None,None,polit,0.963,None,,['return'],[0.23370528954910696],2017_Feb_08_1228,60.0201389705,famFaceGrey,001,14,
203,./greyInner/Usher2_1_cut.png,0,151,151,202,,,1.ja,2.211,None,None,None,music,0.599,None,None,None,,['return'],[1.4660735640572966],2017_Feb_08_1228,60.0201389705,famFaceGrey,001,14,
109,./greyInner/JoachimLoew4_1_cut.png,0,152,152,108,,,2.nein,1.528,None,None,None,None,None,polit,0.88,None,,['return'],[0.1504327976708737],2017_Feb_08_1228,60.0201389705,famFaceGrey,001,14,
166,./greyInner/RobertSeanLeonard(Wilson)1_1_cut.png,0,153,153,165,,,1.ja,1.734,None,act,0.706,None,None,None,None,None,patrik,"['p', 'a', 't', 'r', 'i', 'k', 'return']","[9.930011689259118, 10.1128545912743, 10.6128555536161, 10.763194041686802, 10.896293119376423, 11.129484517827223, 11.86208760399677]",2017_Feb_08_1228,60.0201389705,famFaceGrey,001,14,
86,./greyInner/Ice-T(OdafinFinTutuola)10_1_cut.png,0,154,154,85,,,2.nein,2.014,None,None,None,None,None,polit,6.928,None,,['return'],[0.25019952575712523],2017_Feb_08_1228,60.0201389705,famFaceGrey,001,14,
207,./greyInner/WillSmith14_1_cut.png,0,155,155,206,,,2.nein,1.611,None,None,None,music,2.509,None,None,None,,['return'],[0.6172184954593831],2017_Feb_08_1228,60.0201389705,famFaceGrey,001,14,
169,./greyInner/RobertSeanLeonard(Wilson)2_6_cut.png,0,156,156,168,,,1.ja,2.142,None,dummy,1.811,None,None,None,None,None,patrik,"['p', 'a', 't', 'r', 'i', 'k', 'return']","[1.7828043441440968, 1.9494818104358274, 2.3663912013635127, 2.5497730153911107, 2.6830831669540203, 2.865683558564342, 3.4495135677516373]",2017_Feb_08_1228,60.0201389705,famFaceGrey,001,14,
111,./greyInner/JoshRadnor(Ted)1_2_cut.png,0,157,157,110,,,1.ja,2.297,None,act,0.906,None,None,None,None,None,,['return'],[0.5497435035449598],2017_Feb_08_1228,60.0201389705,famFaceGrey,001,14,
211,./greyInner/notfamousface10_4_cut.png,0,158,158,210,,,2.nein,1.256,None,None,None,host,3.47,None,None,None,,['return'],[0.1333829688410333],2017_Feb_08_1228,60.0201389705,famFaceGrey,001,14,
42,./greyInner/CobieSmulders(Robin)2_1_cut.png,0,159,159,41,,,2.nein,2.096,None,None,None,music,0.78,None,None,None,,['return'],[0.13277829672915686],2017_Feb_08_1228,60.0201389705,famFaceGrey,001,14,
161,./greyInner/OmarEpps(DrEricForeman)1_5_cut.png,0,160,160,160,,,1.ja,2.404,None,None,None,music,1.363,None,None,None,rep,"['r', 'e', 'p', 'return']","[2.6157749811372923, 2.7829102018604317, 3.1321325646549667, 5.26468759783711]",2017_Feb_08_1228,60.0201389705,famFaceGrey,001,14,
143,./greyInner/MariskaHargitay(Liv)4_4_cut.png,0,161,161,142,,,2.nein,1.813,None,None,None,None,None,sport,1.728,None,,['return'],[0.1668452347348648],2017_Feb_08_1228,60.0201389705,famFaceGrey,001,14,
191,./greyInner/TomCruise1_1_cut.png,0,162,162,190,,,1.ja,4.463,None,dummy,0.581,None,None,None,None,None,,['return'],[1.516241781591816],2017_Feb_08_1228,60.0201389705,famFaceGrey,001,14,
198,./greyInner/UrsulavonderLeyen5_1_cut.png,0,163,163,197,,,2.nein,1.228,None,None,None,None,None,polit,0.978,None,,['return'],[0.18331733705599618],2017_Feb_08_1228,60.0201389705,famFaceGrey,001,14,
170,./greyInner/RobertSeanLeonard(Wilson)8_1_cut.png,0,164,164,169,,,1.ja,3.41,None,dummy,2.53,None,None,None,None,None,,['return'],[0.38346284329963964],2017_Feb_08_1228,60.0201389705,famFaceGrey,001,14,
55,./greyInner/DannFlorek(DonaldDonCragen)8_1_cut.png,0,165,165,54,,,2.nein,1.222,None,None,None,None,None,polit,0.724,None,,['return'],[0.18346072614440345],2017_Feb_08_1228,60.0201389705,famFaceGrey,001,14,
217,./greyInner/notfamousface2_cut.png,0,166,166,216,,,2.nein,3.024,None,None,None,music,13.503,None,None,None,,['return'],[0.13394080693069554],2017_Feb_08_1228,60.0201389705,famFaceGrey,001,14,
31,./greyInner/BritneySpears1_1_cut.png,0,167,167,30,,,2.nein,2.242,None,None,None,music,18.269,None,None,None,,['return'],[0.21689091394364368],2017_Feb_08_1228,60.0201389705,famFaceGrey,001,14,
187,./greyInner/TaylorSwift2_1_cut.png,0,168,168,186,,,2.nein,1.527,None,None,None,None,None,sport,3.074,None,,['return'],[0.23358275122336636],2017_Feb_08_1228,60.0201389705,famFaceGrey,001,14,
50,./greyInner/CristinMilioti(Tracy_Mutter)9_1_cut.png,0,169,169,49,,,2.nein,1.935,None,None,None,None,None,sport,1.136,None,,['return'],[0.08369496040177182],2017_Feb_08_1228,60.0201389705,famFaceGrey,001,14,
2,./greyInner/AlysonHannigan(Lily)12_2_cut.png,0,170,170,1,,,1.ja,2.531,None,act,4.149,None,None,None,None,None,,['return'],[0.43372120028652716],2017_Feb_08_1228,60.0201389705,famFaceGrey,001,14,
189,./greyInner/TaylorSwift7_1_cut.png,0,171,171,188,,,2.nein,1.498,None,None,None,None,None,sport,4.729,None,,['return'],[0.533575180792468],2017_Feb_08_1228,60.0201389705,famFaceGrey,001,14,
182,./greyInner/SigmarGabriel11_3_cut.png,0,172,172,181,,,2.nein,1.874,None,None,None,None,None,polit,1.485,None,,['return'],[0.03365537603167468],2017_Feb_08_1228,60.0201389705,famFaceGrey,001,14,
80,./greyInner/GeorgeClooney4_2_cut.png,0,173,173,79,,,1.ja,2.716,None,None,None,host,1.1,None,None,None,,['return'],[0.8166903616875061],2017_Feb_08_1228,60.0201389705,famFaceGrey,001,14,
107,./greyInner/JoachimLoew12_1_cut.png,0,174,174,106,,,2.nein,1.53,None,None,None,music,9.693,None,None,None,,['return'],[0.6003508702142426],2017_Feb_08_1228,60.0201389705,famFaceGrey,001,14,
57,./greyInner/ElvisPresley2_1_cut.png,0,175,175,56,,,2.nein,13.472,None,None,None,music,2.077,None,None,None,,['return'],[0.23368411800765898],2017_Feb_08_1228,60.0201389705,famFaceGrey,001,14,
113,./greyInner/JoshRadnor(Ted)6_2_cut.png,0,176,176,112,,,1.ja,1.863,None,act,0.646,None,None,None,None,None,,['return'],[0.5002646442935657],2017_Feb_08_1228,60.0201389705,famFaceGrey,001,14,
87,./greyInner/Ice-T(OdafinFinTutuola)12_1_cut.png,0,177,177,86,,,1.ja,4.095,None,None,None,None,None,polit,2.246,None,schwarzneger,"['s', 'c', 'h', 'w', 'a', 'r', 'z', 'n', 'e', 'g', 'e', 'r', 'return']","[10.229904676729348, 10.446444656301537, 10.796357339724636, 11.562512189675545, 11.795700380316703, 12.0623742538628, 12.34568094099086, 13.661578652923708, 14.711337874736273, 15.011097096547019, 15.344328207680519, 15.527677622832925, 16.077569647961354]",2017_Feb_08_1228,60.0201389705,famFaceGrey,001,14,
197,./greyInner/UrsulavonderLeyen4_1_cut.png,0,178,178,196,,,2.nein,17.223,None,None,None,None,None,polit,0.813,None,,['return'],[0.5670987158500793],2017_Feb_08_1228,60.0201389705,famFaceGrey,001,14,
13,./greyInner/BarackObama2_1_cut.png,0,179,179,12,,,1.ja,1.848,None,None,None,None,None,polit,1.503,None,obama,"['o', 'b', 'a', 'm', 'a', 'return']","[1.2500664016588416, 1.6332302771024843, 2.099827676467612, 2.216470370103707, 2.2831158224562387, 2.8327361461106193]",2017_Feb_08_1228,60.0201389705,famFaceGrey,001,14,
165,./greyInner/OmarEpps(DrEricForeman)9_1_cut.png,0,180,180,164,,,1.ja,2.313,None,None,None,music,0.929,None,None,None,,['return'],[0.3172279905757023],2017_Feb_08_1228,60.0201389705,famFaceGrey,001,14,
81,./greyInner/HughLaurie(DrHouse)2_1_cut.png,0,181,181,80,,,1.ja,1.283,None,act,88.05,None,None,None,None,None,chyu lori,"['c', 'h', 'y', 'u', 'space', 'l', 'o', 'r', 'i', 'return']","[1.9660405236172664, 3.0658133465403807, 4.831792087745271, 4.914995932496822, 5.548134466245756, 6.381115689011494, 6.56446317947848, 7.0476568233953, 7.114226571440668, 7.797304285120845]",2017_Feb_08_1228,60.0201389705,famFaceGrey,001,14,
28,./greyInner/Beyonce3_2_cut.png,0,182,182,27,,,2.nein,4.827,None,None,None,music,0.743,None,None,None,,['return'],[0.5346430606095964],2017_Feb_08_1228,60.0201389705,famFaceGrey,001,14,
128,./greyInner/KatjaBurkard4_1_cut.png,0,183,183,127,,,2.nein,1.918,None,None,None,None,None,polit,0.918,None,,['return'],[0.05073022577926167],2017_Feb_08_1228,60.0201389705,famFaceGrey,001,14,
62,./greyInner/EmilyDeschanel3_1_cut.png,0,184,184,61,,,2.nein,2.451,None,None,None,music,0.589,None,None,None,,['return'],[0.300528133773696],2017_Feb_08_1228,60.0201389705,famFaceGrey,001,14,
140,./greyInner/LisaEdelstein(DrLisaCuddy)9_1_cut.png,0,185,185,139,,,2.nein,1.712,None,None,None,music,1.829,None,None,None,brasil,"['b', 'r', 'a', 's', 'i', 'l', 'return']","[0.8833573063639051, 1.3999782510509249, 2.132759370651911, 2.3327935659035575, 2.732774703983523, 2.9820747599260358, 3.532452768211442]",2017_Feb_08_1228,60.0201389705,famFaceGrey,001,14,
61,./greyInner/EmilyDeschanel15_1_cut.png,0,186,186,60,,,2.nein,3.06,None,act,1.177,None,None,None,None,None,,['return'],[0.2501825243653002],2017_Feb_08_1228,60.0201389705,famFaceGrey,001,14,
39,./greyInner/CarenMiosga6_2_cut.png,0,187,187,38,,,2.nein,1.079,None,None,None,None,None,sport,0.796,None,,['return'],[0.15037730256517534],2017_Feb_08_1228,60.0201389705,famFaceGrey,001,14,
115,./greyInner/JoshRadnor(Ted)9_1_cut.png,0,188,188,114,,,1.ja,1.73,None,act,0.63,None,None,None,None,None,,['return'],[2.882889607724792],2017_Feb_08_1228,60.0201389705,famFaceGrey,001,14,
150,./greyInner/MilaKunis7_3_cut.png,0,189,189,149,,,2.nein,1.974,None,dummy,5.64,None,None,None,None,None,,['return'],[0.516921195667237],2017_Feb_08_1228,60.0201389705,famFaceGrey,001,14,
104,./greyInner/JimParsons(SheldonCooper)8_1_cut.png,0,190,190,103,,,1.ja,1.576,None,dummy,0.477,None,None,None,None,None,,['return'],[0.36712354429619154],2017_Feb_08_1228,60.0201389705,famFaceGrey,001,14,
77,./greyInner/GeorgeClooney15_1_cut.png,0,191,191,76,,,1.ja,1.892,None,None,None,host,0.541,None,None,None,,['return'],[0.2503579915519367],2017_Feb_08_1228,60.0201389705,famFaceGrey,001,14,
180,./greyInner/Shakira9_1_cut.png,0,192,192,179,,,2.nein,1.877,None,None,None,music,1.11,None,None,None,,['return'],[0.23393913887048257],2017_Feb_08_1228,60.0201389705,famFaceGrey,001,14,
119,./greyInner/JudithRakers7_1_cut.png,0,193,193,118,,,2.nein,2.045,None,None,None,None,None,sport,1.345,None,,['return'],[0.11739717045566067],2017_Feb_08_1228,60.0201389705,famFaceGrey,001,14,
135,./greyInner/LeonardoDiCaprio7_1_cut.png,0,194,194,134,,,1.ja,3.953,None,act,0.687,None,None,None,None,None,,['return'],[0.23357954341372533],2017_Feb_08_1228,60.0201389705,famFaceGrey,001,14,
149,./greyInner/MilaKunis5_2_cut.png,0,195,195,148,,,2.nein,1.126,None,None,None,music,5.492,None,None,None,,['return'],[0.21707151362534205],2017_Feb_08_1228,60.0201389705,famFaceGrey,001,14,
7,./greyInner/AngelaMerkel3_1_cut.png,0,196,196,6,,,1.ja,3.352,None,None,None,None,None,polit,1.371,None,merkel,"['m', 'e', 'r', 'k', 'e', 'l', 'return']","[0.7333562798648927, 1.3996683766417846, 1.5330766871793458, 1.8994919471133471, 2.282806589610118, 2.6323410722798144, 3.4822454153982108]",2017_Feb_08_1228,60.0201389705,famFaceGrey,001,14,
96,./greyInner/JasonSegel(Marshall)11_1_cut.png,0,197,197,95,,,2.nein,1.696,None,None,None,music,4.328,None,None,None,,['return'],[0.18395633273030398],2017_Feb_08_1228,60.0201389705,famFaceGrey,001,14,
35,./greyInner/BritneySpears8_5_cut.png,0,198,198,34,,,1.ja,3.288,None,None,None,music,1.422,None,None,None,britney spirs,"['b', 'r', 'i', 't', 'n', 'e', 'y', 'space', 's', 'p', 'i', 'r', 's', 'return']","[0.9001954197610758, 1.349714120007775, 1.766154849950908, 2.199605311105188, 2.5828137751032045, 3.3659831679815397, 3.7990220671636052, 4.748625774365792, 5.165012933888647, 5.61496853780227, 5.964847539224138, 6.814642175253539, 6.997472246030156, 8.047386725826073]",2017_Feb_08_1228,60.0201389705,famFaceGrey,001,14,
40,./greyInner/CarenMiosga9_1_cut.png,0,199,199,39,,,2.nein,1.379,None,None,None,None,None,sport,6.244,None,,['return'],[0.31706631697306875],2017_Feb_08_1228,60.0201389705,famFaceGrey,001,14,
6,./greyInner/AngelaMerkel1_1_cut.png,0,200,200,5,,,1.ja,1.61,None,None,None,None,None,polit,1.227,None,merkel,"['m', 'e', 'r', 'k', 'e', 'l', 'return']","[0.7835087791336264, 1.2995279387378105, 1.433033125123984, 1.7662273464484315, 2.166010241893673, 2.5162020047519036, 3.0323799509333185]",2017_Feb_08_1228,60.0201389705,famFaceGrey,001,14,
41,./greyInner/CobieSmulders(Robin)12_1_cut.png,0,201,201,40,,,1.ja,11.953,None,dummy,0.943,None,None,None,None,None,,['return'],[0.6502053639705991],2017_Feb_08_1228,60.0201389705,famFaceGrey,001,14,
76,./greyInner/GeorgeClooney11_1_cut.png,0,202,202,75,,,1.ja,4.762,None,act,3.963,None,None,None,None,None,chyu hefner,"['c', 'h', 'y', 'u', 'space', 'h', 'e', 'f', 'n', 'e', 'r', 'return']","[1.8163259545162873, 2.0996278299298865, 3.8489407171127823, 3.965625753835411, 4.148904276395115, 6.381434545286538, 6.481181705734343, 6.68133555228269, 7.197474042404792, 7.347638025632477, 7.51423016418812, 8.363801215888088]",2017_Feb_08_1228,60.0201389705,famFaceGrey,001,14,
174,./greyInner/SahraWagenknecht6_2_cut.png,0,203,203,173,,,2.nein,2.002,None,None,None,None,None,sport,3.701,None,,['return'],[0.2504680194215325],2017_Feb_08_1228,60.0201389705,famFaceGrey,001,14,
181,./greyInner/SigmarGabriel1_2_cut.png,0,204,204,180,,,1.ja,1.795,None,act,0.513,None,None,None,None,None,,['return'],[0.6168223309741734],2017_Feb_08_1228,60.0201389705,famFaceGrey,001,14,
199,./greyInner/UrsulavonderLeyen7_1_cut.png,0,205,205,198,,,2.nein,1.229,None,None,None,None,None,polit,1.846,None,,['return'],[0.6834767651944276],2017_Feb_08_1228,60.0201389705,famFaceGrey,001,14,
45,./greyInner/CobieSmulders(Robin)5_1_cut.png,0,206,206,44,,,1.ja,2.247,None,None,None,music,1.962,None,None,None,,['return'],[0.7169072737724491],2017_Feb_08_1228,60.0201389705,famFaceGrey,001,14,
46,./greyInner/CristinMilioti(Tracy_Mutter)10_1_cut.png,0,207,207,45,,,2.nein,1.46,None,None,None,None,None,sport,4.342,None,,['return'],[0.6500834672060591],2017_Feb_08_1228,60.0201389705,famFaceGrey,001,14,
14,./greyInner/BarackObama4_1_cut.png,0,208,208,13,,,1.ja,1.497,None,None,None,None,None,polit,1.081,None,obama,"['o', 'b', 'a', 'm', 'a', 'return']","[1.149977288707305, 1.599946365422511, 2.133084642546237, 2.232915847605909, 2.299607813198236, 2.9325997500473022]",2017_Feb_08_1228,60.0201389705,famFaceGrey,001,14,
124,./greyInner/KaleyCuoco(Penny)5_2_cut.png,0,209,209,123,,,1.ja,4.484,None,None,None,music,1.385,None,None,None,spirs,"['s', 'p', 'i', 'r', 's', 'return']","[0.6833943244855618, 1.349999294281588, 1.666547550003088, 2.3492685552537296, 2.865902651959914, 3.21592889184285]",2017_Feb_08_1228,60.0201389705,famFaceGrey,001,14,
12,./greyInner/BarackObama11_2_cut.png,0,210,210,11,,,1.ja,1.167,None,None,None,None,None,polit,0.772,None,obama,"['o', 'b', 'a', 'm', 'a', 'return']","[0.5169728414020938, 1.5333458224049537, 1.8664643394222367, 2.2163587383311096, 2.5661248248543416, 3.2325504780928895]",2017_Feb_08_1228,60.0201389705,famFaceGrey,001,14,
23,./greyInner/BenedictCumberbatch3_9_cut.png,0,211,211,22,,,1.ja,1.743,None,act,1.874,None,None,None,None,None,,['return'],[0.10051799709435727],2017_Feb_08_1228,60.0201389705,famFaceGrey,001,14,
154,./greyInner/NeilPatrickHarris(Barney)2_2_cut.png,0,212,212,153,,,1.ja,1.314,None,act,0.73,None,None,None,None,None,,['return'],[0.2335262937722291],2017_Feb_08_1228,60.0201389705,famFaceGrey,001,14,
164,./greyInner/OmarEpps(DrEricForeman)5_2_cut.png,0,213,213,163,,,1.ja,1.812,None,None,None,music,0.733,None,None,None,,['return'],[0.11762235868991411],2017_Feb_08_1228,60.0201389705,famFaceGrey,001,14,
69,./greyInner/EmmaWatson(HermioneGranger)4_1_cut.png,0,214,214,68,,,1.ja,3.842,None,act,29.365,None,None,None,None,None,germiona harry poter,"['e', 'm', 'm', 'a', 'space', 'u', 'o', 't', 's', 'o', 'n', 'backspace', 'backspace', 'backspace', 'backspace', 'backspace', 'backspace', 'backspace', 'backspace', 'backspace', 'backspace', 'backspace', 'g', 'e', 'r', 'm', 'i', 'o', 'n', 'a', 'space', 'h', 'a', 'r', 'r', 'y', 'space', 'p', 'o', 't', 't', 'e', 'r', 'backspace', 'backspace', 'backspace', 'e', 'r', 'return']","[0.7500773082119849, 1.1165503087195248, 1.832941445925826, 2.132875814142608, 2.4325314237030398, 5.015080875295098, 5.264821684279013, 6.231165666686138, 7.380788171651147, 7.730646322310349, 8.413581930022701, 10.246408215585689, 10.445969900480122, 10.596094748430914, 10.762750401618177, 10.912541316587522, 11.295926210113976, 24.274079422799332, 24.457478238218755, 24.607129292689933, 24.873939177363354, 25.257138017932448, 25.840087162601776, 26.156519616397418, 26.290040521051196, 26.75625683263388, 27.006304949778496, 27.139725129211, 28.188959232589696, 28.555837700230768, 28.972072809579913, 30.05523431124493, 30.388438155996482, 30.70488985664997, 30.838298487966313, 31.521331613092116, 32.28757403624513, 32.75405402977776, 32.970727775011255, 33.620356374814946, 33.77033109727563, 33.98700003079466, 34.153535391122205, 35.76961928432502, 35.90285469392438, 36.06940513095469, 36.9358973783219, 37.36901262337233, 38.95169840687413]",2017_Feb_08_1228,60.0201389705,famFaceGrey,001,14,
91,./greyInner/JanHofer1_3_cut.png,0,215,215,90,,,2.nein,1.613,None,None,None,None,None,polit,2.212,None,,['return'],[0.5672068190342543],2017_Feb_08_1228,60.0201389705,famFaceGrey,001,14,
36,./greyInner/CarenMiosga1_1_cut.png,0,216,216,35,,,1.ja,2.643,None,None,None,None,None,polit,2.677,None,,['return'],[0.30039597201903234],2017_Feb_08_1228,60.0201389705,famFaceGrey,001,14,
168,./greyInner/RobertSeanLeonard(Wilson)11_2_cut.png,0,217,217,167,,,1.ja,1.177,None,dummy,0.444,None,None,None,None,None,,['return'],[0.15019574054167606],2017_Feb_08_1228,60.0201389705,famFaceGrey,001,14,
172,./greyInner/SahraWagenknecht2_2_cut.png,0,218,218,171,,,1.ja,3.234,None,dummy,1.731,None,None,None,None,None,,['return'],[0.0002883820834540529],2017_Feb_08_1228,60.0201389705,famFaceGrey,001,14,
127,./greyInner/KatjaBurkard10_1_cut.png,0,219,219,126,,,2.nein,1.179,None,None,None,None,None,sport,2.596,None,,['return'],[0.1170192904828582],2017_Feb_08_1228,60.0201389705,famFaceGrey,001,14,
24,./greyInner/BenedictCumberbatch4_1_cut.png,0,220,220,23,,,1.ja,5.078,None,dummy,0.799,None,None,None,None,None,scherlok,"['s', 'c', 'h', 'e', 'r', 'l', 'o', 'k', 'return']","[0.48365332303364994, 0.7169460882687417, 0.9835301431448897, 1.3001156094578619, 1.4499523961039813, 1.9331861376431334, 2.083085476577253, 2.6327988267112232, 4.165574300568551]",2017_Feb_08_1228,60.0201389705,famFaceGrey,001,14,
193,./greyInner/TomCruise5_1_cut.png,0,221,221,192,,,1.ja,4.392,None,act,0.478,None,None,None,None,None,,['return'],[0.3500929623223783],2017_Feb_08_1228,60.0201389705,famFaceGrey,001,14,
159,./greyInner/NicoleKidman7_1_cut.png,0,222,222,158,,,2.nein,1.313,None,None,None,music,0.729,None,None,None,,['return'],[0.16697835883314838],2017_Feb_08_1228,60.0201389705,famFaceGrey,001,14,
11,./greyInner/BarackObama1_3_cut.png,0,223,223,10,,,1.ja,1.369,None,None,None,None,None,polit,1.482,None,obama,"['o', 'b', 'a', 'm', 'a', 'return']","[0.3670808804272383, 1.1167520799426711, 1.4166444258535194, 1.783122558856121, 2.1330807931753952, 2.7661067328062927]",2017_Feb_08_1228,60.0201389705,famFaceGrey,001,14,
