num,pic,trials.thisRepN,trials.thisTrialN,trials.thisN,trials.thisIndex,key_resp_2.keys,key_resp_2.rt,ratingBekannt.response,ratingBekannt.rt,key_resp_5.keys,ratingK1.response,ratingK1.rt,ratingK2.response,ratingK2.rt,ratingK3.response,ratingK3.rt,key_resp_6.keys,inputText,key_resp_4.keys,key_resp_4.rt,date,frameRate,expName,session,participant,
,,,,,,space,48.0459797805,,,,,,,,,,,,,,2017_Feb_08_1444,60.0223346647,famFaceGrey,001,15,
3,./greyInner/AlysonHannigan(Lily)14_2_cut.png,0,0,0,2,,,2.nein,12.794,None,dummy,7.791,None,None,None,None,None, ,"['space', 'return']","[3.5490445218310924, 4.381768157483748]",2017_Feb_08_1444,60.0223346647,famFaceGrey,001,15,
33,./greyInner/BritneySpears5_1_cut.png,0,1,1,32,,,1.ja,2.794,None,None,None,music,1.611,None,None,None,Britney Spears ,"['lshift', 'b', 'r', 'i', 't', 'n', 'e', 'y', 'space', 'lshift', 's', 'p', 'e', 'a', 'r', 's', 'space', 'return']","[2.43329392004307, 2.550122987417126, 3.567184043582529, 3.7662908610764134, 3.9161792934573896, 4.099395263732731, 4.232816405507037, 4.5658502363512525, 5.332234765468456, 5.715419812455366, 5.898659841303015, 6.081869075173017, 6.198678574910446, 6.465011137512192, 7.44813485117993, 7.648074736829585, 7.831283970703225, 10.196830555796623]",2017_Feb_08_1444,60.0223346647,famFaceGrey,001,15,
127,./greyInner/KatjaBurkard10_1_cut.png,0,2,2,126,,,2.nein,3.329,None,None,None,host,5.026,None,None,None,,['return'],[3.8986085163487587],2017_Feb_08_1444,60.0223346647,famFaceGrey,001,15,
159,./greyInner/NicoleKidman7_1_cut.png,0,3,3,158,,,2.nein,3.178,None,act,11.324,None,None,None,None,None,Nicole Kidman,"['lshift', 'n', 'i', 'c', 'o', 'l', 'e', 'space', 'lshift', 'k', 'i', 't', 'm', 'backspace', 'backspace', 'd', 'm', 'a', 'n', 'return']","[8.2806041075346, 8.430580754680705, 8.980394830035948, 9.813216303886293, 10.213202253678901, 10.46307907379014, 10.862908803257596, 10.979559195635375, 11.212787163116445, 11.41272191626922, 11.695891309147555, 11.862528357036354, 12.02873331297451, 12.562181143726775, 12.762028323675622, 12.995361186531227, 13.77836698111787, 13.895203105672408, 14.011589495323278, 20.59224569768776]",2017_Feb_08_1444,60.0223346647,famFaceGrey,001,15,
185,./greyInner/SigmarGabriel8_2_cut.png,0,4,4,184,,,2.nein,29.485,None,act,3.862,None,None,None,None,None,,['return'],[2.666243128871429],2017_Feb_08_1444,60.0223346647,famFaceGrey,001,15,
131,./greyInner/LeonardoDiCaprio1_1_cut.png,0,5,5,130,,,1.ja,3.284,None,act,3.352,None,None,None,None,None,Leonardo Di Caprio,"['lshift', 'l', 'e', 'o', 'n', 'a', 'r', 'd', 'o', 'space', 'lshift', 'lshift', 'd', 'i', 'lshift', 'space', 'lshift', 'c', 'capslock', 'capslock', 'a', u'\xfc', 'backspace', 'p', 'r', 'i', 'o', 'return']","[2.0661440717085497, 2.2661234134138795, 2.4661030759016285, 2.5494323460115993, 3.0492514255493006, 4.032220522793068, 4.248786485622986, 4.498662022611825, 4.615217463826411, 4.898291905541555, 5.131627334641962, 5.481622779552708, 5.631586274677829, 5.947997236147785, 6.198045994857239, 6.431233543935377, 6.456622073834296, 6.614330825250363, 6.914191413845401, 7.76397706800708, 8.013638964876009, 8.213890328835987, 8.98015231962927, 9.379801770195627, 9.563249023540266, 9.729736266723194, 10.09647326996128, 10.462723006923625]",2017_Feb_08_1444,60.0223346647,famFaceGrey,001,15,
141,./greyInner/MariskaHargitay(Liv)13_1_cut.png,0,6,6,140,,,2.nein,2.595,None,act,4.327,None,None,None,None,None,,['return'],[1.6833106006561138],2017_Feb_08_1444,60.0223346647,famFaceGrey,001,15,
193,./greyInner/TomCruise5_1_cut.png,0,7,7,192,,,1.ja,2.46,None,dummy,1.411,None,None,None,None,None,Tom Cruise,"['lshift', 't', 'o', 'm', 'space', 'lshift', 'c', 'r', 'u', 'i', 's', 'e', 'return']","[1.3831683663775038, 1.7498149093844404, 1.9330687318106357, 2.1662796978998813, 2.3993142344625085, 2.4329214933495678, 3.499218577580905, 3.898867386586062, 3.948862382399966, 4.515254097015713, 4.731962807371019, 4.965202322968253, 5.38177553544665]",2017_Feb_08_1444,60.0223346647,famFaceGrey,001,15,
219,./greyInner/notfamousface4_2_cut.png,0,8,8,218,,,2.nein,2.766,None,None,None,None,None,sport,1.831,None,,['return'],[1.700013665271399],2017_Feb_08_1444,60.0223346647,famFaceGrey,001,15,
174,./greyInner/SahraWagenknecht6_2_cut.png,0,9,9,173,,,2.nein,2.457,None,None,None,None,None,polit,1.89,None,,['return'],[1.2664868582469353],2017_Feb_08_1444,60.0223346647,famFaceGrey,001,15,
119,./greyInner/JudithRakers7_1_cut.png,0,10,10,118,,,2.nein,1.878,None,None,None,host,1.828,None,None,None,,['return'],[0.700790596754814],2017_Feb_08_1444,60.0223346647,famFaceGrey,001,15,
183,./greyInner/SigmarGabriel3_3_cut.png,0,11,11,182,,,2.nein,2.25,None,None,None,host,4.587,None,None,None,,['return'],[1.0832237331742363],2017_Feb_08_1444,60.0223346647,famFaceGrey,001,15,
160,./greyInner/NicoleKidman8_2_cut.png,0,12,12,159,,,2.nein,2.36,None,None,None,music,3.275,None,None,None,,['return'],[0.8500573556339077],2017_Feb_08_1444,60.0223346647,famFaceGrey,001,15,
210,./greyInner/WillSmith6_1_cut.png,0,13,13,209,,,1.ja,5.561,None,act,0.896,None,None,None,None,None,Will Smith,"['lshift', 'w', 'i', 'l', 'l', 'space', 'lshift', 's', 'm', 'm', 'backspace', 'i', 't', 'h', 'return']","[2.249662859212549, 2.449659523088485, 2.6995199833727384, 2.8993046110335854, 3.0493361117260065, 3.2657480996931554, 3.2991038663094514, 3.432485872806865, 3.932380977432331, 4.1822173791442765, 4.515416732963786, 4.7820238840686216, 4.898472505221434, 5.081867792054254, 5.6483082653721794]",2017_Feb_08_1444,60.0223346647,famFaceGrey,001,15,
197,./greyInner/UrsulavonderLeyen4_1_cut.png,0,14,14,196,,,1.ja,4.694,None,None,None,None,None,polit,2.029,None,Ursula von der Leyen,"['lshift', 'u', 'r', 's', 'u', 'l', 'a', 'space', 'v', 'o', 'n', 'space', 'd', 'e', 'r', 'space', 'lshift', 'l', 'e', 'y', 'e', 'n', 'return']","[2.3496499638131354, 3.0660738206788665, 3.2992937686358346, 3.5159434552952007, 3.665761957428913, 3.98223932055771, 4.215552615773049, 4.365379137430864, 4.732031133713463, 5.298144410455279, 5.515109104017029, 5.71491201619574, 5.781148152043897, 5.964833104080753, 6.09807011758312, 6.164647243593208, 6.347898820549744, 6.414671622944297, 6.647797261299274, 6.864432192036475, 7.014417821050301, 7.114422889386333, 8.430623418549658]",2017_Feb_08_1444,60.0223346647,famFaceGrey,001,15,
103,./greyInner/JimParsons(SheldonCooper)6_1_cut.png,0,15,15,102,,,2.nein,2.709,None,None,None,music,2.611,None,None,None,,['return'],[0.8667171148190391],2017_Feb_08_1444,60.0223346647,famFaceGrey,001,15,
10,./greyInner/AngelaMerkel6_1_cut.png,0,16,16,9,,,2.nein,2.362,None,None,None,None,None,polit,2.916,None,,['return'],[0.7834596996472101],2017_Feb_08_1444,60.0223346647,famFaceGrey,001,15,
120,./greyInner/JudithRakers8_1_cut.png,0,17,17,119,,,2.nein,2.107,None,dummy,2.091,None,None,None,None,None,,['return'],[0.899851221791323],2017_Feb_08_1444,60.0223346647,famFaceGrey,001,15,
214,./greyInner/notfamousface1_2_cut.png,0,18,18,213,,,2.nein,3.236,None,None,None,music,2.607,None,None,None,,['return'],[0.9000693528469128],2017_Feb_08_1444,60.0223346647,famFaceGrey,001,15,
148,./greyInner/MilaKunis4_1_cut.png,0,19,19,147,,,2.nein,1.997,None,act,1.58,None,None,None,None,None,,['return'],[0.9999807531421538],2017_Feb_08_1444,60.0223346647,famFaceGrey,001,15,
142,./greyInner/MariskaHargitay(Liv)14_1_cut.png,0,20,20,141,,,2.nein,2.312,None,act,1.046,None,None,None,None,None,,['return'],[0.8668957898153167],2017_Feb_08_1444,60.0223346647,famFaceGrey,001,15,
166,./greyInner/RobertSeanLeonard(Wilson)1_1_cut.png,0,21,21,165,,,2.nein,2.257,None,None,None,None,None,sport,1.255,None,,['return'],[0.7838395043036144],2017_Feb_08_1444,60.0223346647,famFaceGrey,001,15,
181,./greyInner/SigmarGabriel1_2_cut.png,0,22,22,180,,,2.nein,2.48,None,None,None,host,4.661,None,None,None,,['return'],[0.7336623049013724],2017_Feb_08_1444,60.0223346647,famFaceGrey,001,15,
138,./greyInner/LisaEdelstein(DrLisaCuddy)2_2_cut.png,0,23,23,137,,,2.nein,2.724,None,dummy,0.891,None,None,None,None,None,,['return'],[0.8999817796393472],2017_Feb_08_1444,60.0223346647,famFaceGrey,001,15,
102,./greyInner/JimParsons(SheldonCooper)10_1_cut.png,0,24,24,101,,,1.ja,10.326,None,act,0.796,None,None,None,None,None,Big Bang Theory,"['lshift', 'b', 'i', 'g', 'space', 'lshift', 'b', 'a', 'n', 'g', 'space', 'lshift', 't', 'h', 'e', 'o', 'r', 'x', 'backspace', 'y', 'return']","[2.4162566016711935, 2.5825940401446132, 2.8160452711745165, 2.982595708206645, 3.1659181777577032, 3.715646925378678, 3.86564506484865, 4.015507193191297, 4.148845894258557, 4.881965758555452, 4.998510293218715, 5.198305827434524, 5.731439613624389, 5.8814528297989455, 6.148145308641688, 6.3147371264167305, 6.431257602507685, 7.197640527720068, 7.714126423623384, 8.230595959699713, 8.363937547794194]",2017_Feb_08_1444,60.0223346647,famFaceGrey,001,15,
80,./greyInner/GeorgeClooney4_2_cut.png,0,25,25,79,,,1.ja,3.516,None,act,2.146,None,None,None,None,None,George Clooney,"['lshift', 'g', 'e', 'o', 'g', 'backspace', 't', 'g', 'r', 'backspace', 'backspace', 'backspace', 'r', 'g', 'e', 'space', 'lshift', 'c', 'l', 'o', 'o', 'n', 'e', 'y', 'return']","[1.7663870953692822, 1.9163650256377878, 2.0995396151665773, 2.299471160509711, 2.4827256244971068, 2.999092510664923, 3.4490994395346206, 3.6822860262691393, 3.8989716403993953, 4.232090798977879, 4.398508432692324, 4.564999204463675, 4.66530227831754, 4.865119946418417, 5.065081003609521, 5.215048348109121, 5.448155381167453, 5.814663346798625, 6.014677974410006, 6.197947194323206, 6.38125939888414, 6.614657701054966, 6.681167783841374, 6.9477742933850095, 7.1144289842304715]",2017_Feb_08_1444,60.0223346647,famFaceGrey,001,15,
191,./greyInner/TomCruise1_1_cut.png,0,26,26,190,,,1.ja,2.896,None,act,1.913,None,None,None,None,None,,['return'],[1.7664432320343622],2017_Feb_08_1444,60.0223346647,famFaceGrey,001,15,
195,./greyInner/TomCruise7_1_cut.png,0,27,27,194,,,1.ja,3.713,None,dummy,2.23,None,None,None,None,None,,['return'],[0.899726117215323],2017_Feb_08_1444,60.0223346647,famFaceGrey,001,15,
92,./greyInner/JanHofer3_1_cut.png,0,28,28,91,,,2.nein,2.18,None,None,None,host,1.93,None,None,None,,['return'],[1.1000717907772923],2017_Feb_08_1444,60.0223346647,famFaceGrey,001,15,
29,./greyInner/Beyonce5_3_cut.png,0,29,29,28,,,2.nein,2.759,None,dummy,0.992,None,None,None,None,None,,['return'],[0.9665884174974053],2017_Feb_08_1444,60.0223346647,famFaceGrey,001,15,
124,./greyInner/KaleyCuoco(Penny)5_2_cut.png,0,30,30,123,,,2.nein,2.068,None,None,None,music,2.349,None,None,None,,['return'],[0.8332869270197989],2017_Feb_08_1444,60.0223346647,famFaceGrey,001,15,
50,./greyInner/CristinMilioti(Tracy_Mutter)9_1_cut.png,0,31,31,49,,,2.nein,2.368,None,None,None,music,0.901,None,None,None,,['return'],[0.6834716326993657],2017_Feb_08_1444,60.0223346647,famFaceGrey,001,15,
70,./greyInner/EmmaWatson(HermioneGranger)9_1_cut.png,0,32,32,69,,,1.ja,5.894,None,act,0.896,None,None,None,None,None,Hermine,"['lshift', 'h', 'e', 'r', 'comma', 'o', 'backspace', 'comma', 'o', 'backspace', 'm', 'i', 'n', 'e', 'return']","[1.6998353110539028, 1.8494751381913375, 2.01634571462273, 2.1996367476422165, 2.3828074877965264, 2.599391093583108, 3.1157717733294703, 3.3991772609915643, 3.6657722224226745, 3.982241566027369, 4.6486316125774465, 4.881828464305727, 5.248335788375698, 5.39827779118059, 6.797683448217867]",2017_Feb_08_1444,60.0223346647,famFaceGrey,001,15,
213,./greyInner/notfamousface12_2_cut.png,0,33,33,212,,,2.nein,2.402,None,None,None,music,2.003,None,None,None,,['return'],[1.283177733181219],2017_Feb_08_1444,60.0223346647,famFaceGrey,001,15,
196,./greyInner/UrsulavonderLeyen1_1_cut.png,0,34,34,195,,,1.ja,3.545,None,None,None,None,None,polit,1.497,None,Ursula von der Leyen,"['lshift', 'u', 'r', 's', 'u', 'l', 'a', 'space', 'v', 'o', 'n', 'space', 'd', 'e', 'r', 'space', 'lshift', 'l', 'e', 'y', 'e', 'n', 'return']","[2.0823473595846735, 2.365673935135419, 2.5992810657080554, 2.7992754841216083, 2.9325256496449583, 3.3492326277846587, 3.4989234590939304, 3.6488734814229247, 3.9821074795836466, 5.098193939033081, 5.314937293736875, 5.481484202176944, 5.598052474630094, 5.764821363496594, 5.897859172022436, 5.981310659677547, 6.181175803361839, 6.231248428171966, 6.464381123707426, 6.664270967525226, 6.8475257522950415, 6.96423933852202, 8.213362644157314]",2017_Feb_08_1444,60.0223346647,famFaceGrey,001,15,
49,./greyInner/CristinMilioti(Tracy_Mutter)8_1_cut.png,0,35,35,48,,,1.ja,2.421,None,act,0.754,None,None,None,None,None,,['return'],[0.999777378012368],2017_Feb_08_1444,60.0223346647,famFaceGrey,001,15,
139,./greyInner/LisaEdelstein(DrLisaCuddy)6_3_cut.png,0,36,36,138,,,1.ja,1.792,None,None,None,host,2.641,None,None,None,,['return'],[0.6835162212519208],2017_Feb_08_1444,60.0223346647,famFaceGrey,001,15,
136,./greyInner/LisaEdelstein(DrLisaCuddy)1_1_cut.png,0,37,37,135,,,1.ja,1.896,None,None,None,music,1.13,None,None,None,,['return'],[0.8167442528902029],2017_Feb_08_1444,60.0223346647,famFaceGrey,001,15,
207,./greyInner/WillSmith14_1_cut.png,0,38,38,206,,,1.ja,1.657,None,None,None,music,1.574,None,None,None,Will Smith,"['lshift', 'w', 'i', 'l', 'l', 'space', 'lshift', 's', 'm', 'i', 't', 'h', 'return']","[1.283155278513732, 1.4831057499322924, 1.716315753681556, 1.9328361656152993, 2.082986996822001, 2.332769828113669, 2.399417846711003, 2.51600825305286, 2.6660384706192417, 2.898870594392065, 3.2658565236561117, 3.4489785051082436, 3.7989174925714906]",2017_Feb_08_1444,60.0223346647,famFaceGrey,001,15,
89,./greyInner/Ice-T(OdafinFinTutuola)6_1_cut.png,0,39,39,88,,,2.nein,2.136,None,act,2.735,None,None,None,None,None,,['return'],[0.70004638492901],2017_Feb_08_1444,60.0223346647,famFaceGrey,001,15,
146,./greyInner/MilaKunis1_3_cut.png,0,40,40,145,,,1.ja,2.468,None,None,None,music,0.781,None,None,None,,['return'],[0.7337707288679667],2017_Feb_08_1444,60.0223346647,famFaceGrey,001,15,
116,./greyInner/JudithRakers1_1_cut.png,0,41,41,115,,,2.nein,1.945,None,None,None,host,1.328,None,None,None,,['return'],[0.7170452095851942],2017_Feb_08_1444,60.0223346647,famFaceGrey,001,15,
93,./greyInner/JanHofer5_1_cut.png,0,42,42,92,,,1.ja,2.311,None,None,None,host,1.849,None,None,None,,"['pound', 'return']","[1.6665324732966837, 2.016399605821789]",2017_Feb_08_1444,60.0223346647,famFaceGrey,001,15,
19,./greyInner/BastianSchweinsteiger3_1_cut.png,0,43,43,18,,,1.ja,4.428,None,None,None,None,None,sport,1.445,None,Michael Schuhmacher   oder Bastian Schweinsteiger,"['lshift', 'm', 'i', 'c', 'h', 'a', 'l', 'e', 'backspace', 'backspace', 'e', 'l', 'space', 'lshift', 's', 'c', 'h', 'u', 'l', 'backspace', 'h', 'm', 'a', 'backspace', 'backspace', 'm', 'a', 'c', 'h', 'e', 'r', 'space', 'lshift', '7', 'space', 'space', 'd', 'backspace', 'o', 'd', 'e', 'r', 'space', 'lshift', 'b', 'a', 's', 't', 'i', 'a', 'n', 'lshift', 'space', 's', 'c', 'h', 'w', 'e', 'i', 'n', 's', 't', 'e', 'i', 'g', 'e', 'r', 'return']","[1.9833588461115141, 2.666560381239833, 2.8660457202677208, 3.2162166323651036, 3.2995151074974274, 3.5327722660476866, 3.6993082679364306, 3.899259701698611, 4.099107523212297, 4.249129079689737, 4.3656659156113164, 4.481994243906229, 4.898668823170738, 5.03213872365086, 5.232062891031092, 5.448368379722524, 5.475966769656225, 5.681383027862466, 5.931582232838991, 6.414817578282964, 6.814842021791264, 7.24797523057714, 7.364485762456752, 7.664308498897299, 7.797735735512106, 9.89683299373064, 10.030197036496247, 10.246771339632687, 11.096243911575584, 11.146244039890007, 11.42964471583764, 11.662792167298903, 12.062391896815825, 13.028881192996778, 13.345603311998275, 14.59512823539626, 14.978180158286705, 15.627982942150993, 16.427059221296076, 16.510413191539556, 16.660274036756164, 16.826887988419912, 16.853119851464726, 17.126817224139813, 17.86043141189657, 18.36024632128465, 18.526840705308132, 18.7933564338382, 18.95992002289131, 19.209843997803546, 19.61055619569015, 19.79299010198156, 19.926197282857174, 20.159414985344483, 20.292804690587218, 20.426033684565482, 20.59384158296234, 20.692482690657926, 20.925831271779316, 21.325750178351882, 21.542236266723194, 21.74223934622205, 21.842135349033924, 21.94194377864551, 22.125342914845533, 22.25874160195235, 23.858048971702374]",2017_Feb_08_1444,60.0223346647,famFaceGrey,001,15,
149,./greyInner/MilaKunis5_2_cut.png,0,44,44,148,,,2.nein,3.376,None,act,1.644,None,None,None,None,None, ,"['space', 'return']","[1.366415901495202, 1.7160138987965183]",2017_Feb_08_1444,60.0223346647,famFaceGrey,001,15,
48,./greyInner/CristinMilioti(Tracy_Mutter)4_2_cut.png,0,45,45,47,,,2.nein,3.511,None,act,0.978,None,None,None,None,None,,['return'],[1.6166680353308038],2017_Feb_08_1444,60.0223346647,famFaceGrey,001,15,
118,./greyInner/JudithRakers4_3_cut.png,0,46,46,117,,,2.nein,1.862,None,act,1.013,None,None,None,None,None,,['return'],[1.516510916819243],2017_Feb_08_1444,60.0223346647,famFaceGrey,001,15,
122,./greyInner/KaleyCuoco(Penny)14_2_cut.png,0,47,47,121,,,2.nein,1.927,None,dummy,0.727,None,None,None,None,None,,['return'],[0.7167391845468956],2017_Feb_08_1444,60.0223346647,famFaceGrey,001,15,
209,./greyInner/WillSmith5_1_cut.png,0,48,48,208,,,1.ja,3.112,None,None,None,music,1.195,None,None,None,Will Smith,"['lshift', 'w', 'i', 'l', 'l', 'space', 'lshift', 's', 'w', 'i', 't', 'backspace', 'backspace', 'backspace', 'm', 'i', 'z', 'h', 'backspace', 'backspace', 't', 'h', 'return']","[1.3165062334155664, 1.5332393231255992, 1.6664551650865178, 1.866324799702852, 2.0329759619562537, 2.249621478465997, 2.4329012841481017, 2.532709072198486, 2.766147471986187, 3.116036417617579, 3.2656355055733, 3.8323441517750325, 3.999102134090208, 4.1489103712301585, 4.432133334528771, 4.765307988214772, 4.882034405680315, 5.065170501493412, 5.498198173343553, 5.6649869506291, 6.0149849617882865, 6.114813921380119, 7.214345196240174]",2017_Feb_08_1444,60.0223346647,famFaceGrey,001,15,
123,./greyInner/KaleyCuoco(Penny)3_1_cut.png,0,49,49,122,,,2.nein,2.512,None,None,None,host,1.495,None,None,None,,['return'],[1.2500959135068115],2017_Feb_08_1444,60.0223346647,famFaceGrey,001,15,
20,./greyInner/BastianSchweinsteiger6_2_cut.png,0,50,50,19,,,1.ja,6.64,None,None,None,None,None,sport,1.226,None,Bastian Schweinsteiger,"['lshift', 'n', 'backspace', 'lshift', 'b', 'a', 's', 't', 'i', 'a', 'n', 'lshift', 'space', 's', 'c', 'h', 'w', 'e', 'i', 'n', 's', 't', 'e', 'i', 'g', 'e', 'r', 'return']","[1.3166717563908605, 1.4499402064284368, 1.9830929186937283, 2.132851434787881, 2.532835139114468, 2.699476357160165, 2.8659863757893618, 3.115979318608879, 3.249179763082793, 3.7156581527124217, 4.848547118872375, 4.965021402505954, 4.981776112850639, 5.148506828783866, 5.364950253286224, 5.465027497342817, 5.614951215629844, 5.748315899956651, 5.881669356949715, 6.114698440233042, 6.397919478844415, 6.614473893561808, 6.797804061854549, 6.897848907032312, 6.997644505405333, 7.1810830976646685, 7.330713942934381, 7.814046164228785]",2017_Feb_08_1444,60.0223346647,famFaceGrey,001,15,
88,./greyInner/Ice-T(OdafinFinTutuola)5_1_cut.png,0,51,51,87,,,1.ja,2.162,None,act,0.696,None,None,None,None,None,,['return'],[0.8835831361611781],2017_Feb_08_1444,60.0223346647,famFaceGrey,001,15,
60,./greyInner/ElvisPresley6_1_cut.png,0,52,52,59,,,1.ja,1.378,None,None,None,music,1.012,None,None,None,Elvis Presley,"['lshift', 'e', 'l', 'v', 'i', 's', 'space', 'lshift', 'p', 'r', 'e', 's', 'l', 'e', 'y', 'return']","[1.3499062678056362, 1.5833745002237265, 2.0996307169589272, 2.59976640730747, 2.732937981494615, 2.882811337171006, 3.1494913055539655, 3.3156118960978347, 3.4159095166724, 3.682425886767305, 3.8491784158068185, 4.065761700807343, 4.4655561443687475, 4.51549115414673, 4.7821011922787875, 5.1653099770592235]",2017_Feb_08_1444,60.0223346647,famFaceGrey,001,15,
44,./greyInner/CobieSmulders(Robin)4_7_cut.png,0,53,53,43,,,1.ja,2.72,None,act,2.721,None,None,None,None,None,,['return'],[0.9500566499154957],2017_Feb_08_1444,60.0223346647,famFaceGrey,001,15,
95,./greyInner/JanHofer9_2_cut.png,0,54,54,94,,,1.ja,2.229,None,None,None,host,1.129,None,None,None,,['return'],[1.150359980394569],2017_Feb_08_1444,60.0223346647,famFaceGrey,001,15,
105,./greyInner/JimParsons(SheldonCooper)9_3_cut.png,0,55,55,104,,,2.nein,2.059,None,dummy,1.909,None,None,None,None,None,,['return'],[1.1834985782988952],2017_Feb_08_1444,60.0223346647,famFaceGrey,001,15,
27,./greyInner/Beyonce11_2_cut.png,0,56,56,26,,,2.nein,2.727,None,act,0.526,None,None,None,None,None,,['return'],[0.7172986265431973],2017_Feb_08_1444,60.0223346647,famFaceGrey,001,15,
198,./greyInner/UrsulavonderLeyen5_1_cut.png,0,57,57,197,,,1.ja,3.392,None,None,None,None,None,polit,1.908,None,Ursula von der Leyen,"['lshift', 'u', 'r', 's', 'u', 'l', 'a', 'space', 'v', 'o', 'n', 'space', 'd', 'e', 'r', 'space', 'lshift', 'l', 'e', 'x', 'e', 'backspace', 'backspace', 'y', 'e', 'n', 'return']","[1.3831394960907346, 1.4997510739740392, 1.6998330655878817, 2.082645685881289, 2.2329087904254266, 2.5993333530095697, 2.7825031308238977, 2.9159181777577032, 3.2657824232555868, 3.432451228462014, 3.699034000215761, 4.448725729711441, 4.598593952894589, 4.7651546549168415, 4.931913920354418, 4.98190634992352, 5.198166287718777, 5.281530202169961, 5.4982366670592455, 5.714857162653061, 6.014547095779562, 6.347969713144266, 6.514419104176341, 6.581095030716824, 6.764089020565734, 6.881025228780345, 7.231134871712129]",2017_Feb_08_1444,60.0223346647,famFaceGrey,001,15,
161,./greyInner/OmarEpps(DrEricForeman)1_5_cut.png,0,58,58,160,,,1.ja,2.931,None,None,None,music,1.265,None,None,None,,['return'],[1.0000323988751916],2017_Feb_08_1444,60.0223346647,famFaceGrey,001,15,
153,./greyInner/NeilPatrickHarris(Barney)13_4_cut.png,0,59,59,152,,,2.nein,1.373,None,dummy,1.338,None,None,None,None,None,,['return'],[0.7836309966805857],2017_Feb_08_1444,60.0223346647,famFaceGrey,001,15,
155,./greyInner/NeilPatrickHarris(Barney)3_7_cut.png,0,60,60,154,,,2.nein,1.592,None,dummy,2.145,None,None,None,None,None,,['return'],[0.833320929803449],2017_Feb_08_1444,60.0223346647,famFaceGrey,001,15,
125,./greyInner/KaleyCuoco(Penny)7_1_cut.png,0,61,61,124,,,2.nein,2.226,None,None,None,music,2.109,None,None,None,,['return'],[0.8333642352336028],2017_Feb_08_1444,60.0223346647,famFaceGrey,001,15,
201,./greyInner/Usher1_1_cut.png,0,62,62,200,,,2.nein,1.499,None,None,None,music,1.616,None,None,None,,['return'],[0.9665752654800599],2017_Feb_08_1444,60.0223346647,famFaceGrey,001,15,
140,./greyInner/LisaEdelstein(DrLisaCuddy)9_1_cut.png,0,63,63,139,,,2.nein,1.413,None,None,None,music,1.012,None,None,None,,['return'],[0.9500277796287264],2017_Feb_08_1444,60.0223346647,famFaceGrey,001,15,
12,./greyInner/BarackObama11_2_cut.png,0,64,64,11,,,1.ja,1.888,None,None,None,None,None,polit,2.688,None,Barack Obama,"['lshift', 'b', 'a', 'r', 'a', 'k', 'backspace', 'c', 'k', 'space', 'lshift', 'p', 'backspace', 'lshift', 'o', 'b', 'a', 'm', 'a', 'return']","[1.616488077215763, 1.6998837489809375, 1.9162072014041769, 2.1497723096763366, 2.3995451967566623, 2.749460446426383, 3.082600134985114, 3.2492554673917766, 3.382611811412062, 3.6325194264973106, 3.9156407022310304, 4.065609971414233, 4.731732486645342, 5.0151058962110255, 5.1819312425286626, 5.498352789771161, 5.715022044070793, 6.098202279343241, 6.231476503438898, 6.464711528100452]",2017_Feb_08_1444,60.0223346647,famFaceGrey,001,15,
156,./greyInner/NicoleKidman14_1_cut.png,0,65,65,155,,,1.ja,1.812,None,dummy,6.077,None,None,None,None,None,Nicole Kidman,"['lshift', 'n', 'i', 'k', 'backspace', 'c', 'o', 'l', 'e', 'space', 'lshift', 'k', 'i', 'd', 'm', 'a', 'n', 'return']","[1.0667599711523508, 1.2334438530670013, 1.4998665551174781, 1.8164667773562542, 2.1329678782749397, 2.4660745263972785, 2.583780929697241, 2.7993178272081423, 2.915911762138421, 3.1159206156917207, 3.382459440454113, 3.515903678457107, 3.7156822112810914, 3.8154694693512283, 4.365283544706472, 4.498572203941876, 4.598647202532447, 5.531471178470383]",2017_Feb_08_1444,60.0223346647,famFaceGrey,001,15,
114,./greyInner/JoshRadnor(Ted)7_1_cut.png,0,66,66,113,,,2.nein,1.976,None,None,None,host,1.509,None,None,None,,['return'],[0.9665762278236798],2017_Feb_08_1444,60.0223346647,famFaceGrey,001,15,
47,./greyInner/CristinMilioti(Tracy_Mutter)2_1_cut.png,0,67,67,46,,,2.nein,1.746,None,None,None,music,2.062,None,None,None,,['return'],[0.8503059608810872],2017_Feb_08_1444,60.0223346647,famFaceGrey,001,15,
59,./greyInner/ElvisPresley5_2_cut.png,0,68,68,58,,,1.ja,2.5,None,None,None,music,1.117,None,None,None,Elvis Presley,"['lshift', 'e', 'l', 'v', 'i', 's', 'space', 'lshift', 'p', 'r', 'e', 's', 'l', 'e', 'y', 'return']","[1.3333658391384233, 1.5332944974543352, 1.6998054784271517, 1.8498815676684899, 2.0163790758451796, 2.1496808871015674, 2.382933233933727, 2.482754494783876, 2.6162308108832804, 2.816218492895132, 3.016067597531219, 3.2160989057520055, 3.6324100401870965, 3.749023863536422, 3.965582127624657, 4.998647266689659]",2017_Feb_08_1444,60.0223346647,famFaceGrey,001,15,
184,./greyInner/SigmarGabriel4_5_cut.png,0,69,69,183,,,1.ja,2.664,None,None,None,None,None,polit,2.738,None,Sigmar Gabriel,"['lshift', 's', 'i', 'g', 'm', 'a', 'r', 'space', 'lshift', 'g', 'a', 'b', 'r', 'i', 'e', 'l', 'return']","[3.6492009987850906, 3.815731868176954, 4.048904340550507, 4.1990654367509705, 4.398865461898822, 4.498902929117321, 4.715461193201918, 4.882118129513401, 5.048398148195702, 5.5148069283568475, 5.831672436448571, 5.964800705205562, 6.181631633109646, 6.331472589910845, 6.497966248709417, 6.681281981862412, 7.714040133549133]",2017_Feb_08_1444,60.0223346647,famFaceGrey,001,15,
101,./greyInner/JimParsons(SheldonCooper)1_1_cut.png,0,70,70,100,,,1.ja,2.146,None,act,1.014,None,None,None,None,None,Schauspieler aus Big Bang Theory,"['lshift', 'b', 'backspace', 'lshift', 's', 'c', 'h', 'a', 'u', 's', 'p', 'i', 'e', 'l', 'e', 'r', 'space', 'a', 'u', 's', 'space', 'lshift', 'b', 'i', 'g', 'space', 'lshift', 'b', 'a', 'n', 'g', 'space', 'lshift', 't', 'h', 'e', 'o', 'r', 'x', 'backspace', 'x', 'backspace', 'y', 'return']","[1.1332710162860167, 1.3499694616511988, 1.6998308201218606, 1.8494770628785773, 1.966291374326829, 2.1828672813680896, 2.349528708611615, 2.5161224510738975, 2.616048286516161, 2.965841639423161, 3.14907621499151, 3.3656052880105563, 3.4489762596422224, 3.615387477737386, 3.7323567263920268, 3.9321843387042463, 4.082231236880034, 4.24877172970082, 4.348657467522571, 4.465383884991752, 4.631657808833552, 4.715142657707474, 4.831855602376891, 5.0652141277059854, 5.231881329007592, 5.914738986946759, 5.998126639191469, 6.131405675001588, 6.564381380332634, 6.681288076699275, 6.964491151578841, 7.447297612878174, 7.5807181130912795, 7.947360485944955, 8.147345922490786, 8.247312176332343, 8.44722094622557, 9.01346093144457, 9.213477162960771, 9.729908205321408, 9.863382917515992, 10.26275713801806, 10.646288628442562, 11.229306741020991]",2017_Feb_08_1444,60.0223346647,famFaceGrey,001,15,
154,./greyInner/NeilPatrickHarris(Barney)2_2_cut.png,0,71,71,153,,,1.ja,2.096,None,None,None,None,None,sport,2.078,None,,['return'],[1.3499948033459077],2017_Feb_08_1444,60.0223346647,famFaceGrey,001,15,
81,./greyInner/HughLaurie(DrHouse)2_1_cut.png,0,72,72,80,,,1.ja,2.001,None,act,2.168,None,None,None,None,None,,['return'],[1.0665742389792285],2017_Feb_08_1444,60.0223346647,famFaceGrey,001,15,
21,./greyInner/BenedictCumberbatch16_1_cut.png,0,73,73,20,,,2.nein,1.661,None,None,None,music,1.777,None,None,None,,['return'],[0.6670768385884003],2017_Feb_08_1444,60.0223346647,famFaceGrey,001,15,
66,./greyInner/EmmaWatson(HermioneGranger)11_2_cut.png,0,74,74,65,,,1.ja,1.612,None,act,0.612,None,None,None,None,None,Hermine,"['lshift', 'h', 'e', 'r', 'm', 'i', 'n', 'e', 'return']","[2.0832070525611925, 2.266643399354507, 2.4331033761554863, 2.582883063791087, 2.699679732289951, 3.016275463593047, 3.249521074027143, 3.349406811848894, 4.565832272619446]",2017_Feb_08_1444,60.0223346647,famFaceGrey,001,15,
176,./greyInner/Shakira1_1_cut.png,0,75,75,175,,,1.ja,1.744,None,None,None,music,2.162,None,None,None,,['return'],[0.7834199228091165],2017_Feb_08_1444,60.0223346647,famFaceGrey,001,15,
172,./greyInner/SahraWagenknecht2_2_cut.png,0,76,76,171,,,1.ja,1.89,None,None,None,None,None,polit,3.322,None,Sarah Wagenknecht ,"['lshift', 's', 'a', 'r', 'a', 'h', 'space', 'backspace', 'backspace', 'backspace', 'a', 'h', 'space', 'lshift', 'w', 'a', 'g', 'e', 'n', 'k', 'n', 'e', 'c', 'h', 't', 'space', 'return']","[1.0667275722771592, 1.5498346053354908, 1.7838167288573459, 2.68289743477726, 3.1493219332041917, 3.232818009411858, 3.5158414469515264, 3.9656103563502256, 4.132239705497341, 4.298921983503533, 6.148063830278261, 6.248050934882485, 6.464721472308156, 6.489950574068644, 6.714647371907631, 6.947755367305945, 7.197752801061142, 7.614198342718737, 7.730699892730627, 7.964136688617145, 8.363960964805301, 8.496882009065303, 8.997078647793387, 9.213603871441592, 9.330112799416383, 9.530091820342932, 10.479798819014832]",2017_Feb_08_1444,60.0223346647,famFaceGrey,001,15,
99,./greyInner/JasonSegel(Marshall)7_1_cut.png,0,77,77,98,,,2.nein,2.226,None,None,None,music,1.859,None,None,None,,['return'],[0.9669573156024853],2017_Feb_08_1444,60.0223346647,famFaceGrey,001,15,
220,./greyInner/notfamousface5_1_cut.png,0,78,78,219,,,2.nein,2.003,None,None,None,host,1.076,None,None,None,,['return'],[0.5843644302658504],2017_Feb_08_1444,60.0223346647,famFaceGrey,001,15,
86,./greyInner/Ice-T(OdafinFinTutuola)10_1_cut.png,0,79,79,85,,,1.ja,1.462,None,None,None,music,1.73,None,None,None,,['return'],[0.9666391008904611],2017_Feb_08_1444,60.0223346647,famFaceGrey,001,15,
175,./greyInner/SahraWagenknecht9_1_cut.png,0,80,80,174,,,1.ja,1.676,None,None,None,None,None,sport,1.592,None,Sarah Wagenknecht Habe mich vertippt sie ist Politikerin,"['lshift', 's', 'a', 'r', 'a', 'h', 'space', 'lshift', 'w', 'lshift', 'backspace', 'w', 'a', 'g', 'e', 'n', 'k', 'e', 'backspace', 'n', 'e', 'c', 'h', 't', 'space', 'lshift', '8', 's', 'lshift', 'backspace', '8', 'backspace', 'lshift', 'p', 'o', 'l', 'i', 't', 'i', 'backspace', 'backspace', 'backspace', 'backspace', 'backspace', 'backspace', 'lshift', 'a', 'n', 'm', 'lshift', 'period', 'lshift', 'period', 'space', 'backspace', 'backspace', 'backspace', 'backspace', 'h', 'a', 'n', 'e', 'space', 'backspace', 'backspace', 'backspace', 'b', 'e', 'space', 'comma', 'o', 'backspace', 'm', 'i', 'c', 'h', 'space', 'v', 'e', 'r', 't', 'i', 'p', 'p', 't', 'comma', 'space', 's', 'i', 'e', 'space', 'i', 's', 't', 'space', 'lshift', 'p', 'o', 'l', 'i', 't', 'i', 'k', 'e', 'r', 'i', 'n', 'return']","[4.082137889618025, 4.298596390828607, 4.4986203210864915, 5.048215303046163, 5.315050850196712, 5.43145488279697, 5.6814372398439446, 5.707443593873904, 5.898044262637995, 6.197936929329444, 6.381236944213015, 6.647379283705959, 6.997654770395457, 7.264290150225861, 7.463880705407064, 7.547373253026308, 7.780766101917834, 8.2471139336958, 8.597067677081213, 8.863470169933862, 8.963576284277224, 9.196804893319495, 9.38002727921048, 9.763356036070036, 9.89652600635236, 10.129730877604743, 10.213041221635649, 10.512993232801819, 11.07924059598372, 11.095997231015645, 11.579041070224775, 12.41222695124452, 14.09485140142715, 14.361466251273669, 14.561220083964145, 14.777720607478841, 15.011079132811574, 15.144485518663714, 15.560884867860295, 15.944116428090638, 16.71049935330302, 16.94360061230327, 17.143596955400426, 17.343662266404863, 17.54323774488148, 18.74275484122336, 19.09282534887825, 19.25941684587451, 19.959222324301663, 20.259027738567966, 20.975386476900894, 21.12530602503466, 21.308675328607933, 21.508668784674228, 21.975080131083814, 22.624861101841816, 22.79140480247588, 23.0080971530042, 24.20757960500123, 24.274119199635606, 24.40747265662867, 24.507360639916442, 24.640733022984932, 25.040318317362107, 25.206718949684728, 25.357044285734446, 26.00646534025873, 26.106807870168268, 26.2066294517972, 27.08957776243551, 27.306199541151727, 27.622928075776144, 28.572536915471574, 28.772400776029826, 28.905806841099547, 29.00567461518949, 29.204929954266845, 29.605476629181794, 29.82209616243199, 29.988552289862128, 30.1717339365714, 30.271790329865325, 30.488322289911594, 30.6548624619536, 30.804941759008216, 31.387865882763435, 31.58794915749968, 31.8211418390747, 31.9378092328443, 32.254430947406945, 32.38760284237287, 32.604122612745414, 32.70414500325569, 32.88747677545689, 33.02077024641039, 33.303987435650924, 33.603763658851676, 33.82030812935773, 34.386915408776986, 34.56996200670255, 34.670182639845734, 34.803284283785615, 34.98654099323903, 35.0865313056529, 35.56970762740093, 35.65277610258636, 35.85306499791841, 36.236124298771756]",2017_Feb_08_1444,60.0223346647,famFaceGrey,001,15,
133,./greyInner/LeonardoDiCaprio3_1_cut.png,0,81,81,132,,,1.ja,1.879,None,dummy,1.03,None,None,None,None,None,Leonardo Di Caprio,"['lshift', 'l', 'e', 'o', 'n', 'a', 'r', 'd', 'o', 'space', 'lshift', 'd', 'i', 'space', 'lshift', 'c', 'a', 'p', 'r', 'i', 'o', 'return']","[1.6332174458621012, 2.0496806304727215, 2.18286535668085, 2.3329177081322996, 3.0493762093428813, 3.1826796245040896, 3.432520837930497, 3.6488869542226894, 4.015525798487943, 4.248916401913448, 4.831946704165603, 4.965227343880542, 5.098485208145576, 5.348339252810547, 5.549275163339189, 5.715017232352693, 5.948311280710186, 6.048151788414543, 6.581299047407811, 6.714649296591233, 6.914654621552472, 7.197696985171206]",2017_Feb_08_1444,60.0223346647,famFaceGrey,001,15,
30,./greyInner/Beyonce8_3_cut.png,0,82,82,29,,,1.ja,2.312,None,None,None,music,1.196,None,None,None,,['return'],[1.0334269799895992],2017_Feb_08_1444,60.0223346647,famFaceGrey,001,15,
171,./greyInner/SahraWagenknecht12_1_cut.png,0,83,83,170,,,1.ja,2.096,None,None,None,None,None,polit,1.713,None,Sarah Wagenknecht,"['lshift', 's', 'a', 'h', 'backspace', 'r', 'a', 'h', 'space', 'lshift', 'w', 'a', 'g', 'e', 'n', 'k', 'n', 'e', 'c', 'h', 't', 'return']","[1.1167437396397872, 1.2666527020046487, 1.4332076299688197, 1.6331231362637482, 1.9997177127552277, 2.0495860000919492, 2.266321335271641, 2.366192317167588, 2.849333673788351, 3.015941851394018, 3.249230446475849, 3.4658307328718365, 3.732415108526766, 3.9155435055981798, 4.015603748262947, 4.232179013739369, 4.748688326653792, 5.215179226739565, 5.414995611718041, 5.848134915340779, 5.948157305851055, 7.181017016788246]",2017_Feb_08_1444,60.0223346647,famFaceGrey,001,15,
22,./greyInner/BenedictCumberbatch2_2_cut.png,0,84,84,21,,,1.ja,3.262,None,None,None,music,1.141,None,None,None,,['return'],[0.9169543002644787],2017_Feb_08_1444,60.0223346647,famFaceGrey,001,15,
54,./greyInner/DannFlorek(DonaldDonCragen)5_1_cut.png,0,85,85,53,,,2.nein,1.944,None,None,None,None,None,polit,3.527,None,,['return'],[0.8504586526178173],2017_Feb_08_1444,60.0223346647,famFaceGrey,001,15,
31,./greyInner/BritneySpears1_1_cut.png,0,86,86,30,,,1.ja,1.476,None,None,None,music,1.527,None,None,None,Britney Spears,"['lshift', 'b', 'r', 'i', 't', 'n', 'e', 'y', 'space', 'lshift', 's', 'e', 'backspace', 'p', 'e', 'a', 'r', 's', 'return']","[1.0833254207354912, 1.2666629669911345, 1.483207116718404, 1.5996477183471143, 1.7495502650926937, 2.1333091892192897, 2.19939680348034, 2.416059962943109, 2.7160100494256767, 2.9158052628590667, 3.049219989017729, 3.249045035081508, 3.6155196394938685, 3.8322488798330596, 3.8988555176874797, 4.148589911052113, 4.398240580587299, 4.931719527092355, 5.148313397865422]",2017_Feb_08_1444,60.0223346647,famFaceGrey,001,15,
26,./greyInner/Beyonce1_1_cut.png,0,87,87,25,,,2.nein,1.585,None,None,None,music,1.802,None,None,None,,"['pound', 'return']","[1.4000343877196428, 1.816617223630601]",2017_Feb_08_1444,60.0223346647,famFaceGrey,001,15,
37,./greyInner/CarenMiosga13_1_cut.png,0,88,88,36,,,2.nein,2.077,None,None,None,music,2.327,None,None,None,,['return'],[0.9337847149145091],2017_Feb_08_1444,60.0223346647,famFaceGrey,001,15,
64,./greyInner/EmilyDeschanel6_12_cut.png,0,89,89,63,,,2.nein,1.461,None,None,None,host,1.746,None,None,None,,['return'],[0.7167584314083797],2017_Feb_08_1444,60.0223346647,famFaceGrey,001,15,
165,./greyInner/OmarEpps(DrEricForeman)9_1_cut.png,0,90,90,164,,,2.nein,2.346,None,None,None,music,1.245,None,None,None,,['return'],[0.70031776561882],2017_Feb_08_1444,60.0223346647,famFaceGrey,001,15,
157,./greyInner/NicoleKidman3_1_cut.png,0,91,91,156,,,2.nein,2.147,None,None,None,music,3.401,None,None,None,,['return'],[1.0667067215181305],2017_Feb_08_1444,60.0223346647,famFaceGrey,001,15,
111,./greyInner/JoshRadnor(Ted)1_2_cut.png,0,92,92,110,,,2.nein,1.595,None,None,None,host,3.042,None,None,None,,"['delete', 'return']","[0.7337521235676832, 0.9667536196902802]",2017_Feb_08_1444,60.0223346647,famFaceGrey,001,15,
56,./greyInner/ElvisPresley1_1_cut.png,0,93,93,55,,,1.ja,1.442,None,None,None,music,1.209,None,None,None,Elvis Presley,"['lshift', 'e', 'l', 'v', 'i', 's', 'space', 'lshift', 'p', 'r', 'e', 's', 'l', 'e', 'y', 'return']","[1.0667118540113734, 1.2832309828190773, 1.4333683412260143, 1.6332264277298236, 1.899851221787685, 2.132981992639543, 2.3163102362486825, 2.4329125114818453, 2.599583882936713, 2.8324753511878953, 2.999327963887481, 3.2159417230795952, 3.682415300994762, 3.782447314933961, 3.9822643414736376, 4.315572760817304]",2017_Feb_08_1444,60.0223346647,famFaceGrey,001,15,
15,./greyInner/BarackObama5_2_cut.png,0,94,94,14,,,1.ja,1.995,None,None,None,None,None,polit,2.111,None,Barack Obama,"['lshift', 'b', 'a', 'r', 'a', 'c', 'j', 'space', 'lshift', 'backspace', 'backspace', 'k', 'lshift', 'space', 'o', 'backspace', 'backspace', 'backspace', 'k', 'backspace', 'k', 'space', 'lshift', 'o', 'b', 'a', 'n', 'backspace', 'm', 'a', 'return']","[1.199879899606458, 1.333396313326375, 2.1831004891246266, 2.582901348305313, 2.8660717035272683, 3.0827884334066766, 3.2157566324676736, 3.4326244501826295, 3.5325874962145463, 3.7990952052205103, 3.9324781740615435, 4.748781994690944, 4.915297145817021, 4.948712256911676, 5.181851368066418, 5.498530181637761, 5.648415085430315, 5.848337969688146, 6.497954059032054, 6.848032265432266, 7.430927518900717, 7.730831412922271, 7.847497844351892, 8.030815822970908, 8.380588004332822, 8.630436916497274, 8.797234354871762, 9.113755664991913, 9.480270687803568, 9.713354624633212, 10.030090216438111]",2017_Feb_08_1444,60.0223346647,famFaceGrey,001,15,
121,./greyInner/KaleyCuoco(Penny)10_1_cut.png,0,95,95,120,,,2.nein,1.824,None,None,None,music,0.759,None,None,None,,['return'],[1.133360514173546],2017_Feb_08_1444,60.0223346647,famFaceGrey,001,15,
67,./greyInner/EmmaWatson(HermioneGranger)16_1_cut.png,0,96,96,66,,,1.ja,2.795,None,act,1.23,None,None,None,None,None,Emma Watson,"['lshift', 'h', 'e', 'r', 'm', 'i', 'backspace', 'backspace', 'backspace', 'backspace', 'backspace', 'lshift', 'e', 'm', 'm', 'a', 'space', 'lshift', 'w', 'a', 't', 's', 'o', 'n', 'return']","[1.5500296401587548, 1.7165585848670162, 1.9164102557515434, 2.0497252190289146, 2.166336796912219, 2.3996196179359686, 2.782706826732465, 2.915977522236062, 3.0826854627193825, 3.2492105580531643, 3.432575049911975, 3.549074996022682, 3.665955067568575, 3.865724939307256, 4.098932697586861, 4.248843905417743, 4.41544662974411, 4.515357388481789, 4.682059875689447, 4.881969607926294, 5.131871128171042, 5.381749231408321, 5.481633044542832, 5.698275032460515, 6.264667067855044]",2017_Feb_08_1444,60.0223346647,famFaceGrey,001,15,
45,./greyInner/CobieSmulders(Robin)5_1_cut.png,0,97,97,44,,,1.ja,3.762,None,None,None,music,0.963,None,None,None,Adele,"['lshift', 'a', 'd', 'e', 'l', 'e', 'return']","[1.2332340623215714, 1.399974080901302, 1.6664894886525872, 1.8497410656091233, 1.949687110252853, 2.0663561079272768, 2.3327967737168365]",2017_Feb_08_1444,60.0223346647,famFaceGrey,001,15,
18,./greyInner/BastianSchweinsteiger14_1_cut.png,0,98,98,17,,,1.ja,2.113,None,None,None,None,None,sport,2.813,None,Bastian Schweinsteiger,"['lshift', 'b', 'a', 's', 't', 'i', 'a', 'n', 'space', 'lshift', 's', 'c', 'h', 'w', 'e', 'i', 'n', 's', 't', 'e', 'i', 'g', 'e', 'r', 'return']","[1.1167209641898808, 1.4498750878919964, 1.5998369791159348, 1.7831078029303171, 2.0164310423569987, 2.149493871798768, 2.3829255351884058, 2.5326853344049596, 2.7160822251426, 2.7493982149171643, 2.8826422856000136, 3.0823560206736147, 3.2157216673404037, 3.3656501973418926, 3.515597011861246, 3.615782038319594, 3.815648144343868, 4.282003354084736, 4.498714951470902, 4.665460423326294, 4.781891722312139, 4.898622630709724, 5.031560034796712, 5.531594358359143, 5.881401825627108]",2017_Feb_08_1444,60.0223346647,famFaceGrey,001,15,
135,./greyInner/LeonardoDiCaprio7_1_cut.png,0,99,99,134,,,1.ja,1.819,None,dummy,0.703,None,None,None,None,None,Leonardo Di Caprio,"['lshift', 'l', 'e', 'o', 'n', 'a', 'r', 'd', 'o', 'space', 'lshift', 'd', 'i', 'space', 'lshift', 'c', 'a', 'p', 'r', 'i', 'o', 'return']","[0.9834262101139757, 1.1667281496847863, 1.3165973352079163, 1.6330746983403515, 2.0331196718288993, 2.1660214692310547, 2.366159276731196, 2.5661896226083627, 2.716136437124078, 2.9657065906394564, 2.99923365428549, 3.232681356723333, 3.6657279546489008, 3.8989286557480227, 3.9488206808782707, 4.115492693894339, 4.33206763859198, 4.865255957545742, 4.998517350402835, 5.165194816694566, 5.348334120317304, 5.648247958550201]",2017_Feb_08_1444,60.0223346647,famFaceGrey,001,15,
224,./greyInner/notfamousface9_1_cut.png,0,100,100,223,,,2.nein,2.059,None,None,None,music,1.36,None,None,None,,['return'],[1.0332357945335389],2017_Feb_08_1444,60.0223346647,famFaceGrey,001,15,
9,./greyInner/AngelaMerkel5_1_cut.png,0,101,101,8,,,1.ja,2.645,None,None,None,None,None,polit,1.43,None,Angela Merkel,"['lshift', 'a', 'n', 'g', 'e', 'l', 'a', 'space', 'lshift', 'm', 'e', 'r', 'k', 'e', 'r', 'backspace', 'l', 'return']","[1.100091679199977, 1.266699536023225, 1.4832424026244553, 1.6498877908197755, 1.8498491687932983, 1.9330976020974049, 2.2830041906818224, 2.399552253937145, 2.532880690014281, 2.6329611418768764, 2.8160927467579313, 2.982742946667713, 3.049359849515895, 3.182462776578177, 3.3160006826219615, 3.882395605043712, 4.115656292182393, 5.598364915287675]",2017_Feb_08_1444,60.0223346647,famFaceGrey,001,15,
61,./greyInner/EmilyDeschanel15_1_cut.png,0,102,102,60,,,2.nein,1.344,None,None,None,music,1.16,None,None,None,,['return'],[1.0498532106321363],2017_Feb_08_1444,60.0223346647,famFaceGrey,001,15,
182,./greyInner/SigmarGabriel11_3_cut.png,0,103,103,181,,,2.nein,2.243,None,None,None,host,1.398,None,None,None,,['return'],[0.7002087000910251],2017_Feb_08_1444,60.0223346647,famFaceGrey,001,15,
11,./greyInner/BarackObama1_3_cut.png,0,104,104,10,,,1.ja,1.246,None,None,None,None,None,polit,1.569,None,Barack Obama,"['lshift', 'b', 'a', 'r', 'a', 'c', 'k', 'space', 'lshift', 'o', 'b', 'a', 'comma', 'a', 'backspace', 'm', 'a', 'return']","[1.033532837704115, 1.2498825941693212, 1.366729625275184, 1.6333156048385717, 1.8832222575802007, 2.08298827994804, 2.216342378502304, 2.449400973633601, 2.616163767663238, 2.716278543088265, 3.01604033114927, 3.365924144283781, 3.532494148956175, 3.6654264205462823, 4.182163808720361, 4.69872348424542, 4.915297145820659, 5.081871641421458]",2017_Feb_08_1444,60.0223346647,famFaceGrey,001,15,
6,./greyInner/AngelaMerkel1_1_cut.png,0,105,105,5,,,1.ja,1.844,None,None,None,None,None,polit,0.961,None,Angela Merkel,"['lshift', 'a', 'n', 'g', 'e', 'l', 'a', 'space', 'lshift', 'm', 'e', 'r', 'k', 'e', 'l', 'return']","[1.2833669939464016, 1.499969205025991, 1.650130942787655, 1.849844677857618, 2.0497791102279734, 2.766176021494175, 3.082636062452366, 3.2158644148694293, 3.3658522893492773, 3.632089580005413, 4.348905751987331, 4.4987707673572, 4.5987893084966345, 5.0153750314348144, 5.131853485218016, 5.448337263969734]",2017_Feb_08_1444,60.0223346647,famFaceGrey,001,15,
36,./greyInner/CarenMiosga1_1_cut.png,0,106,106,35,,,2.nein,1.91,None,None,None,None,None,sport,2.144,None,,['return'],[0.9669290868769167],2017_Feb_08_1444,60.0223346647,famFaceGrey,001,15,
173,./greyInner/SahraWagenknecht5_1_cut.png,0,107,107,172,,,1.ja,1.544,None,None,None,None,None,polit,1.144,None,Sarah Wagenknecht,"['lshift', 's', 'a', 'r', 'a', 'h', 'space', 'lshift', 'w', 'a', 'g', 'e', 'n', 'k', 'n', 'e', 'c', 'h', 't', 'return']","[1.200202284475381, 1.4501201645507535, 1.6665109809764544, 2.316209190248628, 2.582963579814532, 2.899575350165833, 3.1161130842738203, 3.2494248397379124, 3.4159820131717424, 3.6492674004439323, 3.8658474776384537, 4.06572160318683, 4.199158142448141, 4.465762406525755, 5.0819752536735905, 5.182065008186328, 5.381960305283428, 5.514911182170181, 5.615298942193476, 6.165093449912092]",2017_Feb_08_1444,60.0223346647,famFaceGrey,001,15,
83,./greyInner/HughLaurie(DrHouse)5_3_cut.png,0,108,108,82,,,1.ja,1.727,None,dummy,1.144,None,None,None,None,None,,['return'],[0.8833438335641404],2017_Feb_08_1444,60.0223346647,famFaceGrey,001,15,
163,./greyInner/OmarEpps(DrEricForeman)3_1_cut.png,0,109,109,162,,,2.nein,1.876,None,None,None,music,0.96,None,None,None,,['return'],[0.8833136801549699],2017_Feb_08_1444,60.0223346647,famFaceGrey,001,15,
192,./greyInner/TomCruise4_1_cut.png,0,110,110,191,,,1.ja,1.307,None,act,0.691,None,None,None,None,None,Tom Cruise,"['lshift', 't', 'o', 'm', 'space', 'lshift', 'c', 'r', 'u', 'i', 's', 'e', 'return']","[1.0999450823001098, 1.533007077712682, 1.6831874207673536, 1.899678320853127, 2.0995165189378895, 2.1494508871510334, 2.3493372023804113, 2.6161230284815247, 2.782579797472863, 3.0158414469515264, 3.0991691131566768, 3.2656974163037376, 3.4157712600790546]",2017_Feb_08_1444,60.0223346647,famFaceGrey,001,15,
117,./greyInner/JudithRakers2_1_cut.png,0,111,111,116,,,2.nein,1.765,None,None,None,host,0.965,None,None,None,,['return'],[0.8835244332476577],2017_Feb_08_1444,60.0223346647,famFaceGrey,001,15,
217,./greyInner/notfamousface2_cut.png,0,112,112,216,,,2.nein,1.438,None,None,None,music,0.708,None,None,None,,['return'],[0.7169736754331097],2017_Feb_08_1444,60.0223346647,famFaceGrey,001,15,
82,./greyInner/HughLaurie(DrHouse)4_1_cut.png,0,113,113,81,,,1.ja,1.659,None,act,0.527,None,None,None,None,None,,['return'],[1.0166119628192973],2017_Feb_08_1444,60.0223346647,famFaceGrey,001,15,
40,./greyInner/CarenMiosga9_1_cut.png,0,114,114,39,,,2.nein,1.246,None,None,None,music,1.296,None,None,None,,['return'],[0.8668659571849275],2017_Feb_08_1444,60.0223346647,famFaceGrey,001,15,
126,./greyInner/KatjaBurkard1_1_cut.png,0,115,115,125,,,2.nein,1.511,None,act,5.476,None,None,None,None,None,,['return'],[0.750093347262009],2017_Feb_08_1444,60.0223346647,famFaceGrey,001,15,
147,./greyInner/MilaKunis10_1_cut.png,0,116,116,146,,,2.nein,1.98,None,None,None,music,0.829,None,None,None,,['return'],[0.7668137340442627],2017_Feb_08_1444,60.0223346647,famFaceGrey,001,15,
25,./greyInner/BenedictCumberbatch6_5_cut.png,0,117,117,24,,,2.nein,1.654,None,None,None,music,0.837,None,None,None,,['return'],[0.7836197693468421],2017_Feb_08_1444,60.0223346647,famFaceGrey,001,15,
98,./greyInner/JasonSegel(Marshall)6_1_cut.png,0,118,118,97,,,2.nein,1.668,None,act,0.625,None,None,None,None,None,,['return'],[0.5503058325666643],2017_Feb_08_1444,60.0223346647,famFaceGrey,001,15,
1,./greyInner/AlysonHannigan(Lily)1_1_cut.png,0,119,119,0,,,2.nein,1.483,None,None,None,host,0.945,None,None,None,,['return'],[0.7500949511631916],2017_Feb_08_1444,60.0223346647,famFaceGrey,001,15,
84,./greyInner/HughLaurie(DrHouse)8_1_cut.png,0,120,120,83,,,2.nein,1.358,None,dummy,0.643,None,None,None,None,None,,['return'],[0.7168578735072515],2017_Feb_08_1444,60.0223346647,famFaceGrey,001,15,
55,./greyInner/DannFlorek(DonaldDonCragen)8_1_cut.png,0,121,121,54,,,2.nein,2.448,None,None,None,None,None,polit,0.899,None,,['return'],[0.7334037554464885],2017_Feb_08_1444,60.0223346647,famFaceGrey,001,15,
177,./greyInner/Shakira2_1_cut.png,0,122,122,176,,,2.nein,1.695,None,None,None,music,0.812,None,None,None,,['return'],[0.750390069646528],2017_Feb_08_1444,60.0223346647,famFaceGrey,001,15,
34,./greyInner/BritneySpears7_1_cut.png,0,123,123,33,,,1.ja,2.129,None,None,None,music,1.483,None,None,None,Britney Spears,"['lshift', 'b', 'r', 'i', 't', 'n', 'e', 'y', 'space', 'lshift', 's', 'p', 'e', 'a', 'r', 's', 'return']","[1.0836054625142424, 1.2169669390314084, 1.4501297879760386, 1.5667728023909149, 1.7000518382010341, 1.9332220651085663, 2.049972541150055, 2.2828232702195237, 2.449814139508817, 2.582901348305313, 2.7165111092836014, 2.8662888722356, 2.9662791846494656, 3.182823013594316, 3.4327229299342434, 3.665997410655109, 4.0991200336684415]",2017_Feb_08_1444,60.0223346647,famFaceGrey,001,15,
85,./greyInner/HughLaurie(DrHouse)9_2_cut.png,0,124,124,84,,,1.ja,1.552,None,act,1.065,None,None,None,None,None,,['return'],[1.0168361887117499],2017_Feb_08_1444,60.0223346647,famFaceGrey,001,15,
24,./greyInner/BenedictCumberbatch4_1_cut.png,0,125,125,23,,,2.nein,1.382,None,None,None,music,1.497,None,None,None,,['return'],[0.7002427028746752],2017_Feb_08_1444,60.0223346647,famFaceGrey,001,15,
222,./greyInner/notfamousface7_cut.png,0,126,126,221,,,2.nein,1.431,None,None,None,host,3.582,None,None,None,,['return'],[0.733593978555291],2017_Feb_08_1444,60.0223346647,famFaceGrey,001,15,
187,./greyInner/TaylorSwift2_1_cut.png,0,127,127,186,,,2.nein,1.927,None,None,None,music,1.027,None,None,None,,['return'],[0.7505145326613274],2017_Feb_08_1444,60.0223346647,famFaceGrey,001,15,
68,./greyInner/EmmaWatson(HermioneGranger)3_1_cut.png,0,128,128,67,,,1.ja,1.477,None,act,0.895,None,None,None,None,None,Emma Watson,"['lshift', 'e', 'm', 'm', 'a', 'space', 'lshift', 'w', 'a', 't', 's', 'o', 'n', 'return']","[1.4166765039481106, 1.6001417210281943, 2.4495729122281773, 2.599538011258119, 2.699553665370331, 2.8992042065910937, 3.0162000800664828, 3.24941585787019, 3.698955729658337, 4.015925491563394, 4.332076620456064, 4.4821231978530705, 5.581766104485723, 5.898315964113863]",2017_Feb_08_1444,60.0223346647,famFaceGrey,001,15,
223,./greyInner/notfamousface8_9_cut.png,0,129,129,222,,,2.nein,1.726,None,None,None,music,0.716,None,None,None,,['return'],[0.8334274290828034],2017_Feb_08_1444,60.0223346647,famFaceGrey,001,15,
13,./greyInner/BarackObama2_1_cut.png,0,130,130,12,,,1.ja,4.514,None,None,None,None,None,polit,0.766,None,Barack Obama,"['lshift', 'b', 'a', 'r', 'a', 'c', 'k', 'space', 'lshift', 'o', 'b', 'a', 'm', 'a', 'return']","[0.9500425355581683, 1.1000496568958624, 1.4498410851156223, 1.6665469084437063, 1.8830236941648764, 2.0995588620244234, 2.766067918313638, 2.9660350703416043, 2.990664311710134, 3.165904384179157, 3.4491504437064577, 3.8152490928332554, 4.06541429502613, 4.132125828258722, 4.515419940773427]",2017_Feb_08_1444,60.0223346647,famFaceGrey,001,15,
179,./greyInner/Shakira7_1_cut.png,0,131,131,178,,,1.ja,2.86,None,None,None,music,0.582,None,None,None,,['return'],[0.9176481494796462],2017_Feb_08_1444,60.0223346647,famFaceGrey,001,15,
28,./greyInner/Beyonce3_2_cut.png,0,132,132,27,,,1.ja,2.861,None,None,None,music,0.794,None,None,None,Beyonce,"['lshift', 'b', 'e', 'y', 'o', 'n', 'c', 'e', 'pound', 'return']","[1.2000236094791035, 1.3334033705104957, 1.5333172729006037, 1.733270631346386, 1.9164336727626505, 2.133102606279863, 2.2330377443686302, 2.4163008694449672, 2.7995600168324017, 3.3658801972924266]",2017_Feb_08_1444,60.0223346647,famFaceGrey,001,15,
91,./greyInner/JanHofer1_3_cut.png,0,133,133,90,,,1.ja,2.047,None,None,None,host,0.98,None,None,None,,['return'],[0.9835298223661084],2017_Feb_08_1444,60.0223346647,famFaceGrey,001,15,
17,./greyInner/BastianSchweinsteiger12_1_cut.png,0,134,134,16,,,1.ja,1.614,None,None,None,None,None,sport,1.314,None,Schweinsteiger,"['lshift', 's', 'c', 'h', 'w', 'e', 'i', 'n', 's', 't', 'e', 'i', 'g', 'e', 'r', 'return']","[1.0833122687181458, 1.3666061246076424, 1.6330718113094917, 1.7662421023742354, 1.8997755174823396, 2.0496411744170473, 2.1663743282842916, 2.3988160616318055, 2.7491464018639817, 2.932415300994762, 3.115769527859811, 3.2323977863561595, 3.3156349923265225, 3.482259529759176, 3.632427362357703, 3.7154778738113237]",2017_Feb_08_1444,60.0223346647,famFaceGrey,001,15,
90,./greyInner/Ice-T(OdafinFinTutuola)7_1_cut.png,0,135,135,89,,,1.ja,1.656,None,dummy,1.257,None,None,None,None,None,,['return'],[1.000014755925804],2017_Feb_08_1444,60.0223346647,famFaceGrey,001,15,
14,./greyInner/BarackObama4_1_cut.png,0,136,136,13,,,1.ja,1.697,None,None,None,None,None,polit,1.479,None,Obama,"['lshift', 'o', 'b', 'a', 'm', 'a', 'return']","[1.0665671817987459, 1.5665411985391984, 1.8498616792494431, 1.9996442539159034, 2.08295620185163, 2.21635713442447, 2.4661774970882107]",2017_Feb_08_1444,60.0223346647,famFaceGrey,001,15,
5,./greyInner/AlysonHannigan(Lily)8_3_cut.png,0,137,137,4,,,2.nein,2.446,None,act,1.418,None,None,None,None,None,,['return'],[0.9504367753543193],2017_Feb_08_1444,60.0223346647,famFaceGrey,001,15,
32,./greyInner/BritneySpears14_2_cut.png,0,138,138,31,,,1.ja,1.578,None,None,None,music,1.161,None,None,None,Britney Spears,"['lshift', 'b', 'r', 'i', 't', 'n', 'e', 'y', 'space', 'lshift', 's', 'p', 'e', 'a', 'r', 's', 'return']","[0.9169764341495465, 1.0835907065920765, 1.2672323531987786, 1.383409272879362, 1.5332967429203563, 1.7332648572919425, 1.84988798329141, 2.13309843613024, 2.4164397676031513, 2.499404309757665, 2.649623146528029, 2.832810246516601, 2.932930154438509, 3.1993996905112, 3.4658230341265153, 3.682345049965079, 3.832266202007304]",2017_Feb_08_1444,60.0223346647,famFaceGrey,001,15,
169,./greyInner/RobertSeanLeonard(Wilson)2_6_cut.png,0,139,139,168,,,2.nein,1.91,None,None,None,music,0.661,None,None,None,,['return'],[1.233544257509493],2017_Feb_08_1444,60.0223346647,famFaceGrey,001,15,
137,./greyInner/LisaEdelstein(DrLisaCuddy)10_1_cut.png,0,140,140,136,,,2.nein,2.712,None,None,None,music,3.978,None,None,None,,['return'],[1.0161827578958764],2017_Feb_08_1444,60.0223346647,famFaceGrey,001,15,
7,./greyInner/AngelaMerkel3_1_cut.png,0,141,141,6,,,1.ja,1.803,None,None,None,None,None,polit,1.054,None,Angela Merkel,"['lshift', 'a', 'n', 'g', 'e', 'l', 'a', 'space', 'lshift', 'a', 'lshift', 'backspace', 'm', 'e', 'r', 'k', 'e', 'l', 'return']","[1.083296550448722, 1.3997793668531813, 1.7494960531075776, 2.065948395324085, 2.266336091193807, 2.7490020504301356, 2.8659806017312803, 2.999101171746588, 3.0991232414780825, 3.2323458198370645, 3.4821337836219755, 3.599057160598022, 3.898964903994056, 4.182062762716669, 4.33209233872185, 4.415256727417727, 4.531868626079813, 5.0318606065557105, 5.548251551295834]",2017_Feb_08_1444,60.0223346647,famFaceGrey,001,15,
186,./greyInner/TaylorSwift1_2_cut.png,0,142,142,185,,,2.nein,1.732,None,None,None,music,0.916,None,None,None,,['return'],[1.0333644277015992],2017_Feb_08_1444,60.0223346647,famFaceGrey,001,15,
53,./greyInner/DannFlorek(DonaldDonCragen)2_1_cut.png,0,143,143,52,,,2.nein,1.478,None,None,None,music,0.878,None,None,None,,['return'],[1.1169320380613499],2017_Feb_08_1444,60.0223346647,famFaceGrey,001,15,
145,./greyInner/MariskaHargitay(Liv)8_8_cut.png,0,144,144,144,,,2.nein,1.234,None,None,None,host,0.647,None,None,None,,['return'],[0.5004147697800363],2017_Feb_08_1444,60.0223346647,famFaceGrey,001,15,
65,./greyInner/EmilyDeschanel8_3_cut.png,0,145,145,64,,,1.ja,2.372,None,None,None,music,0.831,None,None,None,Adele,"['lshift', 'a', 'd', 'e', 'l', 'e', 'return']","[0.9503966777374444, 1.1003710794175277, 1.3670045345606923, 1.5168570394744165, 1.7167462417310162, 1.7832999507299974, 2.0162908610800514]",2017_Feb_08_1444,60.0223346647,famFaceGrey,001,15,
52,./greyInner/DannFlorek(DonaldDonCragen)10_1_cut.png,0,146,146,51,,,2.nein,1.603,None,None,None,host,1.436,None,None,None,,['return'],[0.7835100622578466],2017_Feb_08_1444,60.0223346647,famFaceGrey,001,15,
129,./greyInner/KatjaBurkard5_3_cut.png,0,147,147,128,,,2.nein,1.436,None,None,None,host,0.751,None,None,None,,['return'],[0.6002956958909635],2017_Feb_08_1444,60.0223346647,famFaceGrey,001,15,
199,./greyInner/UrsulavonderLeyen7_1_cut.png,0,148,148,198,,,1.ja,3.662,None,None,None,None,None,polit,1.812,None,Ursula von der Leyen,"['lshift', 'u', 'r', 's', 'u', 'l', 'a', 'space', 'v', 'o', 'n', 'space', 'd', 'e', 'r', 'space', 'lshift', 'l', 'e', 'y', 'e', 'n', 'pound', 'pound', 'return']","[0.9331476439292601, 1.0833610274239618, 1.3165793714761094, 1.7497728870803257, 1.8664511874048912, 2.1661613297292206, 2.3329270107860793, 2.4660479015801684, 2.6825670303915103, 2.8492390434075787, 3.215829128967016, 3.398729450771498, 3.5658143088840006, 3.7487075735116377, 3.8657146743171324, 3.91545144146221, 4.148420538709615, 4.165443742720527, 4.398637065856747, 4.5986812053160975, 4.765299006350688, 4.881807934325479, 5.215063745592488, 5.648193105007522, 6.481208651333873]",2017_Feb_08_1444,60.0223346647,famFaceGrey,001,15,
73,./greyInner/GuentherJauch4_1_cut.png,0,149,149,72,,,1.ja,1.861,None,None,None,host,2.011,None,None,None,Gnter Jauch,"['lshift', 'g', 'p', u'\xfc', 'backspace', 'backspace', u'\xfc', 'n', 't', 'e', 'r', 'space', 'lshift', 'h', 'backspace', 'lshift', 'j', 'a', 'u', 'c', 'h', 'return']","[0.900401361137483, 1.0836343328010116, 1.516828810748848, 1.5411189866390487, 1.9832783300917072, 2.249735997269454, 2.832952031698369, 3.082785546379455, 3.2494620503275655, 3.3994403013784904, 3.566036289306794, 3.6328533594751207, 3.8491848314224626, 4.015810651981155, 4.565507000723301, 4.649017832853133, 5.031949783664459, 5.19875492078063, 5.348605180228333, 5.431953055631311, 5.565068493149738, 6.115021787441947]",2017_Feb_08_1444,60.0223346647,famFaceGrey,001,15,
100,./greyInner/JasonSegel(Marshall)9_1_cut.png,0,150,150,99,,,2.nein,1.645,None,None,None,music,0.912,None,None,None,,['return'],[0.8667507968166319],2017_Feb_08_1444,60.0223346647,famFaceGrey,001,15,
132,./greyInner/LeonardoDiCaprio2_1_cut.png,0,151,151,131,,,1.ja,1.259,None,act,1.076,None,None,None,None,None,Leonardo Di Caprio,"['lshift', 'l', 'e', 'o', 'n', 'a', 'r', 'd', 'o', 'space', 'lshift', 'd', 'i', 'space', 'c', 'backspace', 'lshift', 'c', 'a', 'b', 'r', 'backspace', 'backspace', 'p', 'r', 'i', 'o', 'return']","[0.9167390562361106, 1.5330975379401934, 1.7496676709233725, 1.8496672859873797, 2.5494134199361724, 2.6992421870600083, 2.9326350359515345, 3.1156893326224235, 3.2490601117860933, 3.5323504390835296, 3.7656018235757074, 3.9321227487598662, 4.032068793399958, 4.29879527502635, 4.381957097470149, 4.715065991058509, 4.765030512684461, 4.933566583862557, 5.148296075694816, 5.315085494541563, 5.598256491324719, 6.014680540658446, 6.164450925643905, 6.347760243177618, 6.547860198523267, 6.7308978145847504, 7.0142641669699515, 7.2975711748804315]",2017_Feb_08_1444,60.0223346647,famFaceGrey,001,15,
212,./greyInner/notfamousface11_1_cut.png,0,152,152,211,,,2.nein,1.348,None,None,None,host,1.051,None,None,None,,['return'],[0.7666703449540364],2017_Feb_08_1444,60.0223346647,famFaceGrey,001,15,
97,./greyInner/JasonSegel(Marshall)14_1_cut.png,0,153,153,96,,,2.nein,3.087,None,None,None,host,2.57,None,None,None,,['return'],[0.5668773769866675],2017_Feb_08_1444,60.0223346647,famFaceGrey,001,15,
79,./greyInner/GeorgeClooney3_1_cut.png,0,154,154,78,,,2.nein,1.579,None,None,None,host,1.611,None,None,None,,['return'],[0.6003399636610993],2017_Feb_08_1444,60.0223346647,famFaceGrey,001,15,
215,./greyInner/notfamousface13_1_cut.png,0,155,155,214,,,2.nein,2.044,None,None,None,music,2.113,None,None,None,,['return'],[0.850308847908309],2017_Feb_08_1444,60.0223346647,famFaceGrey,001,15,
46,./greyInner/CristinMilioti(Tracy_Mutter)10_1_cut.png,0,156,156,45,,,2.nein,1.943,None,None,None,host,1.16,None,None,None,,['return'],[0.5670101803043508],2017_Feb_08_1444,60.0223346647,famFaceGrey,001,15,
200,./greyInner/UrsulavonderLeyen8_2_cut.png,0,157,157,199,,,1.ja,1.492,None,None,None,None,None,polit,1.392,None,Ursula von der Leyen,"['lshift', 'u', 'r', 's', 'u', 'l', 'a', 'space', 'v', 'o', 'n', 'space', 'd', 'e', 'r', 'space', 'lshift', 'l', 'e', 'y', 'e', 'n', 'return']","[1.3831921041673922, 1.6497023794254346, 1.9662387662501715, 2.1828037667364697, 2.282880690014281, 2.5494461395937833, 2.6493100643092475, 2.832478238218755, 3.132295200604858, 3.2658661470886727, 3.6488831048518477, 3.8650657344333013, 3.9320486483557033, 4.098674148135615, 4.265114878078748, 4.315330250414263, 4.515320819453336, 4.565350459615729, 4.781868626083451, 4.981848288567562, 5.148281961330213, 5.231601287228841, 5.881339273342746]",2017_Feb_08_1444,60.0223346647,famFaceGrey,001,15,
76,./greyInner/GeorgeClooney11_1_cut.png,0,158,158,75,,,1.ja,1.863,None,act,0.93,None,None,None,None,None,George Clooney,"['lshift', 'g', 'e', 'o', 'r', 'g', 'e', 'space', 'lshift', 'c', 'l', 'o', 'o', 'n', 'e', 'y', 'return']","[1.116719039502641, 1.283370522538462, 1.4668334941488865, 1.6331937080722128, 1.983018497510784, 2.2497183543164283, 2.4162469782422704, 2.616259039605211, 2.7494017435055866, 2.9826627514266875, 3.24929075329419, 3.4658785292303946, 3.615970657523576, 3.9157189727811783, 4.015682660377934, 4.232347102963104, 4.398951431194291]",2017_Feb_08_1444,60.0223346647,famFaceGrey,001,15,
128,./greyInner/KatjaBurkard4_1_cut.png,0,159,159,127,,,2.nein,1.797,None,None,None,music,1.199,None,None,None,,['return'],[0.6334185755258659],2017_Feb_08_1444,60.0223346647,famFaceGrey,001,15,
150,./greyInner/MilaKunis7_3_cut.png,0,160,160,149,,,2.nein,1.142,None,None,None,music,1.69,None,None,None,,['return'],[1.0333163105569838],2017_Feb_08_1444,60.0223346647,famFaceGrey,001,15,
96,./greyInner/JasonSegel(Marshall)11_1_cut.png,0,161,161,95,,,2.nein,1.746,None,None,None,music,1.229,None,None,None,,['return'],[0.6167289837139833],2017_Feb_08_1444,60.0223346647,famFaceGrey,001,15,
178,./greyInner/Shakira3_1_cut.png,0,162,162,177,,,1.ja,1.531,None,None,None,music,1.197,None,None,None,Britney Spears,"['lshift', 'b', 'r', 'i', 't', 'n', 'e', 'y', 'space', 'lshift', 's', 'p', 'e', 'a', 'r', 's', 'return']","[0.9834060009125096, 1.0666169028481818, 1.3498960028118745, 1.5996762678551022, 1.716438612787897, 1.949691280402476, 2.399350803490961, 2.6326900819658476, 2.749238786782371, 2.882589677526994, 2.999082245671161, 3.132278199213033, 3.215883020166075, 3.4324717584458995, 3.665696518113691, 3.898902672492113, 4.298684605593735]",2017_Feb_08_1444,60.0223346647,famFaceGrey,001,15,
57,./greyInner/ElvisPresley2_1_cut.png,0,163,163,56,,,1.ja,1.79,None,None,None,music,0.518,None,None,None,Elvis Presley,"['lshift', 'e', 'l', 'c', 'backspace', 'v', 'i', 's', 'space', 'lshift', 'p', 'e', 'backspace', 'r', 'e', 's', 'o', 'e', 'backspace', 'backspace', 'l', 'e', 'y', 'return']","[0.9001303012264543, 1.0499423877408844, 1.21669844536882, 1.4501233723567566, 1.899810803388391, 1.9663394914714445, 2.1831216606697126, 2.349400396229612, 2.5326972033035418, 2.649575670944614, 2.7993499053045525, 3.1494544157430937, 3.7158220717828954, 3.7656646966461267, 3.965481402403384, 4.1656153605326836, 4.798739138357632, 4.8819712118347525, 5.23178413237838, 5.415205402467109, 5.614953781878285, 5.7149222811895015, 5.916337117694638, 6.131398938599887]",2017_Feb_08_1444,60.0223346647,famFaceGrey,001,15,
143,./greyInner/MariskaHargitay(Liv)4_4_cut.png,0,164,164,142,,,2.nein,1.596,None,None,None,music,1.078,None,None,None,,['return'],[1.0668712821461668],2017_Feb_08_1444,60.0223346647,famFaceGrey,001,15,
63,./greyInner/EmilyDeschanel5_1_cut.png,0,165,165,62,,,2.nein,1.288,None,None,None,music,0.743,None,None,None,,['return'],[0.600357606614125],2017_Feb_08_1444,60.0223346647,famFaceGrey,001,15,
202,./greyInner/Usher11_1_cut.png,0,166,166,201,,,2.nein,1.561,None,None,None,music,1.012,None,None,None,,['return'],[0.6503978325490607],2017_Feb_08_1444,60.0223346647,famFaceGrey,001,15,
168,./greyInner/RobertSeanLeonard(Wilson)11_2_cut.png,0,167,167,167,,,2.nein,2.045,None,dummy,0.811,None,None,None,None,None,,['return'],[0.6671400324376009],2017_Feb_08_1444,60.0223346647,famFaceGrey,001,15,
115,./greyInner/JoshRadnor(Ted)9_1_cut.png,0,168,168,114,,,2.nein,1.263,None,None,None,music,0.863,None,None,None,,['return'],[0.750073138060543],2017_Feb_08_1444,60.0223346647,famFaceGrey,001,15,
113,./greyInner/JoshRadnor(Ted)6_2_cut.png,0,169,169,112,,,2.nein,1.597,None,None,None,host,0.712,None,None,None,,['return'],[0.9001880417999928],2017_Feb_08_1444,60.0223346647,famFaceGrey,001,15,
130,./greyInner/KatjaBurkard7_1_cut.png,0,170,170,129,,,2.nein,1.177,None,dummy,4.043,None,None,None,None,None,,['return'],[0.7835167986595479],2017_Feb_08_1444,60.0223346647,famFaceGrey,001,15,
69,./greyInner/EmmaWatson(HermioneGranger)4_1_cut.png,0,171,171,68,,,1.ja,2.176,None,act,1.011,None,None,None,None,None,Emma Watson,"['lshift', 'e', 'm', 'm', 'a', 'space', 'lshift', 'w', 'q', 'backspace', 'a', 't', 's', 'o', 'n', 'return']","[0.9166197257181921, 1.0665835416257323, 1.2832277750130743, 1.4165882891829824, 1.6496609986788826, 1.766278671402688, 1.8995740670397936, 2.13281871513027, 2.1580404389314936, 2.599322125672188, 2.9822906455119664, 3.265768950455822, 3.598906393548532, 4.048710588849644, 4.2651928278501146, 4.6319776274503965]",2017_Feb_08_1444,60.0223346647,famFaceGrey,001,15,
39,./greyInner/CarenMiosga6_2_cut.png,0,172,172,38,,,2.nein,1.478,None,None,None,music,1.562,None,None,None,,['return'],[2.5158889225349412],2017_Feb_08_1444,60.0223346647,famFaceGrey,001,15,
41,./greyInner/CobieSmulders(Robin)12_1_cut.png,0,173,173,40,,,2.nein,1.636,None,None,None,music,0.609,None,None,None,,['return'],[0.5502214671760157],2017_Feb_08_1444,60.0223346647,famFaceGrey,001,15,
106,./greyInner/JoachimLoew1_1_cut.png,0,174,174,105,,,1.ja,1.387,None,None,None,None,None,sport,0.969,None,Jrgen Lw,"['lshift', 'j', u'\xfc', 'r', 'g', 'n', 'backspace', 'e', 'n', 'space', 'lshift', 'l', 'backspace', u'\xd6', 'backspace', 'lshift', 'l', u'\xf6', 'w', 'return']","[2.9659333827767114, 3.265449773400178, 3.632431853293383, 3.7657737621702836, 3.99892923315565, 4.28208066229854, 4.665325374546228, 4.748605885946745, 4.931907504735136, 5.131620277465117, 5.1983658134777215, 5.3816924531784025, 5.764908295139321, 6.298074480208015, 6.864365790381271, 6.96442795772964, 7.297575345033692, 7.4805321242893115, 7.54735208148486, 10.662862418332224]",2017_Feb_08_1444,60.0223346647,famFaceGrey,001,15,
152,./greyInner/NeilPatrickHarris(Barney)11_2_cut.png,0,175,175,151,,,2.nein,1.913,None,dummy,1.996,None,None,None,None,None,,['return'],[0.8834015741376788],2017_Feb_08_1444,60.0223346647,famFaceGrey,001,15,
23,./greyInner/BenedictCumberbatch3_9_cut.png,0,176,176,22,,,2.nein,1.483,None,None,None,music,0.735,None,None,None,,['return'],[0.5504752049128001],2017_Feb_08_1444,60.0223346647,famFaceGrey,001,15,
206,./greyInner/WillSmith1_1_cut.png,0,177,177,205,,,1.ja,1.63,None,act,0.697,None,None,None,None,None,Will Smith,"['lshift', 'w', 'i', 'l', 'l', 'lshift', 'space', 's', 'm', 'i', 'z', 't', 'backspace', 'backspace', 't', 'h', 'return']","[0.9001780975886504, 1.033157523979753, 1.1997201506892452, 1.3999294923451089, 1.5331735630279582, 1.6498188229124935, 1.7332228349841898, 1.9162341470037063, 1.9661659489720478, 2.582909688611835, 2.799486237214296, 3.316850110604719, 3.482434355384612, 3.765750665941596, 3.865731034144119, 4.215583410747058]",2017_Feb_08_1444,60.0223346647,famFaceGrey,001,15,
77,./greyInner/GeorgeClooney15_1_cut.png,0,178,178,76,,,1.ja,1.61,None,dummy,0.493,None,None,None,None,None,George Clooney,"['lshift', 'g', 'e', 'o', 'r', 'g', 'e', 'space', 'lshift', 'c', 'l', 'o', 'o', 'e', 'backspace', 'e', 'backspace', 'b', 'e', 'backspace', 'backspace', 'n', 'e', 'y', 'return']","[1.0332569660786248, 1.1665129056600563, 1.3498693779911264, 1.516567053484323, 1.7664188526832731, 1.9662134245554626, 2.14953332785808, 2.2829531865099852, 2.4160330173435796, 2.6990442652058846, 3.0992124185868306, 3.4990899444164825, 3.665525862645154, 3.7823311922256835, 4.115360211355437, 4.415284635360877, 4.931862595400162, 5.231714843688678, 5.314809943694854, 5.631525647080707, 5.798048817730887, 6.197941420265124, 6.297783531874302, 6.481137758742989, 6.664370730406517]",2017_Feb_08_1444,60.0223346647,famFaceGrey,001,15,
38,./greyInner/CarenMiosga2_11_cut.png,0,179,179,37,,,2.nein,1.693,None,act,1.543,None,None,None,None,None,,['return'],[0.6834292896128318],2017_Feb_08_1444,60.0223346647,famFaceGrey,001,15,
2,./greyInner/AlysonHannigan(Lily)12_2_cut.png,0,180,180,1,,,2.nein,1.532,None,act,1.316,None,None,None,None,None,,['return'],[0.6502294225429068],2017_Feb_08_1444,60.0223346647,famFaceGrey,001,15,
71,./greyInner/GuentherJauch2_1_cut.png,0,181,181,70,,,1.ja,1.527,None,None,None,host,2.131,None,None,None,Gnter Jauch,"['lshift', 'g', u'\xfc', 'n', 't', 'e', 'r', 'space', 'lshift', 'j', 'a', 'u', 'c', 'h', 'return']","[1.0337407037659432, 1.4170174941100413, 1.9170396279951092, 2.1832807680257247, 2.3166040716059797, 2.4832119284328655, 2.6332678084763756, 2.7495127337206213, 3.0163752264707, 3.466203159561701, 3.649242700306786, 3.749369344630395, 3.8826275296778476, 3.965986953196989, 4.299326488293445]",2017_Feb_08_1444,60.0223346647,famFaceGrey,001,15,
35,./greyInner/BritneySpears8_5_cut.png,0,182,182,34,,,1.ja,1.788,None,None,None,music,1.221,None,None,None,Britney Spears,"['lshift', 'b', 'r', 'i', 't', 'n', 'e', 'y', 'space', 'lshift', 's', 'p', 'e', 'a', 'r', 's', 'return']","[0.9667103142637643, 1.10006826218887, 1.3333344026032137, 1.4832491390261566, 1.6164335444518656, 1.833118517017283, 1.9164240493337275, 2.1328722855541855, 2.466061374379933, 2.5159909308822535, 2.6327186314738356, 2.782791833687952, 2.882689440404647, 3.099112976487959, 3.3324291587341577, 3.5490698635294393, 3.732374048566271]",2017_Feb_08_1444,60.0223346647,famFaceGrey,001,15,
104,./greyInner/JimParsons(SheldonCooper)8_1_cut.png,0,183,183,103,,,1.ja,1.709,None,act,0.709,None,None,None,None,None,Schauspieler aus der Big Bang Theory,"['lshift', 'd', 'e', 'r', 'space', 'backspace', 'backspace', 'backspace', 'backspace', 'lshift', 's', 'c', 'h', 'a', 'u', 's', 'p', 'i', 'e', 'l', 'e', 'r', 'space', 'a', 'u', 's', 'space', 'd', 'e', 'r', 'space', 'lshift', 'b', 'i', 'g', 'space', 'lshift', 'b', 'a', 'n', 'g', 'space', 'lshift', 't', 'h', 'e', 'r', 'backspace', 'o', 'r', 'x', 'backspace', 'y', 'return']","[0.9998306276502262, 1.1833240734558785, 1.3832447122440499, 1.5496751771970594, 1.9162177871730819, 2.6493671633215854, 2.84914826239401, 3.0325124334704014, 3.4655834107470582, 3.598695640455844, 3.7488176013794146, 3.9652834805492603, 4.03216887706003, 4.19856983016507, 4.282026450313424, 4.615218746952451, 4.814907140327705, 5.531530202166323, 5.631394126885425, 5.731302640153444, 5.848081024138082, 5.997878033944289, 6.04790382473584, 6.297948734067177, 6.414359823851555, 6.514340192057716, 6.69774189450618, 6.814271673243638, 6.94758727808221, 7.097660801078746, 7.147360357630532, 7.364177171173651, 7.663843687285407, 7.863644674776879, 8.196923261493794, 8.363659430702683, 8.430296221969911, 8.663541832404007, 8.79682343445893, 9.113327422408474, 9.296625191826024, 9.679760196984716, 10.029662294633454, 10.179640866466798, 10.296296391341457, 10.546085959031188, 10.912589754512737, 11.129294615497201, 11.229314439762675, 11.429042289193603, 11.862220086532034, 11.995609791774768, 12.212169018202985]",2017_Feb_08_1444,60.0223346647,famFaceGrey,001,15,
151,./greyInner/NeilPatrickHarris(Barney)1_1_cut.png,0,184,184,150,,,2.nein,1.694,None,None,None,host,0.544,None,None,None,,['return'],[1.2499695258084103],2017_Feb_08_1444,60.0223346647,famFaceGrey,001,15,
58,./greyInner/ElvisPresley4_10_cut.png,0,185,185,57,,,1.ja,1.047,None,None,None,music,0.599,None,None,None,Elvis Presley,"['lshift', 'e', 'l', 'v', 'i', 's', 'space', 'lshift', 'p', 'r', 'e', 's', 'l', 'e', 'y', 'return']","[0.9505740696076828, 1.1169038093394192, 1.3169059264946554, 1.4832731975984643, 1.7833904109611467, 1.883427236614807, 2.066683946068224, 2.1832573510182556, 2.316680738258583, 2.4997247699393483, 2.6831001683458453, 2.8830734152143123, 3.316203736972966, 3.416117382737866, 3.982472528321523, 4.199262075479055]",2017_Feb_08_1444,60.0223346647,famFaceGrey,001,15,
162,./greyInner/OmarEpps(DrEricForeman)2_2_cut.png,0,186,186,161,,,2.nein,1.851,None,None,None,music,0.653,None,None,None,,['return'],[0.6501424909001798],2017_Feb_08_1444,60.0223346647,famFaceGrey,001,15,
51,./greyInner/DannFlorek(DonaldDonCragen)1_1_cut.png,0,187,187,50,,,2.nein,1.695,None,None,None,host,1.045,None,None,None,,['return'],[0.5498955537186703],2017_Feb_08_1444,60.0223346647,famFaceGrey,001,15,
218,./greyInner/notfamousface3_3_cut.png,0,188,188,217,,,2.nein,1.377,None,None,None,music,1.101,None,None,None,,['return'],[0.5169802193631767],2017_Feb_08_1444,60.0223346647,famFaceGrey,001,15,
211,./greyInner/notfamousface10_4_cut.png,0,189,189,210,,,2.nein,1.897,None,act,0.946,None,None,None,None,None,,['return'],[0.5838078753040463],2017_Feb_08_1444,60.0223346647,famFaceGrey,001,15,
167,./greyInner/RobertSeanLeonard(Wilson)10_1_cut.png,0,190,190,166,,,2.nein,1.505,None,None,None,music,1.387,None,None,None,,['return'],[0.5166767605733185],2017_Feb_08_1444,60.0223346647,famFaceGrey,001,15,
205,./greyInner/Usher7_1_cut.png,0,191,191,204,,,2.nein,1.294,None,None,None,music,0.727,None,None,None,,['return'],[0.7835822379747697],2017_Feb_08_1444,60.0223346647,famFaceGrey,001,15,
158,./greyInner/NicoleKidman5_1_cut.png,0,192,192,157,,,1.ja,1.692,None,dummy,0.51,None,None,None,None,None,Nicole Kidman,"['capslock', 'lshift', 'n', 'i', 'c', 'o', 'l', 'e', 'space', 'lshift', 'k', 'i', 'd', 'backspace', 't', 'm', 'a', 'n', 'backspace', 'backspace', 'backspace', 'backspace', 'd', 'm', 'a', 'n', 'return']","[1.016632813581964, 1.2832386815643986, 1.3832222575765627, 2.0496148703787185, 2.1992797184284427, 2.466175572400971, 2.649218320955697, 2.7327086231052817, 2.9492813223332632, 3.0824201768627972, 3.1324799704343604, 3.3657878123740375, 3.5157535529688175, 4.148729450771498, 4.265310233680793, 4.4653716953143885, 4.665126811127266, 4.765261474974977, 5.114929402523558, 5.298370240248914, 5.464851709377399, 5.6148232240266225, 6.081210511863901, 6.331090539784782, 6.481230785218941, 6.564462537913641, 6.847685180429835]",2017_Feb_08_1444,60.0223346647,famFaceGrey,001,15,
107,./greyInner/JoachimLoew12_1_cut.png,0,193,193,106,,,2.nein,2.029,None,dummy,1.13,None,None,None,None,None,,['return'],[1.083328307762713],2017_Feb_08_1444,60.0223346647,famFaceGrey,001,15,
190,./greyInner/TaylorSwift8_1_cut.png,0,194,194,189,,,2.nein,1.596,None,None,None,music,0.762,None,None,None,,['return'],[0.5669739320546796],2017_Feb_08_1444,60.0223346647,famFaceGrey,001,15,
8,./greyInner/AngelaMerkel4_1_cut.png,0,195,195,7,,,2.nein,1.394,None,act,2.743,None,None,None,None,None,,['return'],[0.533401317512471],2017_Feb_08_1444,60.0223346647,famFaceGrey,001,15,
144,./greyInner/MariskaHargitay(Liv)6_5_cut.png,0,196,196,143,,,2.nein,1.175,None,None,None,music,0.778,None,None,None,,['return'],[0.7668997033397318],2017_Feb_08_1444,60.0223346647,famFaceGrey,001,15,
78,./greyInner/GeorgeClooney16_1_cut.png,0,197,197,77,,,2.nein,1.192,None,None,None,host,0.459,None,None,None,,['return'],[0.6334317275468493],2017_Feb_08_1444,60.0223346647,famFaceGrey,001,15,
16,./greyInner/BastianSchweinsteiger1_1_cut.png,0,198,198,15,,,1.ja,1.708,None,None,None,None,None,sport,0.908,None,Bastian Schweinsteiger,"['lshift', 'b', 'a', 't', 'backspace', 's', 't', 'i', 'o', 'backspace', 'a', 'n', 'space', 'lshift', 's', 'c', 'h', 'w', 'e', 'i', 'n', 's', 't', 'e', 'i', 'g', 'e', 'r', 'return']","[1.4996994282410014, 1.5665046295107459, 1.6998109317028138, 1.9662852794899663, 2.5494175900894334, 2.632681741659326, 2.8327043887948093, 2.9326529996869795, 3.115711145725072, 3.548981327981892, 3.6323250332316093, 3.83221648095423, 4.032283395863487, 4.165428024451103, 4.265380484714115, 4.731894481028576, 4.86515908169531, 5.031712726533442, 5.164905472265673, 5.231563114295568, 5.464661165486177, 5.931407407217193, 6.131339914903947, 6.331102729462145, 6.447873414701462, 6.5644298182596685, 6.814331017721997, 6.964377915897785, 7.130805814602354]",2017_Feb_08_1444,60.0223346647,famFaceGrey,001,15,
112,./greyInner/JoshRadnor(Ted)3_1_cut.png,0,199,199,111,,,2.nein,1.649,None,None,None,music,1.037,None,None,None,Ted aus How I met your Mother ,"['lshift', 'h', 'o', 'w', 'backspace', 'backspace', 'backspace', 'lshift', 't', 'e', 'd', 'space', 'a', 'u', 's', 'space', 'lshift', 'h', 'o', 'w', 'space', 'lshift', 'i', 'space', 'm', 'e', 't', 'space', 'y', 'o', 'u', 'r', 'space', 'lshift', 'm', 'backspace', 'lshift', 'm', 't', 'o', 'backspace', 'backspace', 'o', 't', 'h', 'e', 'r', 'space', 'return']","[12.54559869275181, 12.74551997310482, 12.995404171178961, 13.128839427314233, 13.461831556633115, 13.62840124052309, 13.745221005250642, 13.845314288351801, 14.245046179625206, 14.394920818427636, 14.561533166182926, 14.71151013411145, 14.927950992369006, 15.06139266412356, 15.177679611675558, 15.37791429502613, 15.71098982739204, 15.91094350662388, 16.594139588476537, 16.744119443432282, 16.927204535073543, 17.193808478368737, 17.243582456103468, 17.560467531835457, 17.8935860488491, 18.01014886802659, 18.34344028598207, 18.493478523072554, 19.076589982909354, 19.19304886905229, 19.592599198302196, 19.675963754318218, 20.392699731055473, 20.575740875705378, 20.7258926692557, 21.275718613505887, 21.592077287681605, 21.775224610828445, 22.04179519290483, 22.175237827003002, 22.49149834220225, 22.62508693163909, 22.8416355722984, 22.908084385922848, 23.09157334079282, 23.208096703910996, 23.341375739721116, 23.476092195014644, 27.906299560658226]",2017_Feb_08_1444,60.0223346647,famFaceGrey,001,15,
164,./greyInner/OmarEpps(DrEricForeman)5_2_cut.png,0,200,200,163,,,1.ja,2.382,None,None,None,music,0.684,None,None,None,,['return'],[0.6165734049463936],2017_Feb_08_1444,60.0223346647,famFaceGrey,001,15,
203,./greyInner/Usher2_1_cut.png,0,201,201,202,,,1.ja,1.329,None,None,None,music,0.463,None,None,None,,['return'],[0.8337950440654822],2017_Feb_08_1444,60.0223346647,famFaceGrey,001,15,
180,./greyInner/Shakira9_1_cut.png,0,202,202,179,,,2.nein,1.76,None,act,1.494,None,None,None,None,None,,['return'],[0.550273754473892],2017_Feb_08_1444,60.0223346647,famFaceGrey,001,15,
204,./greyInner/Usher4_1_cut.png,0,203,203,203,,,2.nein,1.66,None,None,None,music,2.559,None,None,None,,['return'],[0.6838007539627142],2017_Feb_08_1444,60.0223346647,famFaceGrey,001,15,
43,./greyInner/CobieSmulders(Robin)3_4_cut.png,0,204,204,42,,,2.nein,1.742,None,None,None,host,0.959,None,None,None,,['return'],[0.5499808814565768],2017_Feb_08_1444,60.0223346647,famFaceGrey,001,15,
4,./greyInner/AlysonHannigan(Lily)5_4_cut.png,0,205,205,3,,,2.nein,2.184,None,dummy,0.735,None,None,None,None,None,,['return'],[1.0168647382160998],2017_Feb_08_1444,60.0223346647,famFaceGrey,001,15,
72,./greyInner/GuentherJauch3_1_cut.png,0,206,206,71,,,1.ja,1.485,None,None,None,host,1.334,None,None,None,Gnter Jauch,"['lshift', 'g', u'\xdc', 'n', 't', 'backspace', 'backspace', 'backspace', u'\xdc', 'n', 't', 'e', 'r', 'space', 'backspace', 'backspace', 'backspace', 'backspace', 'backspace', 'backspace', 'capslock', 'lshift', u'\xdc', u'\xfc', 'n', 'n', 't', 'backspace', 'backspace', 't', 'e', 'r', 'space', 'lshift', 'h', 'backspace', 'lshift', 'j', 'a', 'u', 'c', 'h', 'return']","[1.3832937917322852, 1.4828962799656438, 1.8830830386395974, 2.182642734693218, 2.299548468719877, 2.7659229253149533, 2.9493387421280204, 3.049385191210604, 3.8489750406733947, 4.3154123703388905, 4.448668309920322, 4.648573551225127, 4.781866380613792, 4.881721965026372, 5.231774188167037, 5.398319171923504, 5.564694141768996, 5.731508581531671, 5.914444189242204, 6.314373360808531, 6.914297592345974, 7.264159913156618, 7.397553146987775, 8.130588966672804, 8.780288779849798, 9.130129929118993, 9.24686597001346, 9.546702179257409, 9.696687166706397, 9.796728162513318, 9.979857842707133, 10.11315772927992, 10.179680643304891, 10.396421110977826, 10.462992783708614, 11.01278280049155, 11.129455005979253, 11.579142116228468, 11.745713083240844, 11.879052746651723, 11.962356354284566, 12.095768193412368, 12.378606219557696]",2017_Feb_08_1444,60.0223346647,famFaceGrey,001,15,
42,./greyInner/CobieSmulders(Robin)2_1_cut.png,0,207,207,41,,,1.ja,1.76,None,None,None,music,0.794,None,None,None,Adele,"['lshift', 'a', 'd', 'e', 'l', 'e', 'return']","[1.1498849037925538, 1.3165351037023356, 1.583077136274369, 1.7497369596130739, 1.8328420038305921, 1.9497130935124005, 2.1825907681813987]",2017_Feb_08_1444,60.0223346647,famFaceGrey,001,15,
74,./greyInner/GuentherJauch7_1_cut.png,0,208,208,73,,,1.ja,1.995,None,None,None,host,1.779,None,None,None,Gnter Jauch,"['lshift', 'g', u'\xfc', 'n', 't', 'e', 'r', 'space', 'lshift', 'j', 'a', 'u', 'c', 'h', 'return']","[0.9329981599985331, 1.0164544593681057, 1.6165163059376937, 1.866277003340656, 1.9828436718889861, 2.182759498966334, 2.366076836020511, 2.4493875008338364, 2.649145182895154, 2.749313207961677, 2.932544254941604, 3.115811550167564, 3.1990644744073506, 3.381724852053594, 3.648871556735685]",2017_Feb_08_1444,60.0223346647,famFaceGrey,001,15,
208,./greyInner/WillSmith4_1_cut.png,0,209,209,207,,,1.ja,1.49,None,act,0.908,None,None,None,None,None,Will Smith,"['lshift', 'w', 'i', 'l', 'l', 'lshift', 'space', 's', 'm', 'i', 't', 'h', 'return']","[0.7500769874277466, 0.88340285726008, 1.0334125448425766, 1.2499050488331704, 1.3996305244872929, 1.6165981050799019, 1.749661896865291, 1.8497224603124778, 2.0329108434234513, 2.1326846286901855, 2.3162496086479223, 2.832532129421452]",2017_Feb_08_1444,60.0223346647,famFaceGrey,001,15,
170,./greyInner/RobertSeanLeonard(Wilson)8_1_cut.png,0,210,210,169,,,2.nein,1.329,None,None,None,music,0.761,None,None,None,,['return'],[0.650819980291999],2017_Feb_08_1444,60.0223346647,famFaceGrey,001,15,
109,./greyInner/JoachimLoew4_1_cut.png,0,211,211,108,,,1.ja,1.059,None,None,None,None,None,sport,1.576,None,Jogi Lw,"['lshift', 'j', 'o', 'g', 'i', 'space', 'backspace', 'backspace', 'backspace', 'backspace', 'o', 'g', 'i', 'space', 'lshift', 'l', u'\xf6', 'w', 'return']","[0.5002069037182082, 0.8167744062993734, 1.000160069699632, 1.116516626720113, 1.2499464295797225, 1.5165721859812038, 1.7829958503753005, 1.9497047532022407, 2.149466284638038, 2.3660784399253316, 4.08209682965753, 4.231854062625644, 4.332021766913385, 4.548521328084462, 4.681844631664717, 4.915179098425142, 5.181789778122038, 5.364990350906737, 5.548171035276027]",2017_Feb_08_1444,60.0223346647,famFaceGrey,001,15,
75,./greyInner/GuentherJauch9_1_cut.png,0,212,212,74,,,1.ja,1.939,None,None,None,host,1.321,None,None,None,Gnter Jauch,"['lshift', 'g', u'\xfc', 'n', 't', 'e', 'r', 'space', 'lshift', 'j', 'a', 'u', 'c', 'h', 'return']","[0.6333778363441525, 1.1499541924786172, 1.4497333027102286, 1.7328985254353029, 1.8329613343485107, 2.0328370638017077, 2.166047452486964, 2.2325431001299876, 2.4658605654985877, 2.649265154977911, 2.982290324733185, 3.1657783172595373, 3.3320400514276116, 3.4154892936167016, 3.7488692471160903]",2017_Feb_08_1444,60.0223346647,famFaceGrey,001,15,
188,./greyInner/TaylorSwift3_1_cut.png,0,213,213,187,,,1.ja,2.328,None,None,None,music,0.761,None,None,None,Adele,"['lshift', 'a', 'e', 'backspace', 'd', 'e', 'l', 'e', 'return']","[0.5337432700143836, 0.7003607502665545, 1.1835540734064125, 1.7001846415223554, 1.86674983447665, 1.999892859159445, 2.049849682040076, 2.5162392153433757, 2.6162946462936816]",2017_Feb_08_1444,60.0223346647,famFaceGrey,001,15,
110,./greyInner/JoachimLoew8_1_cut.png,0,214,214,109,,,1.ja,1.207,None,None,None,None,None,sport,1.324,None,Jogi Lw,"['lshift', 'j', 'o', 'g', 'i', 'space', 'lshift', 'l', u'\xf6', 'w', 'return']","[0.5168413212086307, 1.3665009084506892, 1.5996826834743842, 1.7329921934760932, 1.8662073938721733, 2.216178780210612, 2.382717027565377, 2.515909773297608, 2.8657711317682697, 3.1824377556622494, 3.3989742066441977]",2017_Feb_08_1444,60.0223346647,famFaceGrey,001,15,
221,./greyInner/notfamousface6_8_cut.png,0,215,215,220,,,2.nein,2.234,None,None,None,host,0.744,None,None,None,,['return'],[0.783558179402462],2017_Feb_08_1444,60.0223346647,famFaceGrey,001,15,
94,./greyInner/JanHofer7_1_cut.png,0,216,216,93,,,2.nein,1.293,None,None,None,host,0.442,None,None,None,,['return'],[0.6336277247100952],2017_Feb_08_1444,60.0223346647,famFaceGrey,001,15,
194,./greyInner/TomCruise6_1_cut.png,0,217,217,193,,,1.ja,1.446,None,act,1.079,None,None,None,None,None,Tom Cruise,"['lshift', 't', 'o', 'comma', 'backspace', 'o', 'm', 'lshift', 'space', 'c', 'r', 'u', 's', 'backspace', 'i', 's', 'e', 'return']","[1.1000666582840495, 1.2833304249179491, 1.7495605300828174, 1.9663879293984792, 2.4828696551485336, 3.3323759090926615, 3.5325506064036745, 3.6990805134555558, 3.749010069957876, 3.9155698096365086, 4.198953804974735, 4.4654130760573025, 4.665294900351, 5.015165561468166, 5.265292269948986, 5.365074074739823, 5.515081196077517, 5.931551117086201]",2017_Feb_08_1444,60.0223346647,famFaceGrey,001,15,
134,./greyInner/LeonardoDiCaprio4_1_cut.png,0,218,218,133,,,1.ja,1.194,None,act,0.928,None,None,None,None,None,Leo Di Caprio,"['lshift', 'l', 'e', 'o', 'space', 'lshift', 'd', 'i', 'space', 'lshift', 'c', 'a', 'p', 'r', 'i', 'o', 'return']","[0.7839950830712041, 1.5839406786217296, 1.8335788376971323, 1.9669412765542802, 2.2334460985366604, 2.350215500649938, 2.6332366927235853, 2.7333338251992245, 2.9497127727299812, 3.316377600251144, 3.499732789459813, 3.7495541144671733, 4.299355358583853, 4.5156486575979216, 4.665871022960346, 5.032427105736133, 5.548715079785325]",2017_Feb_08_1444,60.0223346647,famFaceGrey,001,15,
189,./greyInner/TaylorSwift7_1_cut.png,0,219,219,188,,,2.nein,1.53,None,None,None,music,1.397,None,None,None,,['return'],[0.8002974922637804],2017_Feb_08_1444,60.0223346647,famFaceGrey,001,15,
87,./greyInner/Ice-T(OdafinFinTutuola)12_1_cut.png,0,220,220,86,,,1.ja,1.596,None,act,0.647,None,None,None,None,None,,['return'],[0.9165879684042011],2017_Feb_08_1444,60.0223346647,famFaceGrey,001,15,
108,./greyInner/JoachimLoew15_1_cut.png,0,221,221,107,,,1.ja,1.095,None,None,None,None,None,sport,1.096,None,Jogi Lw,"['lshift', 'j', 'o', 'g', 'i', 'space', 'lshift', 'l', u'\xf6', 'w', 'return']","[1.0667458567950234, 1.2500224546674872, 1.4332188573025633, 1.533286798709014, 1.6499336624983698, 1.8498260725646105, 1.9662073297185998, 2.3996703013290244, 2.6494383766948886, 2.74951337528546, 2.9490641536285693]",2017_Feb_08_1444,60.0223346647,famFaceGrey,001,15,
62,./greyInner/EmilyDeschanel3_1_cut.png,0,222,222,61,,,1.ja,2.168,None,None,None,music,1.201,None,None,None,Adele,"['lshift', 'a', 'd', 'e', 'l', 'e', 'return']","[0.9668264369720418, 1.1164762083208188, 1.3498889456350298, 1.5166992152444436, 1.6332899423650815, 1.783099141848652, 1.9498202343529556]",2017_Feb_08_1444,60.0223346647,famFaceGrey,001,15,
216,./greyInner/notfamousface14_6_cut.png,0,223,223,215,,,2.nein,1.379,None,None,None,music,0.806,None,None,None,,['return'],[0.5836510134140553],2017_Feb_08_1444,60.0223346647,famFaceGrey,001,15,
