num,pic,trials.thisRepN,trials.thisTrialN,trials.thisN,trials.thisIndex,key_resp_2.keys,key_resp_2.rt,ratingBekannt.response,ratingBekannt.rt,key_resp_5.keys,ratingK1.response,ratingK1.rt,ratingK2.response,ratingK2.rt,ratingK3.response,ratingK3.rt,key_resp_6.keys,inputText,key_resp_4.keys,key_resp_4.rt,date,frameRate,expName,session,participant,
,,,,,,space,48.5284202524,,,,,,,,,,,,,,2017_Feb_09_1224,59.9933799559,famFaceGrey,001,16,
95,./greyInner/JanHofer9_2_cut.png,0,0,0,94,,,1.ja,10.595,None,None,None,host,5.474,None,None,None,Jan Hofer,"['lshift', 'j', 'a', 'n', 'space', 'lshift', 'h', 'o', 'f', 'e', 'r', 'return']","[6.830722447120479, 6.980875456300964, 7.364020709167107, 7.6305389644135175, 7.764022954584789, 7.880193170080929, 7.946968044497908, 8.130312177221185, 8.279968949080512, 8.43031827192658, 8.513347404617889, 10.745826730736098]",2017_Feb_09_1224,59.9933799559,famFaceGrey,001,16,
192,./greyInner/TomCruise4_1_cut.png,0,1,1,191,,,1.ja,3.588,None,act,2.073,None,None,None,None,None,Tom Cruise,"['lshift', 't', 'o', 'm', 'space', 'lshift', 'c', 'r', 'u', 'i', 's', 'e', 'return']","[3.5821251916624988, 3.66553764924015, 3.9486302951761445, 4.182081887177446, 4.29852155280264, 4.814920159360554, 4.898412168881123, 5.1982081566402485, 5.931244987906894, 6.081251082612198, 6.181215476702164, 6.2811067343286595, 8.163584777350707]",2017_Feb_09_1224,59.9933799559,famFaceGrey,001,16,
112,./greyInner/JoshRadnor(Ted)3_1_cut.png,0,2,2,111,,,2.nein,10.889,None,act,6.053,None,None,None,None,None,,['return'],[2.8326085980254447],2017_Feb_09_1224,59.9933799559,famFaceGrey,001,16,
52,./greyInner/DannFlorek(DonaldDonCragen)10_1_cut.png,0,3,3,51,,,2.nein,23.451,None,None,None,None,None,polit,3.984,None,,['return'],[2.2494559673582444],2017_Feb_09_1224,59.9933799559,famFaceGrey,001,16,
140,./greyInner/LisaEdelstein(DrLisaCuddy)9_1_cut.png,0,4,4,139,,,2.nein,3.544,None,None,None,music,3.161,None,None,None,,['return'],[1.4166221860104997],2017_Feb_09_1224,59.9933799559,famFaceGrey,001,16,
222,./greyInner/notfamousface7_cut.png,0,5,5,221,,,2.nein,2.637,None,None,None,None,None,sport,5.523,None,,['return'],[0.9001722556183722],2017_Feb_09_1224,59.9933799559,famFaceGrey,001,16,
195,./greyInner/TomCruise7_1_cut.png,0,6,6,194,,,1.ja,3.121,None,act,1.213,None,None,None,None,None,Tom Cruise,"['lshift', 't', 'o', 'm', 'space', 'lshift', 'c', 'r', 'u', 'i', 's', 'e', 'return']","[1.6496891700294327, 1.6998639918394929, 1.8497283044530377, 2.0330124524452913, 2.1661990851528117, 2.2661843295504696, 2.382719906590637, 2.949200310509241, 3.1325463678765573, 3.282255105117656, 3.3490104123229685, 3.4324395501466824, 4.8818329665818965]",2017_Feb_09_1224,59.9933799559,famFaceGrey,001,16,
141,./greyInner/MariskaHargitay(Liv)13_1_cut.png,0,7,7,140,,,2.nein,14.307,None,dummy,1.196,None,None,None,None,None,,['return'],[1.24998331975371],2017_Feb_09_1224,59.9933799559,famFaceGrey,001,16,
121,./greyInner/KaleyCuoco(Penny)10_1_cut.png,0,8,8,120,,,1.ja,17.322,None,act,1.757,None,None,None,None,None,Kaley Cucoa oder so ähnlich aus Charmed ,"['lshift', 'k', 'a', 'l', 'e', 'y', 'space', 'lshift', 'c', 'o', 'backspace', 'u', 'c', 'u', 'backspace', 'o', 'a', 'backspace', 'a', 'space', 'lshift', '8', 'lshift', '8', 'o', 'd', 'e', 'r', 's', 'space', 'backspace', 'space', 'backspace', 'backspace', 'space', 's', 'o', 'space', u'\xe4', 'h', 'n', 'l', 'i', 'c', 'h', 'comma', 'space', 'lshift', 'c', 'backspace', 'backspace', 'space', 'a', 'u', 's', 'space', 'lshift', 'c', 'h', 'a', 'r', 'm', 'd', 'e', 'backspace', 'backspace', 'e', 'd', 'space', 'u', 'backspace', 'return']","[1.849801120142729, 2.416392191078785, 2.749703604857814, 3.0828530277854043, 3.5159581839061502, 3.765959787775955, 4.049034149596309, 4.68213962649088, 4.815457455749311, 5.115170683825909, 5.481851250697673, 5.731865043978132, 6.081549081624189, 7.797465564915001, 8.813748372072268, 11.74592488756889, 12.345662494466751, 12.762245225279685, 16.59381066637593, 17.693382112360723, 18.376423113688816, 18.559695713818428, 19.72571131626387, 19.825979804071267, 20.475545796898814, 20.59230110410408, 20.75881262309713, 20.825426789758467, 21.525218286682275, 21.674912268321123, 21.99139684230113, 22.241507188544574, 23.024549152194595, 23.274356046268622, 23.841615610144117, 24.024174167431283, 24.707126314371408, 25.523661249863835, 25.706672098439185, 26.02301585264945, 26.17321729869832, 27.805781950690744, 27.989080212737463, 28.05541338140665, 28.122342868874057, 28.62222418250758, 28.771983602035107, 28.92210613768907, 29.005500311150854, 30.28821412303614, 30.47144181481076, 31.820858647745354, 33.036993898879246, 33.18686879703364, 33.25360774476667, 33.35372899732488, 33.969936101826534, 34.036590044459444, 34.91960859160986, 35.00278014794094, 35.06941195717036, 35.286133583109404, 35.402602118391314, 35.569426071224825, 36.118889416384036, 36.285821790816954, 36.55221494421744, 36.7688868501923, 36.935426597294054, 37.08535731011784, 38.368137201439595, 51.91254194119574]",2017_Feb_09_1224,59.9933799559,famFaceGrey,001,16,
123,./greyInner/KaleyCuoco(Penny)3_1_cut.png,0,9,9,122,,,1.ja,2.461,None,act,0.762,None,None,None,None,None,Kaley Cucoa Charmed ,"['lshift', 'k', 'a', 'l', 'e', 'y', 'space', 'lshift', 'c', 'u', 'c', 'o', 'a', 'space', 'lshift', 'c', 'h', 'a', 'r', 'm', 'd', 'e', 'backspace', 'backspace', 'e', 'd', 'minus', 'lshift', 's', 'e', 'backspace', 'backspace', 'space', 'return']","[2.983053832286714, 3.1830015461305265, 3.9993651883264647, 4.249225972426302, 4.4991124184432465, 4.7321582313807085, 5.365522572863938, 5.515315994431376, 5.615345184862008, 6.0151382856556666, 7.9643928069647245, 8.847216002771574, 8.930641612081672, 10.663284853695131, 10.796367876412205, 10.946551679893219, 11.24633932752954, 11.346331949728437, 11.412953173417009, 11.629432294239678, 11.946252397785429, 12.196031705298537, 12.529063083407664, 12.645802351914881, 12.76228788821686, 12.978920018220151, 15.427930109769022, 15.627690812392302, 15.711058040840953, 15.910984904377301, 16.377335394840657, 16.49412374176427, 16.877330904005248, 22.65821951203884]",2017_Feb_09_1224,59.9933799559,famFaceGrey,001,16,
164,./greyInner/OmarEpps(DrEricForeman)5_2_cut.png,0,10,10,163,,,1.ja,5.623,None,dummy,1.23,None,None,None,None,None,,['return'],[1.1499672810557513],2017_Feb_09_1224,59.9933799559,famFaceGrey,001,16,
173,./greyInner/SahraWagenknecht5_1_cut.png,0,11,11,172,,,1.ja,3.277,None,None,None,None,None,polit,1.028,None,Sarah Wagenknecht,"['lshift', 's', 'a', 'r', 'a', 'h', 'lshift', 'space', 'lshift', 'w', 'a', 'g', 'e', 'n', 'k', 'e', 'n', 'backspace', 'backspace', 'n', 'e', 'c', 'h', 't', 'return']","[1.5496025610593733, 1.6330134147672197, 1.8662411065417928, 2.8158164018143452, 2.8989715986731426, 3.132505308808959, 6.714166661320405, 6.897348161644459, 7.430527095776597, 7.480576494966954, 7.680467431819352, 8.246984083195912, 8.313562964721314, 8.430086352350827, 8.64676467380491, 8.763494960641083, 8.863313081803653, 9.313184130670379, 9.4130314422639, 9.646362423254914, 9.72960968224129, 9.862855978905827, 10.1627809177985, 10.379360440871778, 11.029087462228745]",2017_Feb_09_1224,59.9933799559,famFaceGrey,001,16,
215,./greyInner/notfamousface13_1_cut.png,0,12,12,214,,,2.nein,4.886,None,act,1.38,None,None,None,None,None,,['return'],[1.249779628287115],2017_Feb_09_1224,59.9933799559,famFaceGrey,001,16,
93,./greyInner/JanHofer5_1_cut.png,0,13,13,92,,,1.ja,2.561,None,None,None,host,2.461,None,None,None,Jan Hofer,"['lshift', 'j', 'a', 'n', 'space', 'lshift', 'h', 'o', 'f', 'e', 'r', 'return']","[1.1167867430535807, 1.233312376100912, 1.3499095417423632, 1.4999477138439943, 1.6333120553269964, 1.7497093787890208, 1.8330807772993012, 1.9663803224418643, 2.083052228416591, 2.2329049931674945, 2.2996134673740016, 2.9992250101042828]",2017_Feb_09_1224,59.9933799559,famFaceGrey,001,16,
136,./greyInner/LisaEdelstein(DrLisaCuddy)1_1_cut.png,0,14,14,135,,,2.nein,4.962,None,act,0.73,None,None,None,None,None,,['return'],[1.0498424999841518],2017_Feb_09_1224,59.9933799559,famFaceGrey,001,16,
98,./greyInner/JasonSegel(Marshall)6_1_cut.png,0,15,15,97,,,2.nein,2.063,None,None,None,None,None,sport,4.568,None,,['return'],[1.166672868296473],2017_Feb_09_1224,59.9933799559,famFaceGrey,001,16,
68,./greyInner/EmmaWatson(HermioneGranger)3_1_cut.png,0,16,16,67,,,1.ja,4.725,None,act,3.459,None,None,None,None,None,Emma Watson Harry Potter Darstellerin Hermine Granger,"['lshift', 'e', 'm', 'm', 'a', 'space', 'lshift', 'w', 'a', 't', 's', 'o', 'n', 'space', 'lshift', 'h', 'a', 'r', 'r', 'y', 'space', 'lshift', 'p', 'o', 't', 't', 'e', 'r', 'space', 'lshift', 'd', 'a', 'r', 's', 't', 'e', 'l', 'l', 'e', 'r', 'i', 'n', 'space', 'lshift', 'h', 'e', 'r', 's', 'backspace', 'm', 'i', 'n', 'd', 'e', 'space', 'lshift', 'backspace', 'backspace', 'backspace', 'e', 'space', 'lshift', 'backspace', 'backspace', 'e', 'backspace', 'capslock', 'lshift', 'g', 'backspace', 'e', 'space', 'lshift', 'g', 'r', 'a', 'n', 'g', 'e', 'r', 'return']","[0.9335147844719813, 1.0333611337434832, 1.316490989459453, 1.432801703951327, 1.566393474174447, 1.7164133621602105, 1.849558294252347, 1.932918786447999, 2.1495210844725534, 2.849335356347865, 3.1157724557813253, 3.249074887889492, 3.3990883603960356, 4.731672579600172, 7.847098599500896, 7.913718540093669, 8.06376954315374, 8.480382105945182, 8.679918908342188, 8.913401615417797, 9.329848979617964, 9.529655873692036, 9.779602945988017, 9.946322647283296, 10.129563170016581, 10.295825126866248, 10.446088161516172, 10.545980060690454, 10.812613153015718, 11.012323814900583, 11.079125313556688, 11.195787917086363, 11.34568591096604, 11.54563683254969, 11.695597377352215, 11.778862278906672, 11.928794595600266, 12.0454401981101, 12.6452118070481, 12.728283602676584, 12.861880505283125, 12.978330756449168, 13.128057777806362, 13.26153856023825, 13.711300866731335, 13.878010624033777, 13.927773251300778, 14.144578278470362, 14.794210671508154, 15.01083349906662, 15.160813931854818, 15.244163517735615, 15.344271618561379, 15.4940361704721, 15.627225690145224, 15.727199707454247, 16.07716313922242, 16.210331487813846, 16.343389169388047, 16.52698639276855, 16.643437606256384, 16.926662411065536, 17.27659184079357, 17.393149230463223, 18.2262152521605, 18.70934895716391, 19.109025617008683, 19.558808453035454, 19.592176002258384, 20.175381881403382, 20.375066881371367, 20.90845656399756, 21.108265382715445, 21.208256721818543, 21.40824292853813, 21.49151841563321, 21.59143148588919, 21.80792921160173, 21.957955515066715, 22.007946212621846, 24.44026515175824]",2017_Feb_09_1224,59.9933799559,famFaceGrey,001,16,
202,./greyInner/Usher11_1_cut.png,0,17,17,201,,,1.ja,7.772,None,None,None,music,7.874,None,None,None,Rapper,"['lshift', 'r', 'a', 'p', 'p', 'e', 'r', 'return']","[1.399898956201696, 1.4997783451913165, 1.6996003156416464, 1.8996131466001316, 2.0160868142654635, 2.0996362423254595, 2.1827442854119, 7.147424505847766]",2017_Feb_09_1224,59.9933799559,famFaceGrey,001,16,
19,./greyInner/BastianSchweinsteiger3_1_cut.png,0,18,18,18,,,1.ja,3.161,None,None,None,None,None,sport,1.262,None,Bastian Schweinsteiger,"['lshift', 'b', 'a', 's', 't', 'i', 'a', 'n', 'space', 'lshift', 's', 'c', 'h', 'w', 'e', 'i', 'n', 's', 't', 'e', 'i', 'g', 'e', 'r', 'return']","[0.9341069332085681, 1.033968679630334, 1.1506447556664625, 1.5503762678590647, 1.7338573710649143, 1.8170298897180146, 2.0167001340835213, 2.133554560443372, 2.266899013940929, 2.416530444656928, 2.516675434488434, 2.616718097425519, 2.733516388341741, 2.883117987079231, 2.9665108774452165, 3.0497690427464477, 3.349690773899283, 3.632914616386415, 3.782816138779708, 3.8661371757777943, 3.949616033565917, 4.08263554303835, 4.216070134019446, 4.282608598025263, 5.015589935396065]",2017_Feb_09_1224,59.9933799559,famFaceGrey,001,16,
176,./greyInner/Shakira1_1_cut.png,0,19,19,175,,,1.ja,5.509,None,None,None,music,2.175,None,None,None,Shakira,"['lshift', 's', 'h', 'a', 'k', 'i', 'r', 'a', 'return']","[1.066469497603748, 1.1498915784002293, 1.3162154446247314, 1.5995242922122088, 2.282576520628936, 2.499063660800857, 2.7154706074816204, 2.9153628274300445, 3.4488320619991555]",2017_Feb_09_1224,59.9933799559,famFaceGrey,001,16,
34,./greyInner/BritneySpears7_1_cut.png,0,20,20,33,,,1.ja,1.596,None,None,None,music,2.812,None,None,None,Britney Spears,"['lshift', 'b', 'r', 'i', 't', 'n', 'e', 'y', 'space', 'lshift', 's', 'p', 'e', 'a', 'r', 's', 'return']","[0.6998344806349905, 0.799938090625119, 1.0162847318008517, 1.299915636447622, 1.4163604344562373, 1.6328703495794343, 1.716328998607878, 1.916210953789232, 2.1661118346346484, 2.299278579356269, 2.3661323641683794, 2.632245161124729, 2.78262784446315, 3.115685846811175, 3.3157326798097984, 3.4988541954026005, 4.032078358663739]",2017_Feb_09_1224,59.9933799559,famFaceGrey,001,16,
209,./greyInner/WillSmith5_1_cut.png,0,21,21,208,,,1.ja,2.566,None,act,0.879,None,None,None,None,None,Will Smith,"['lshift', 'w', 'i', 'l', 'l', 'space', 'lshift', 's', 'm', 'i', 't', 'h', 'return']","[1.1171341412562015, 1.1834753292746427, 1.4336341123864713, 1.6001915020563047, 1.7168367837921323, 1.9500680040803218, 2.100053248477934, 2.2167241921308687, 2.3667193805213174, 2.583275807869313, 2.7329184656741745, 2.816341829566454, 3.116374869284755]",2017_Feb_09_1224,59.9933799559,famFaceGrey,001,16,
120,./greyInner/JudithRakers8_1_cut.png,0,22,22,119,,,1.ja,2.406,None,None,None,host,1.057,None,None,None,Judith Rakers,"['lshift', 'j', 'u', 'd', 'i', 't', 'h', 'space', 'lshift', 'r', 'a', 'k', 'e', 'r', 's', 'return']","[0.6999704887953158, 0.8000577393133881, 0.9665397471017059, 1.0831943312823569, 1.2331901612210459, 1.3830246418558545, 1.499782836026725, 1.7162420688637212, 1.9660528122253709, 2.0493363186697025, 2.166009828514234, 2.3659379751463803, 2.482693282351647, 2.5491082483815717, 2.749286598705339, 3.149066226992545]",2017_Feb_09_1224,59.9933799559,famFaceGrey,001,16,
53,./greyInner/DannFlorek(DonaldDonCragen)2_1_cut.png,0,23,23,52,,,2.nein,1.811,None,None,None,None,None,polit,6.359,None,,['return'],[1.3669002970366364],2017_Feb_09_1224,59.9933799559,famFaceGrey,001,16,
108,./greyInner/JoachimLoew15_1_cut.png,0,24,24,107,,,1.ja,1.645,None,None,None,None,None,sport,3.06,None,Jogi Löw,"['lshift', 'j', 'o', 'g', 'i', 'space', 'lshift', 'l', 'backspace', 'lshift', 'l', u'\xd6', 'w', 'backspace', 'backspace', u'\xd6', 'w', 'backspace', 'backspace', 'capslock', u'\xf6', 'w', 'return']","[0.8503490020721074, 0.9835847131960236, 1.1997748166777455, 1.4165663713406502, 1.5331734809749378, 1.7164630821246192, 1.9663800016680852, 2.216367170709418, 2.5495884470049077, 2.78271766117291, 3.1825534249035172, 3.465849441532555, 3.8989770518305704, 4.24883206199911, 4.332093435039951, 5.181710110153745, 5.51481654937038, 5.864733148139749, 5.964851834506362, 6.5477430343933065, 6.91442456358709, 7.314795699062643, 7.680730466469413]",2017_Feb_09_1224,59.9933799559,famFaceGrey,001,16,
48,./greyInner/CristinMilioti(Tracy_Mutter)4_2_cut.png,0,25,25,47,,,2.nein,2.711,None,None,None,music,3.709,None,None,None,,['return'],[2.299505366548374],2017_Feb_09_1224,59.9933799559,famFaceGrey,001,16,
187,./greyInner/TaylorSwift2_1_cut.png,0,26,26,186,,,1.ja,2.136,None,None,None,music,1.943,None,None,None,Taylor Swift,"['lshift', 't', 'a', 'y', 'l', 'o', 'r', 'space', 'lshift', 's', 'w', 'i', 't', 'backspace', 'f', 't', 'return']","[0.8332507874999919, 0.9166475271536001, 1.6497122657549426, 1.8661759894273473, 2.1493555651074985, 2.3326695450784882, 2.4160611523484476, 2.6825319330480397, 3.0656608264421266, 3.165675582044287, 3.9154160759080696, 4.0486299744022745, 4.181775548042424, 4.68183104193804, 4.831638256785936, 5.014785113521839, 5.8811503595875365]",2017_Feb_09_1224,59.9933799559,famFaceGrey,001,16,
127,./greyInner/KatjaBurkard10_1_cut.png,0,27,27,126,,,1.ja,3.987,None,None,None,host,3.378,None,None,None,Katja Burkhard,"['lshift', 'k', 'a', 't', 'j', 'a', 'space', 'lshift', 'b', 'u', 'r', 'k', 'h', 'a', 'r', 'd', 'return']","[0.6670058316706218, 0.8003271894426689, 0.8836273761330631, 1.1169500170010451, 1.3833973812013483, 1.5333165461624958, 1.6998158757448891, 2.066497404938673, 2.149921731152972, 2.4495820315255514, 2.716099003675936, 2.8827388322545175, 3.0660556991908834, 3.149389887921643, 3.2327507008910743, 3.382556311869166, 3.982316052170745]",2017_Feb_09_1224,59.9933799559,famFaceGrey,001,16,
186,./greyInner/TaylorSwift1_2_cut.png,0,28,28,185,,,1.ja,1.386,None,None,None,music,1.465,None,None,None,Taylor Swift,"['lshift', 't', 'a', 'y', 'l', 'o', 'r', 'space', 'lshift', 's', 'w', 'i', 'f', 't', 'return']","[0.7500856466483583, 0.8334147029954693, 1.433078531881847, 1.649699755570282, 1.8496416954828874, 2.032850782367859, 2.099297184246325, 2.2495627850878464, 2.3493186761018023, 2.4826717904961697, 3.2488445721837707, 3.3656977154478227, 3.6989199540653317, 3.882151495127573, 4.448494607789826]",2017_Feb_09_1224,59.9933799559,famFaceGrey,001,16,
151,./greyInner/NeilPatrickHarris(Barney)1_1_cut.png,0,29,29,150,,,2.nein,2.526,None,None,None,None,None,sport,2.76,None,,['return'],[1.0003666446402804],2017_Feb_09_1224,59.9933799559,famFaceGrey,001,16,
150,./greyInner/MilaKunis7_3_cut.png,0,30,30,149,,,1.ja,6.104,None,act,1.742,None,None,None,None,None,Black Swan Darstellerin,"['lshift', 'b', 'l', 'a', 'c', 'k', 'space', 'lshift', 's', 'w', 'a', 'n', 'space', 'lshift', 'd', 'a', 'r', 's', 't', 'e', 'l', 'l', 'e', 'r', 'i', 'n', 'return']","[17.159865082471015, 17.226596652403032, 17.4597454337827, 17.543072244711993, 17.776391036292353, 17.859610708718037, 18.142769754864503, 18.32598044561928, 18.37583288959604, 18.775777716474295, 19.042571837329206, 19.17571612787333, 19.658786961179885, 19.858638442834945, 19.891999576578428, 20.308516227954897, 20.558412938738684, 20.708388880691473, 20.824943704169527, 20.90837220044523, 21.025036407844937, 21.141284571413962, 21.241465808703197, 21.408120072110023, 21.524555567673815, 21.60783362096072, 34.40269225587508]",2017_Feb_09_1224,59.9933799559,famFaceGrey,001,16,
217,./greyInner/notfamousface2_cut.png,0,31,31,216,,,2.nein,3.226,None,act,4.781,None,None,None,None,None,,['return'],[1.0332402019591882],2017_Feb_09_1224,59.9933799559,famFaceGrey,001,16,
174,./greyInner/SahraWagenknecht6_2_cut.png,0,32,32,173,,,1.ja,2.109,None,None,None,None,None,polit,1.675,None,Sarah Wagenknecht,"['lshift', 's', 'a', 'r', 'a', 'h', 'space', 'lshift', 'w', 'a', 'g', 'e', 'n', 'k', 'n', 'e', 'c', 'h', 't', 'return']","[0.6007021742059351, 0.6505142006633378, 0.8505475611555084, 1.1003217362851956, 1.1503175662237481, 1.38355039038197, 1.5499445061043389, 1.6667642888762657, 1.7335298608481935, 1.850086288196053, 2.283211653076478, 2.366397002688018, 2.433112533921758, 2.8663065444302447, 3.116201009796441, 3.2495031211306014, 3.432826082772408, 3.565459701166901, 3.7493183553276594, 5.281809229308465]",2017_Feb_09_1224,59.9933799559,famFaceGrey,001,16,
191,./greyInner/TomCruise1_1_cut.png,0,33,33,190,,,1.ja,1.43,None,act,0.648,None,None,None,None,None,Tom Cruise,"['lshift', 't', 'm', 'space', 'backspace', 'backspace', 'o', 'm', 'space', 'lshift', 'c', 'r', 'u', 'i', 's', 'e', 'return']","[0.6166780006801673, 0.6835410879371011, 1.2500461914507923, 1.3831507060235708, 1.7830114901234992, 1.9162346910625274, 2.349458212775744, 2.482876444284784, 2.582428964605924, 2.6492118583719275, 2.7658734995798113, 3.0490835487864842, 3.28243121002356, 3.449552520321049, 3.5488997453055617, 3.6156589017982697, 3.882159514476598]",2017_Feb_09_1224,59.9933799559,famFaceGrey,001,16,
125,./greyInner/KaleyCuoco(Penny)7_1_cut.png,0,34,34,124,,,1.ja,1.958,None,act,0.893,None,None,None,None,None,Kaley Cucoa,"['lshift', 'k', 'a', 'l', 'e', 'y', 'space', 'lshift', 'c', 'u', 'c', 'o', 'u', 'a', 'backspace', 'backspace', 'a', 'return']","[1.3664021350714393, 1.4997940631153597, 1.6329993007127541, 1.799482270822864, 1.949603523381029, 2.199157647572065, 2.432814855683773, 2.8991547606062795, 3.0156967531258942, 3.4822865409660153, 4.165449757173974, 4.415256009699988, 5.9644197519774025, 6.914263535057216, 7.897011669756694, 8.097133563862826, 8.44686443450746, 9.42979958042747]",2017_Feb_09_1224,59.9933799559,famFaceGrey,001,16,
169,./greyInner/RobertSeanLeonard(Wilson)2_6_cut.png,0,35,35,168,,,1.ja,7.067,None,act,5.432,None,None,None,None,None,,['return'],[0.8669249966319512],2017_Feb_09_1224,59.9933799559,famFaceGrey,001,16,
79,./greyInner/GeorgeClooney3_1_cut.png,0,36,36,78,,,1.ja,2.046,None,act,0.83,None,None,None,None,None,George Clooney,"['lshift', 'g', 'e', 'r', 'backspace', 'o', 'r', 'g', 'e', 'space', 'lshift', 'c', 'l', 'o', 'o', 'n', 'e', 'y', 'return']","[0.8333951357838032, 0.9335359555536797, 1.2665990902851263, 1.616486498623999, 2.0662776747738008, 2.582875481962901, 2.699352036594064, 2.882737549158719, 2.9492394449328003, 3.0326477324490497, 3.1823555073683565, 3.2657516054737243, 3.48254283936285, 3.748976089508915, 3.882257992083396, 4.132154702867183, 4.33200875071384, 4.5485905192047085, 5.598229327722038]",2017_Feb_09_1224,59.9933799559,famFaceGrey,001,16,
80,./greyInner/GeorgeClooney4_2_cut.png,0,37,37,79,,,1.ja,1.216,None,dummy,0.584,None,None,None,None,None,George Clooney,"['lshift', 'g', 'e', 'r', 'o', 'backspace', 'backspace', 'o', 'r', 'g', 'e', 'space', 'lshift', 'c', 'l', 'o', 'o', 'n', 'e', 'y', 'return']","[1.1331696316874513, 1.2498902953045672, 1.3663415087924022, 1.5164188153175928, 1.7498110641356561, 2.1159225779963435, 2.216129477202685, 2.4660986829021567, 2.5825229513770864, 2.799292372636728, 2.899168553886966, 3.048756038569991, 3.215779192034688, 3.548887876668914, 3.69880511698625, 3.8820648861574227, 4.015125454697227, 4.215305088116793, 4.331868893265664, 4.531818852527522, 4.898291878644841]",2017_Feb_09_1224,59.9933799559,famFaceGrey,001,16,
57,./greyInner/ElvisPresley2_1_cut.png,0,38,38,56,,,1.ja,3.654,None,None,None,music,1.546,None,None,None,Elvis Presley,"['lshift', 'e', 'l', 'v', 'i', 's', 'space', 'lshift', 'p', 'r', 'e', 's', 'l', 'e', 'y', 'return']","[0.7169458469395522, 0.7835795808125567, 1.0165641259229687, 1.3501113085653742, 1.4664528173577764, 1.5332126153984973, 1.6500737780115742, 1.9830140563151417, 2.1663283570599106, 2.3829980176169556, 2.4828523862374823, 2.6494902901722526, 3.249259653692434, 3.3825797283686825, 3.5992413695764753, 4.115648637031427]",2017_Feb_09_1224,59.9933799559,famFaceGrey,001,16,
134,./greyInner/LeonardoDiCaprio4_1_cut.png,0,39,39,133,,,1.ja,5.026,None,act,0.861,None,None,None,None,None,Leonardo DiCaprio aus Titanic Jack,"['lshift', 'l', 'e', 'o', 'n', 'a', 'r', 'd', 'a', 'backspace', 'backspace', 'd', 'o', 'space', 'lshift', 'd', 'i', 'lshift', 'c', 'a', 'p', 'r', 'i', 'p', 'backspace', 'o', 'space', 'a', 'u', 's', 'space', 'lshift', 't', 'i', 't', 'a', 'n', 'i', 'c', 'space', 'lshift', 'j', 'a', 'c', 'k', 'return']","[0.6666603581120398, 0.7666905108644642, 1.0165650882449881, 1.2664990088085233, 2.0328424422446005, 2.132927447344855, 2.2992952596023315, 2.515954655392534, 2.682538027753253, 3.382151815901352, 3.515552084068304, 4.148632861367787, 4.3319394635375374, 4.631667767990621, 5.364704599257038, 5.448143039525803, 5.631376826005635, 5.964530418994855, 6.097847285931493, 6.330966876880439, 7.047244872428109, 7.230751637551066, 7.347376389753208, 7.763827603240998, 8.380222681285431, 8.896628665644357, 9.57966966697245, 9.812963438183715, 9.896321043413536, 9.979481051881976, 10.029451219903422, 10.762425179472984, 10.845847901817478, 11.02899604164918, 11.312299756853236, 11.495517183861239, 11.662255810820398, 11.862096065386595, 12.112103443187607, 17.842863420861704, 17.992729016571047, 18.409287047788894, 18.55920717507206, 18.74255098702156, 18.859247271817367, 19.225694636017806]",2017_Feb_09_1224,59.9933799559,famFaceGrey,001,16,
135,./greyInner/LeonardoDiCaprio7_1_cut.png,0,40,40,134,,,1.ja,1.603,None,act,1.02,None,None,None,None,None,Leonardo DiCaprio,"['lshift', 'l', 'e', 'o', 'n', 'a', 'r', 'd', 'o', 'space', 'lshift', 'd', 'i', 'lshift', 'c', 'a', 'b', 'r', 'i', 'p', 'backspace', 'backspace', 'backspace', 'backspace', 'p', 'r', 'i', 'o', 'return']","[1.3831208740448346, 1.4995919755185696, 1.716290826506338, 1.9329088424551628, 2.2160993244501697, 2.332849499271788, 2.5326737151399357, 2.715927068831661, 2.9990065630354366, 3.4655132704190237, 3.682079320985622, 3.9987204326598658, 4.248594368492377, 4.88162350118364, 5.01496121842797, 5.247921063943068, 7.130571362583623, 7.297371578143839, 7.497182963053319, 7.730374086596157, 8.247044067927163, 8.39685545283669, 8.563430805848384, 8.713397445356122, 9.363120296651914, 9.563203377108266, 9.663066406626058, 9.796280946668276, 12.528397798207607]",2017_Feb_09_1224,59.9933799559,famFaceGrey,001,16,
24,./greyInner/BenedictCumberbatch4_1_cut.png,0,41,41,23,,,1.ja,6.112,None,act,0.599,None,None,None,None,None,Benedict Cumberbatch,"['lshift', 'b', 'e', 'n', 'e', 'd', 'i', 'c', 't', 'space', 'lshift', 'c', 'u', 'm', 'b', 'e', 'r', 'b', 'a', 't', 'c', 'h', 'return']","[0.8170629294361333, 0.9503708147017278, 1.3826878291943103, 1.5330560777042592, 1.616712644268091, 2.0333159046147102, 2.250044266806981, 2.383258486075192, 2.6820863780128548, 2.8826124473127948, 3.199028696438745, 3.2989812218922907, 3.615660184894068, 3.8152508773168847, 4.382271464589849, 4.5823558281422265, 4.665523214411678, 5.131904819949568, 5.3318570246290165, 5.948289954000984, 6.214918876264619, 6.398076960089384, 7.914235627722519]",2017_Feb_09_1224,59.9933799559,famFaceGrey,001,16,
106,./greyInner/JoachimLoew1_1_cut.png,0,42,42,105,,,1.ja,1.27,None,None,None,None,None,sport,1.403,None,Jögi Löw,"['lshift', 'j', u'\xf6', 'g', 'i', 'space', 'lshift', 'l', u'\xf6', 'w', 'return']","[0.6668881076261641, 1.3329126917426493, 1.666507990479431, 2.032941240625405, 2.166192990447371, 2.2994200406742493, 2.41621640694666, 2.6326493363187637, 2.7825797283687734, 2.949059169965267, 3.4156685250172814]",2017_Feb_09_1224,59.9933799559,famFaceGrey,001,16,
114,./greyInner/JoshRadnor(Ted)7_1_cut.png,0,43,43,113,,,2.nein,2.609,None,act,6.558,None,None,None,None,None,,['return'],[0.616778082156543],2017_Feb_09_1224,59.9933799559,famFaceGrey,001,16,
38,./greyInner/CarenMiosga2_11_cut.png,0,44,44,37,,,2.nein,3.075,None,None,None,host,4.59,None,None,None,,['return'],[0.6002386558286616],2017_Feb_09_1224,59.9933799559,famFaceGrey,001,16,
71,./greyInner/GuentherJauch2_1_cut.png,0,45,45,70,,,1.ja,1.478,None,None,None,host,2.994,None,None,None,Günter Jauch,"['lshift', 'g', 'p', 't', 'h', 'e', 'r', 'backspace', 'backspace', 'backspace', 'backspace', 'backspace', u'\xfc', 't', 'e', 'r', 'backspace', 'backspace', 'backspace', 'n', 't', 'e', 'r', 'space', 'lshift', 'j', 'a', 'u', 'c', 'h', 'return']","[0.8168598795173239, 0.8835125390542089, 1.1833726816062153, 1.3832555991095887, 1.5667697420335571, 1.6498447454016514, 1.716325790868268, 2.132879972798264, 2.2662747878080154, 2.416043830554372, 2.499517235185067, 2.649461741289315, 3.0992763339384055, 3.549196140447748, 3.748902311497204, 3.7988978206617503, 4.215400037209747, 4.348650183161908, 4.4817152425371205, 4.715187684845887, 4.8650834333077455, 4.931771057206788, 5.048462209619402, 5.598156512032119, 5.73155774252109, 5.914639802916554, 6.0813139543088255, 6.647740788975625, 6.764479415934829, 6.880996067311116, 9.129516978565789]",2017_Feb_09_1224,59.9933799559,famFaceGrey,001,16,
122,./greyInner/KaleyCuoco(Penny)14_2_cut.png,0,46,46,121,,,1.ja,2.059,None,dummy,1.481,None,None,None,None,None,Kaley Coucoa,"['lshift', 'k', 'a', 'l', 'e', 'y', 'space', 'lshift', 'c', 'o', 'u', 'c', 'o', 'backspace', 'o', 'a', 'return']","[2.116123382497335, 2.249369358388094, 2.3662385403501958, 2.582515894350081, 2.715801646212185, 2.949037357335783, 3.148954597653301, 3.415282313165335, 3.548783625130909, 3.9320029767825417, 4.19851962815892, 5.114832588068566, 5.531329672233369, 6.031192701750797, 6.830813867700044, 6.947541588344393, 9.379750822785354]",2017_Feb_09_1224,59.9933799559,famFaceGrey,001,16,
87,./greyInner/Ice-T(OdafinFinTutuola)12_1_cut.png,0,47,47,86,,,2.nein,1.712,None,act,3.428,None,None,None,None,None,,['return'],[0.9337364392806649],2017_Feb_09_1224,59.9933799559,famFaceGrey,001,16,
105,./greyInner/JimParsons(SheldonCooper)9_3_cut.png,0,48,48,104,,,2.nein,2.656,None,act,3.58,None,None,None,None,None,,['return'],[0.6336360370301009],2017_Feb_09_1224,59.9933799559,famFaceGrey,001,16,
51,./greyInner/DannFlorek(DonaldDonCragen)1_1_cut.png,0,49,49,50,,,1.ja,3.328,None,act,17.172,None,None,None,None,None,,['return'],[1.8335224830470906],2017_Feb_09_1224,59.9933799559,famFaceGrey,001,16,
101,./greyInner/JimParsons(SheldonCooper)1_1_cut.png,0,50,50,100,,,2.nein,2.062,None,dummy,2.096,None,None,None,None,None,,['return'],[0.5836183944622917],2017_Feb_09_1224,59.9933799559,famFaceGrey,001,16,
149,./greyInner/MilaKunis5_2_cut.png,0,51,51,148,,,1.ja,6.041,None,act,0.876,None,None,None,None,None,Black Swann Darstellerin mit Ashton Kutcher zusammen,"['lshift', 'b', 'l', 'a', 'c', 'k', 'space', 'lshift', 's', 'w', 'a', 'n', 'n', 'space', 'lshift', 'd', 'a', 'r', 's', 't', 'e', 'l', 'l', 'e', 'r', 'i', 'n', 'space', 'm', 'i', 't', 'space', 'lshift', 'a', 's', 'h', 't', 'o', 'n', 'space', 'lshift', 'k', 'u', 't', 'c', 'h', 'e', 'r', 'space', 'z', 'u', 's', 'a', 'm', 'm', 'e', 'n', 'return']","[9.229793164948433, 9.296255284751169, 9.463050047153729, 9.546364347898589, 9.696166430363292, 9.879695970437524, 10.14619594156784, 10.379346326817313, 10.446013100408663, 10.829174071199077, 10.912317720195233, 11.162389894337139, 11.27896396425308, 11.44550178671102, 11.828731082355489, 11.912037363751324, 12.061758290403077, 12.178522258505382, 12.361955566390634, 12.478502049745657, 12.578537014107724, 12.694976358958911, 12.82833781347631, 12.978224901041358, 13.228182879651968, 13.378065155607601, 13.511359568366515, 15.460551859526731, 16.326905557729788, 16.510173346249985, 16.62666690190099, 16.743475136810048, 17.059818891020313, 17.109850968416595, 17.97630635196606, 18.209373656759, 18.44273414895474, 18.542626048129023, 18.675873948663366, 19.90873018418847, 20.12496936608659, 20.243409698921596, 20.475129111520346, 20.641774393256128, 20.874956855901928, 20.95832825441221, 21.09153381278361, 21.158166263560815, 21.25810659960348, 21.707962572093948, 21.757860565973715, 21.874601759124516, 21.974529905756754, 22.107907398972202, 22.20755518916053, 22.324335837508897, 22.424400313075466, 22.840847035727847]",2017_Feb_09_1224,59.9933799559,famFaceGrey,001,16,
188,./greyInner/TaylorSwift3_1_cut.png,0,52,52,187,,,1.ja,1.694,None,None,None,music,1.894,None,None,None,Taylor Swift,"['lshift', 't', 'a', 'y', 'l', 'o', 'r', 'space', 'lshift', 's', 'w', 'i', 'f', 't', 'return']","[0.8174600476027081, 0.8837425339859237, 1.5007012118840066, 1.6838159912235824, 1.9503114715184893, 2.116817537354109, 2.216913769542998, 2.3334762915962983, 2.4835375594234392, 3.749605127251016, 3.999631109942129, 4.249500554939004, 4.3493796231546185, 4.53257299211532, 5.715172608469629]",2017_Feb_09_1224,59.9933799559,famFaceGrey,001,16,
1,./greyInner/AlysonHannigan(Lily)1_1_cut.png,0,53,53,0,,,1.ja,3.736,None,act,0.552,None,None,None,None,None,,['return'],[22.807679328684344],2017_Feb_09_1224,59.9933799559,famFaceGrey,001,16,
65,./greyInner/EmilyDeschanel8_3_cut.png,0,54,54,64,,,1.ja,7.9,None,act,0.786,None,None,None,None,None,Brooke Shields,"['lshift', 'b', 'r', 'o', 'o', 'k', 'e', 'space', 'lshift', 's', 'h', 'i', 'e', 'l', 's', 'backspace', 'd', 's', 'return']","[1.4168210658676799, 1.5334637814116832, 1.8165269161431752, 2.3329672233162455, 2.4826830175848045, 2.6328924829829248, 2.816128835654581, 2.982689753838031, 3.149802403238482, 3.2340844790310257, 3.3825829361082924, 3.6992307840357626, 3.899128457141387, 4.0656069364160885, 4.198865101717274, 4.915075734732682, 5.148666542633919, 5.381769132563022, 6.281363995047286]",2017_Feb_09_1224,59.9933799559,famFaceGrey,001,16,
152,./greyInner/NeilPatrickHarris(Barney)11_2_cut.png,0,55,55,151,,,2.nein,1.913,None,act,2.513,None,None,None,None,None,,['return'],[1.0831927274127793],2017_Feb_09_1224,59.9933799559,famFaceGrey,001,16,
161,./greyInner/OmarEpps(DrEricForeman)1_5_cut.png,0,56,56,160,,,1.ja,18.464,None,act,0.649,None,None,None,None,None,Darsteller bei Dr House,"['lshift', 'd', 'a', 'r', 's', 't', 'e', 'l', 'l', 'e', 'r', 'space', 'b', 'e', 'i', 'space', 'lshift', 'd', 'r', 'period', 'space', 'lshift', 'h', 'o', 'u', 's', 'e', 'return']","[1.5164156075779829, 1.5662735047121714, 1.7162847318008971, 1.8828895960173213, 2.0493966241749604, 2.2162616360756147, 2.2827558332746776, 2.3993555651074985, 2.49923463332334, 2.616051208355657, 2.7326698658523583, 3.049085794204302, 3.2653406940266905, 3.4324209452568084, 3.482275634651387, 3.632393037921929, 3.815431152284418, 3.865462908906693, 4.0484650965852325, 4.148878574224, 4.2985645365138225, 4.648480172961399, 4.831724224208301, 4.998192759490166, 5.348242158680478, 5.59812443463602, 5.697955065983251, 7.413929609361503]",2017_Feb_09_1224,59.9933799559,famFaceGrey,001,16,
177,./greyInner/Shakira2_1_cut.png,0,57,57,176,,,1.ja,1.995,None,None,None,music,0.712,None,None,None,Shakira,"['lshift', 's', 'h', 'a', 'k', 'i', 'r', 'a', 'return']","[0.733564825210351, 0.7836514341804559, 1.050220692486846, 1.3667039833710533, 1.6999230142489523, 1.8666071096342876, 1.9331330634556707, 2.0831584045984073, 2.31610124909389]",2017_Feb_09_1224,59.9933799559,famFaceGrey,001,16,
207,./greyInner/WillSmith14_1_cut.png,0,58,58,206,,,1.ja,1.657,None,act,0.809,None,None,None,None,None,Will Smith,"['lshift', 'w', 'i', 'l', 'l', 'space', 'lshift', 's', 'm', 'i', 't', 'h', 'return']","[0.7165638051492351, 0.8001276680374758, 0.9666924355087758, 1.1331612915646474, 1.2498091394918447, 1.4163184130670743, 1.4664470434267969, 1.5496875661597187, 1.666204217536233, 1.865926427283739, 1.9327208689128383, 2.066198122830883, 2.29947072296045]",2017_Feb_09_1224,59.9933799559,famFaceGrey,001,16,
2,./greyInner/AlysonHannigan(Lily)12_2_cut.png,0,59,59,1,,,1.ja,3.727,None,act,5.865,None,None,None,None,None,,['return'],[1.4332302579664429],2017_Feb_09_1224,59.9933799559,famFaceGrey,001,16,
47,./greyInner/CristinMilioti(Tracy_Mutter)2_1_cut.png,0,60,60,46,,,2.nein,5.411,None,dummy,1.413,None,None,None,None,None,,['return'],[0.949922372700712],2017_Feb_09_1224,59.9933799559,famFaceGrey,001,16,
37,./greyInner/CarenMiosga13_1_cut.png,0,61,61,36,,,2.nein,1.43,None,None,None,None,None,polit,2.826,None,,['return'],[0.7503554175514182],2017_Feb_09_1224,59.9933799559,famFaceGrey,001,16,
9,./greyInner/AngelaMerkel5_1_cut.png,0,62,62,8,,,1.ja,1.563,None,None,None,None,None,polit,2.028,None,Angela Merkel,"['lshift', 'a', 'n', 'g', 'e', 'l', 'a', 'space', 'lshift', 'm', 'e', 'r', 'k', 'a', 'backspace', 'e', 'l', 'return']","[0.6335808639082643, 0.6836151867223634, 0.8169429599738578, 0.9335003496435093, 0.9667421554727298, 1.0667549864310786, 1.216450251165952, 1.3833829463728762, 1.5333207162238978, 1.6329710726040503, 1.7330891174224234, 1.8164435149128622, 1.9332437304728955, 2.0329274473447185, 2.5827683434590654, 2.6992558044048565, 2.8991627799555317, 4.115382394641529]",2017_Feb_09_1224,59.9933799559,famFaceGrey,001,16,
223,./greyInner/notfamousface8_9_cut.png,0,63,63,222,,,2.nein,1.908,None,None,None,music,2.115,None,None,None,,['return'],[0.9836652274607331],2017_Feb_09_1224,59.9933799559,famFaceGrey,001,16,
178,./greyInner/Shakira3_1_cut.png,0,64,64,177,,,1.ja,1.296,None,None,None,music,1.214,None,None,None,Shakira,"['lshift', 's', 'h', 'a', 'k', 'i', 'r', 'a', 'return']","[0.6668217074156928, 0.8000850051002999, 1.0833688323186834, 1.1667267583225112, 1.8663370179569938, 2.0496577341809825, 2.1330737202724777, 2.216172781687874, 3.6487233196257876]",2017_Feb_09_1224,59.9933799559,famFaceGrey,001,16,
90,./greyInner/Ice-T(OdafinFinTutuola)7_1_cut.png,0,65,65,89,,,2.nein,1.475,None,act,3.274,None,None,None,None,None,,['return'],[0.9167886676973467],2017_Feb_09_1224,59.9933799559,famFaceGrey,001,16,
36,./greyInner/CarenMiosga1_1_cut.png,0,66,66,35,,,2.nein,7.891,None,None,None,host,4.492,None,None,None,,['return'],[1.0332953750812521],2017_Feb_09_1224,59.9933799559,famFaceGrey,001,16,
43,./greyInner/CobieSmulders(Robin)3_4_cut.png,0,67,67,42,,,2.nein,2.432,None,dummy,2.625,None,None,None,None,None,,['return'],[0.7499627902202519],2017_Feb_09_1224,59.9933799559,famFaceGrey,001,16,
110,./greyInner/JoachimLoew8_1_cut.png,0,68,68,109,,,1.ja,1.076,None,None,None,None,None,sport,1.408,None,Jogi Löw,"['lshift', 'j', 'o', 'g', 'i', 'space', 'lshift', 'l', u'\xf6', 'w', 'return']","[0.7001575000158482, 0.8001821996108447, 1.0333017905600173, 1.3497969500808722, 1.4830923251620334, 1.6329729972476343, 1.7996712066874352, 1.982984545110412, 2.1330034707739287, 3.332151495127164, 4.581780680425709]",2017_Feb_09_1224,59.9933799559,famFaceGrey,001,16,
69,./greyInner/EmmaWatson(HermioneGranger)4_1_cut.png,0,69,69,68,,,1.ja,3.407,None,act,0.809,None,None,None,None,None,Emma Watson,"['lshift', 'e', 'm', 'm', 'a', 'space', 'lshift', 'w', 'a', 't', 's', 'o', 'n', 'return']","[0.69999615071265, 0.7997453054731523, 1.0000670417584843, 1.0998142718754025, 1.250029511204957, 1.4165644466970662, 1.68309585367615, 1.7663873794695064, 1.916204217536233, 2.116280561739586, 2.332742360768407, 2.466170215496277, 2.599392774887292, 4.998404149532234]",2017_Feb_09_1224,59.9933799559,famFaceGrey,001,16,
41,./greyInner/CobieSmulders(Robin)12_1_cut.png,0,70,70,40,,,2.nein,1.87,None,None,None,host,2.26,None,None,None,,['return'],[1.0998925407220668],2017_Feb_09_1224,59.9933799559,famFaceGrey,001,16,
206,./greyInner/WillSmith1_1_cut.png,0,71,71,205,,,1.ja,1.213,None,act,0.663,None,None,None,None,None,Will Smith,"['lshift', 'w', 'i', 'l', 'l', 'space', 'lshift', 's', 'm', 'i', 't', 'h', 'return']","[0.8334041174548474, 0.9168406330795733, 1.133389041078317, 1.2665888255182836, 1.3998842005994447, 1.61620293444048, 1.7163405464707466, 1.7996859622899137, 1.916525312273734, 2.249520442924677, 2.432503063391323, 2.5494203614480284, 3.3657532093434384]",2017_Feb_09_1224,59.9933799559,famFaceGrey,001,16,
8,./greyInner/AngelaMerkel4_1_cut.png,0,72,72,7,,,1.ja,1.261,None,None,None,None,None,polit,1.494,None,Angela Merkel,"['lshift', 'a', 'n', 'g', 'e', 'l', 'a', 'space', 'lshift', 'm', 'e', 'r', 'k', 'e', 'l', 'return']","[0.6503073014569054, 0.7004644806988836, 0.8338326714697359, 0.9503361711135767, 1.0338127834838815, 1.0602253116317115, 1.3669099202556936, 1.6167219467129144, 1.7333935319138618, 1.833269392389866, 1.9666292430374597, 2.03322929564456, 2.0999012016191045, 2.2498091394918447, 2.4497437016029835, 2.8994970264252515]",2017_Feb_09_1224,59.9933799559,famFaceGrey,001,16,
74,./greyInner/GuentherJauch7_1_cut.png,0,73,73,73,,,1.ja,1.612,None,None,None,host,2.028,None,None,None,Günter Jauch,"['lshift', 'g', u'\xfc', 'n', 't', 'e', 'r', 'space', 'lshift', 'j', 'a', 'u', 'c', 'h', 'return']","[0.550284526505493, 0.6335770146206414, 0.8501132332089583, 1.100119327914399, 1.2333213577717288, 1.3165962033194774, 1.4165147267326574, 1.5665981279630614, 1.6830506245469223, 1.7830618516354662, 1.93298775284984, 2.4160675678276675, 2.615979996535316, 2.749468798316684, 3.315762191014528]",2017_Feb_09_1224,59.9933799559,famFaceGrey,001,16,
91,./greyInner/JanHofer1_3_cut.png,0,74,74,90,,,1.ja,1.512,None,None,None,host,1.829,None,None,None,Jan Hofer,"['lshift', 'j', 'a', 'n', 'space', 'lshift', 'h', 'o', 'f', 'e', 'r', 'return']","[0.6337717244168743, 0.7337877631148331, 0.8665702206280912, 0.9664181737698527, 1.0828976153661642, 1.1161814425845478, 1.2663995688799332, 1.416126269462893, 1.5160768702726273, 1.6501719348443658, 1.7332812610266046, 2.116533331622577]",2017_Feb_09_1224,59.9933799559,famFaceGrey,001,16,
196,./greyInner/UrsulavonderLeyen1_1_cut.png,0,75,75,195,,,1.ja,4.795,None,None,None,None,None,polit,1.212,None,Ursula von der Leyen,"['lshift', 'u', 'r', 's', 'u', 'l', 'a', 'space', 'v', 'o', 'n', 'space', 'd', 'e', 'r', 'space', 'lshift', 'l', 'e', 'y', 'e', 'n', 'return']","[0.8666269976197327, 0.9327975338896977, 1.4164727053434945, 1.68311028850394, 1.8163918703048694, 2.0493324693820796, 2.1829187864477717, 2.332831856703706, 2.716008866192169, 3.0157451899945045, 3.165802287760016, 3.2822833332265873, 3.382299371924546, 3.54890423614097, 3.615558820321894, 3.6655373284661437, 3.750051644607993, 3.83219095032473, 3.9655062133915635, 4.548416338942388, 4.815079263246389, 4.914964746941223, 5.631518287323615]",2017_Feb_09_1224,59.9933799559,famFaceGrey,001,16,
128,./greyInner/KatjaBurkard4_1_cut.png,0,76,76,127,,,1.ja,1.65,None,None,None,host,0.884,None,None,None,Katja Burkhard,"['lshift', 'k', 'a', 't', 'j', 'a', 'space', 'lshift', 'b', 'u', 'r', 'k', 'h', 'a', 'r', 'd', 'return']","[0.6999438645566443, 0.9333117345531718, 1.1164958010690498, 1.4663998896539852, 1.616164441564706, 1.6997222097479607, 1.8327965715679966, 2.0162366157064753, 2.115999563747664, 2.2661583468593562, 2.365839176765803, 2.4659556177143713, 2.7824902324327923, 3.0989311811540574, 3.2989382381811083, 3.465612068799601, 3.865358657368688]",2017_Feb_09_1224,59.9933799559,famFaceGrey,001,16,
154,./greyInner/NeilPatrickHarris(Barney)2_2_cut.png,0,77,77,153,,,2.nein,3.362,None,act,1.13,None,None,None,None,None,,['return'],[0.8999887729110014],2017_Feb_09_1224,59.9933799559,famFaceGrey,001,16,
4,./greyInner/AlysonHannigan(Lily)5_4_cut.png,0,78,78,3,,,1.ja,3.016,None,act,1.934,None,None,None,None,None,,['return'],[0.6169224304403542],2017_Feb_09_1224,59.9933799559,famFaceGrey,001,16,
67,./greyInner/EmmaWatson(HermioneGranger)16_1_cut.png,0,79,79,66,,,1.ja,2.387,None,act,2.028,None,None,None,None,None,Emma Watson,"['lshift', 'e', 'm', 'm', 'a', 'space', 'lshift', 'w', 'a', 't', 's', 'o', 'n', 'return']","[0.9168069518132143, 1.0002973574642056, 1.1834920095207053, 1.3166738306185835, 1.4000128309585307, 1.549516593637236, 1.6665240291777081, 1.7332793363825658, 1.8497517209520993, 2.06640919209849, 2.2996920569948998, 2.449602240285458, 2.582777645904116, 5.4982877085831205]",2017_Feb_09_1224,59.9933799559,famFaceGrey,001,16,
60,./greyInner/ElvisPresley6_1_cut.png,0,80,80,59,,,1.ja,1.428,None,None,None,music,1.911,None,None,None,Elvis Presley,"['lshift', 'e', 'l', 'v', 'i', 's', 'space', 'lshift', 'p', 'r', 'e', 's', 'l', 'e', 'y', 'return']","[0.7835276154301027, 0.8169121656733296, 1.3500692871757565, 1.6667187389730316, 1.8498713696403684, 1.9164685352816377, 2.0331994636658237, 2.3160823234297823, 2.482632976846162, 2.6162895434099482, 2.699361980586673, 2.9826419585174335, 3.3826567141195483, 3.6657548132129705, 3.9319962405288607, 4.448630295175917]",2017_Feb_09_1224,59.9933799559,famFaceGrey,001,16,
11,./greyInner/BarackObama1_3_cut.png,0,81,81,10,,,1.ja,1.559,None,None,None,None,None,polit,1.714,None,Barack Obama,"['lshift', 'b', 'a', 'r', 'a', 'k', 'backspace', 'c', 'k', 'space', 'lshift', 'o', 'b', 'a', 'm', 'a', 'return']","[0.6003544552295352, 0.6670045485748233, 0.9000866089700139, 1.1166500933450152, 1.1834406856864916, 1.4667036625969558, 1.8663835301817926, 1.9663963611401414, 2.099489007076045, 2.2831240817845355, 2.982778608225999, 3.049356206655375, 3.2660569822869547, 3.4826470909010823, 3.7324809299880144, 3.9156563356064, 5.198583782951573]",2017_Feb_09_1224,59.9933799559,famFaceGrey,001,16,
75,./greyInner/GuentherJauch9_1_cut.png,0,82,82,74,,,1.ja,1.285,None,None,None,host,1.888,None,None,None,Günter Jauch,"['lshift', 'g', u'\xfc', 'n', 't', 'e', 'r', 't', 'backspace', 'space', 'lshift', 'j', 'a', 'u', 'c', 'h', 'return']","[0.6335587305052286, 0.7167235505830831, 0.9001507637631221, 1.0999817158840415, 1.1996955855088345, 1.2497732128081225, 1.3499255804408676, 1.3828899167915552, 1.9330400390063005, 2.182816138779799, 2.2994790630837088, 2.3991714408525695, 2.5160640393141875, 2.949150911319066, 3.1491784978798023, 3.23236609290916, 4.098679052818625]",2017_Feb_09_1224,59.9933799559,famFaceGrey,001,16,
102,./greyInner/JimParsons(SheldonCooper)10_1_cut.png,0,83,83,101,,,2.nein,1.863,None,act,2.412,None,None,None,None,None,,['return'],[0.7668454446888973],2017_Feb_09_1224,59.9933799559,famFaceGrey,001,16,
64,./greyInner/EmilyDeschanel6_12_cut.png,0,84,84,63,,,2.nein,3.228,None,act,1.809,None,None,None,None,None,,['return'],[0.7335789392645893],2017_Feb_09_1224,59.9933799559,famFaceGrey,001,16,
208,./greyInner/WillSmith4_1_cut.png,0,85,85,207,,,1.ja,1.307,None,act,0.793,None,None,None,None,None,Will Smith,"['lshift', 'w', 'i', 'l', 'l', 'space', 'lshift', 's', 'm', 't', 'backspace', 't', 'i', 'backspace', 'backspace', 'i', 't', 'h', 'return']","[0.6999194857348812, 0.8000224541774514, 0.9332671469719571, 1.0997542871436963, 1.2331664239477504, 1.382992243685294, 1.449607693442431, 1.5496519602493208, 1.633027528821458, 1.9328982569140862, 2.26608392729986, 2.665687129906928, 2.8657220942686763, 3.115604049450212, 3.232296164184845, 3.448910651620281, 3.5654350015715863, 3.698923161804487, 4.165205006640008]",2017_Feb_09_1224,59.9933799559,famFaceGrey,001,16,
210,./greyInner/WillSmith6_1_cut.png,0,86,86,209,,,1.ja,1.178,None,dummy,0.545,None,None,None,None,None,Will Smith,"['lshift', 'w', 'l', 'backspace', 'i', 'l', 'l', 'space', 'lshift', 's', 'm', 'i', 't', 'h', 'return']","[0.616933015980976, 0.666654904954612, 0.9833325848608183, 1.366611921243475, 1.6331741225230871, 1.7997520417261512, 1.9330275288216399, 2.049596145579926, 2.116324828546567, 2.2329245603791605, 2.2826002579022315, 2.4493420926010003, 2.5494158706128474, 2.666165083112446, 3.0325296876303582]",2017_Feb_09_1224,59.9933799559,famFaceGrey,001,16,
129,./greyInner/KatjaBurkard5_3_cut.png,0,87,87,128,,,1.ja,1.361,None,None,None,host,0.75,None,None,None,Katja Burkhard,"['lshift', 'k', 'a', 't', 'j', 'a', 'space', 'lshift', 'b', 'u', 'r', 'k', 'h', 'a', 'r', 'd', 'return']","[0.66672868296655, 0.8833588883258017, 1.0001392159001625, 1.1832491836303234, 1.4831317803595994, 1.6996612626949172, 1.7997196435562728, 1.9996660743040593, 2.0994947810077065, 2.216121778627439, 2.3159437490780874, 2.3995432178762712, 2.6159992429734302, 2.7158953122093408, 2.815799080020497, 2.982611484991139, 3.315643825422285]",2017_Feb_09_1224,59.9933799559,famFaceGrey,001,16,
224,./greyInner/notfamousface9_1_cut.png,0,88,88,223,,,2.nein,3.193,None,None,None,None,None,sport,4.959,None,,['return'],[0.8999826782060154],2017_Feb_09_1224,59.9933799559,famFaceGrey,001,16,
153,./greyInner/NeilPatrickHarris(Barney)13_4_cut.png,0,89,89,152,,,2.nein,2.657,None,dummy,1.123,None,None,None,None,None,,['return'],[0.7334506296792824],2017_Feb_09_1224,59.9933799559,famFaceGrey,001,16,
130,./greyInner/KatjaBurkard7_1_cut.png,0,90,90,129,,,1.ja,7.073,None,None,None,host,1.694,None,None,None,Katja Burkhard,"['lshift', 'k', 'a', 't', 'j', 'a', 'space', 'lshift', 'b', 'r', 'backspace', 'u', 'r', 'k', 'h', 'a', 'r', 'd', 'return']","[0.683464422959787, 0.7834583282542553, 0.8667023795010209, 1.050405137515554, 1.1666468856055872, 1.3665166513765143, 1.533224804808924, 1.7830188679245111, 1.9162863356705202, 2.399471685282151, 2.7325685012797294, 2.982509799644504, 3.099192932707865, 3.1825531041295108, 3.4490181108976685, 3.5490088084529816, 3.649079699498998, 3.7821624014418376, 4.398752510056056]",2017_Feb_09_1224,59.9933799559,famFaceGrey,001,16,
139,./greyInner/LisaEdelstein(DrLisaCuddy)6_3_cut.png,0,91,91,138,,,1.ja,4.141,None,dummy,0.608,None,None,None,None,None,Darstellerin bei Dr House,"['lshift', 'd', 'a', 'r', 's', 't', 'e', 'l', 'l', 'e', 'r', 'i', 'n', 'space', 'b', 'e', 'i', 'space', 'lshift', 'd', 'r', 'period', 'space', 'lshift', 'h', 'o', 'u', 's', 'e', 'return']","[1.5664377409816552, 1.6827555125005347, 1.882901464653969, 1.9328863882778933, 2.282748455473211, 2.4493655091005166, 2.499271843103088, 2.5660281126301925, 2.6993417718272212, 2.815852328498295, 2.9657371706452977, 3.099151232092936, 3.199192291160216, 3.3153859231556453, 3.4490437728150027, 3.5654709282557633, 3.593708981029522, 3.715392659408735, 3.831975069447708, 3.9154256991268994, 4.048515458097427, 4.11535961969048, 4.2652248946255895, 4.531687014428371, 4.698493966241585, 4.865005806008867, 5.164907007628244, 5.481398638635255, 5.648068619966125, 5.964664181737589]",2017_Feb_09_1224,59.9933799559,famFaceGrey,001,16,
204,./greyInner/Usher4_1_cut.png,0,92,92,203,,,1.ja,3.709,None,None,None,music,1.376,None,None,None,Rapper,"['lshift', 'r', 'a', 'p', 'p', 'e', 'r', 'return']","[2.3495768991419936, 2.4328321774778487, 2.6663459996279926, 2.7993764154152814, 2.9326053902855165, 3.015616559634964, 3.082379886189301, 3.3324831754057413]",2017_Feb_09_1224,59.9933799559,famFaceGrey,001,16,
163,./greyInner/OmarEpps(DrEricForeman)3_1_cut.png,0,93,93,162,,,1.ja,2.072,None,act,2.975,None,None,None,None,None,Darsteller bei Dr House,"['lshift', 'd', 'a', 'r', 's', 't', 'e', 'l', 'l', 'e', 'r', 'space', 'b', 'e', 'i', 'space', 'lshift', 'd', 'r', 'period', 'space', 'lshift', 'h', 'o', 'u', 's', 'e', 'return']","[0.9497837983485624, 1.0497809113830954, 1.1667581941710523, 1.3164329293717856, 1.5163357348610589, 1.6664024558454003, 1.7493789816066965, 1.8328488577240023, 1.9495717667587087, 2.0161067022513635, 2.0994598166453216, 2.3828097233003973, 2.549283390965684, 2.6659803173097316, 2.6938209311424544, 2.832491836302779, 2.949081944916543, 2.9656989985437576, 3.1490039968434758, 3.2656316360112214, 3.365529309116937, 3.615562348835283, 3.7654661166461665, 3.9323641682649395, 4.148641843038604, 4.265204365091904, 4.348644409230474, 4.63158853682171]",2017_Feb_09_1224,59.9933799559,famFaceGrey,001,16,
100,./greyInner/JasonSegel(Marshall)9_1_cut.png,0,94,94,99,,,1.ja,5.86,None,act,0.895,None,None,None,None,None,,['return'],[4.065492420111241],2017_Feb_09_1224,59.9933799559,famFaceGrey,001,16,
221,./greyInner/notfamousface6_8_cut.png,0,95,95,220,,,2.nein,1.86,None,None,None,None,None,sport,0.652,None,,['return'],[0.8834589698021773],2017_Feb_09_1224,59.9933799559,famFaceGrey,001,16,
117,./greyInner/JudithRakers2_1_cut.png,0,96,96,116,,,1.ja,1.614,None,None,None,host,0.929,None,None,None,Judith Rakers,"['lshift', 'j', 'u', 'd', 'i', 't', 'h', 'space', 'lshift', 'r', 'a', 'k', 'e', 'r', 's', 'return']","[0.8500891751618838, 0.933544937224724, 1.1000131517325826, 1.2333977019752638, 1.3332607314928282, 1.4998011201428199, 1.616570541402325, 1.7829293719887573, 1.9663055821088165, 2.1496163543397415, 2.332824158128915, 2.499466232125087, 2.5826772436535066, 2.665967807125071, 2.81612755255901, 3.0825579157390166]",2017_Feb_09_1224,59.9933799559,famFaceGrey,001,16,
10,./greyInner/AngelaMerkel6_1_cut.png,0,97,97,9,,,1.ja,1.56,None,None,None,None,None,polit,1.996,None,Angela Merkel,"['lshift', 'a', 'n', 'g', 'e', 'l', 'a', 'space', 'lshift', 'm', 'e', 'r', 'k', 'e', 'l', 'return']","[0.5834868771371475, 0.6837348354106325, 0.8000356059096703, 0.9002251833221635, 0.950086288195962, 1.0333848710165512, 1.1500718533675354, 1.3998540478464747, 1.5013770826249129, 1.5831779718100734, 1.6998713696407322, 1.7829194279956937, 1.8497539663699172, 1.9832966581766414, 2.099684037646057, 2.916004375356806]",2017_Feb_09_1224,59.9933799559,famFaceGrey,001,16,
70,./greyInner/EmmaWatson(HermioneGranger)9_1_cut.png,0,98,98,69,,,1.ja,2.412,None,act,0.913,None,None,None,None,None,Emma Watson,"['lshift', 'e', 'm', 'm', 'a', 'space', 'lshift', 'w', 'a', 't', 's', 'o', 'n', 'return']","[0.7001356873865916, 0.800128309585034, 0.9501061761816345, 1.0500224541774514, 1.499962148672239, 1.649883879825211, 1.7665092735751386, 1.816456025097068, 1.949607693442431, 2.149566634375333, 2.2995528410947372, 2.399482591597007, 2.532793684601984, 3.3824405124682926]",2017_Feb_09_1224,59.9933799559,famFaceGrey,001,16,
50,./greyInner/CristinMilioti(Tracy_Mutter)9_1_cut.png,0,99,99,49,,,2.nein,6.55,None,dummy,0.784,None,None,None,None,None,,['return'],[1.2665121605409695],2017_Feb_09_1224,59.9933799559,famFaceGrey,001,16,
56,./greyInner/ElvisPresley1_1_cut.png,0,100,100,55,,,1.ja,1.141,None,None,None,music,2.274,None,None,None,Elvis Presley,"['lshift', 'e', 'l', 'v', 'i', 's', 'space', 'lshift', 'p', 'r', 'e', 's', 'l', 'e', 'y', 'return']","[0.716696605569723, 0.8166789630017774, 1.3665631636013131, 1.5827571163704306, 1.682943486043314, 1.7997125865285852, 1.9495624643141127, 2.1493055243690833, 2.4326544687019123, 2.566170536269965, 2.615768285719696, 3.0491756109140624, 3.1989369550851734, 3.382170420791226, 3.5821130022518446, 3.8486456923264996]",2017_Feb_09_1224,59.9933799559,famFaceGrey,001,16,
158,./greyInner/NicoleKidman5_1_cut.png,0,101,101,157,,,1.ja,1.999,None,act,0.759,None,None,None,None,None,Nicole Kidman,"['lshift', 'n', 'i', 'c', 'o', 'l', 'e', 'space', 'lshift', 'k', 'i', 'd', 'm', 'a', 'n', 'return']","[0.7001613493034711, 0.7668024609774875, 0.9334634606375403, 1.0998906160784827, 1.2665128020885277, 1.3995906924224073, 1.5329996214863968, 1.7495425763281673, 1.866136534229554, 1.9829547131316758, 2.1993469042104152, 2.3659944313640153, 2.482578124498559, 2.599164704598934, 2.799206084440357, 3.065521931315743]",2017_Feb_09_1224,59.9933799559,famFaceGrey,001,16,
14,./greyInner/BarackObama4_1_cut.png,0,102,102,13,,,1.ja,1.13,None,None,None,None,None,polit,1.013,None,Barack Obama,"['lshift', 'b', 'r', 'a', 'k', 'c', 'space', 'backspace', 'backspace', 'backspace', 'backspace', 'backspace', 'a', 'r', 'a', 'c', 'k', 'space', 'lshift', 'o', 'b', 'a', 'm', 'a', 'return']","[0.6501081008254914, 0.7334054005505095, 0.9332539952397383, 0.9999599032544211, 1.183270675485801, 1.249916598769687, 1.4163017328210117, 1.7830076408358764, 1.9162180108164648, 2.032822875032707, 2.432701622474724, 2.96588280202468, 3.132099850519353, 3.3156566563807246, 3.382218857659609, 3.565684884489201, 3.6822688983979788, 3.8155841614648125, 3.965404528045383, 4.198592443848611, 4.365168117634312, 4.465247348803132, 4.548503910234558, 4.765242537193899, 5.015000994399088]",2017_Feb_09_1224,59.9933799559,famFaceGrey,001,16,
12,./greyInner/BarackObama11_2_cut.png,0,103,103,11,,,1.ja,1.139,None,None,None,None,None,polit,0.984,None,Barack Obama,"['lshift', 'b', 'a', 'r', 'a', 'c', 'k', 'lshift', 'i', 'b', 'backspace', 'backspace', 'space', 'lshift', 'o', 'b', 'a', 'm', 'a', 'return']","[0.9334657060553582, 1.0168255567032247, 1.666499971130179, 1.8332674677458272, 1.9330894381964754, 2.0830576815737913, 2.1830108485751225, 2.4327635318495595, 2.6494110590028868, 2.8325094788706338, 3.1489786557003754, 3.2493032789511744, 3.565579349854943, 3.6823311285465934, 3.7490440935889637, 4.148690921455, 4.215610464929796, 4.3651825524625565, 4.631973144803396, 4.88185734540275]",2017_Feb_09_1224,59.9933799559,famFaceGrey,001,16,
183,./greyInner/SigmarGabriel3_3_cut.png,0,104,104,182,,,1.ja,7.266,None,None,None,None,None,polit,1.182,None,Sigmar Gabriel,"['lshift', 's', 'i', 'g', 'm', 'a', 'r', 'space', 'lshift', 'g', 'a', 'b', 'r', 'i', 'e', 'l', 'return']","[0.7835058028013009, 0.8834214392486501, 1.017010322506394, 1.1666064680862291, 1.3333460573676348, 1.4999862067197682, 1.7332373149938576, 1.9330634555058168, 2.0992888441232935, 2.316048321390099, 2.499592937840589, 2.6162510505350838, 2.7330012253569294, 2.8492942972807214, 2.9326281652374746, 3.049360697491011, 3.3491252494018227]",2017_Feb_09_1224,59.9933799559,famFaceGrey,001,16,
27,./greyInner/Beyonce11_2_cut.png,0,105,105,26,,,1.ja,2.03,None,None,None,music,1.143,None,None,None,Beonce,"['lshift', 'b', 'e', 'o', 'n', 'c', 'e', 'return']","[0.6999903767809883, 0.7999028054891824, 0.9499278258581398, 1.116455383549237, 2.7491971027698128, 3.199025167925356, 3.415564594252828, 5.247991313441162]",2017_Feb_09_1224,59.9933799559,famFaceGrey,001,16,
175,./greyInner/SahraWagenknecht9_1_cut.png,0,106,106,174,,,1.ja,1.365,None,None,None,None,None,polit,1.943,None,Sahra Wagenknecht,"['lshift', 'r', 'backspace', 'lshift', 's', 'a', 'h', 'r', 'a', 'space', 'lshift', 'w', 'a', 'g', 'e', 'n', 'k', 'e', 'n', 'backspace', 'backspace', 'n', 'e', 'c', 'h', 't', 'return']","[0.7331911235428379, 0.9000596639575633, 1.2664573081933668, 1.466406946681218, 1.5496914154473416, 1.6330897589705273, 2.9325874269438827, 3.3989247656745647, 3.4654937032073576, 4.231963200811151, 4.365273010720557, 4.5317550185086475, 4.598293161740912, 4.7984820976053015, 4.88168861829854, 4.964964426167626, 5.314930424127397, 5.4647376389752935, 5.531495833146437, 6.031076260802365, 6.147256420290887, 6.397618574095759, 6.447622423383109, 7.197122978322113, 8.013802262098125, 8.146961949792512, 9.080503037729613]",2017_Feb_09_1224,59.9933799559,famFaceGrey,001,16,
166,./greyInner/RobertSeanLeonard(Wilson)1_1_cut.png,0,107,107,165,,,1.ja,1.924,None,act,0.827,None,None,None,None,None,Darsteller bei Dr House,"['lshift', 'd', 'a', 'r', 's', 't', 'e', 'l', 'l', 'e', 'r', 'space', 'b', 'e', 'i', 'space', 'lshift', 'd', 'r', 'period', 'space', 'lshift', 'h', 'o', 'u', 's', 'e', 'return']","[1.1668387084355345, 1.2668329345042366, 1.3666828122891275, 1.5667476086300667, 1.6996234113667015, 1.9331365919688324, 1.9831295349417815, 2.099845066175476, 2.1995781822379286, 2.29975877797915, 2.382982299692685, 2.61613140184636, 2.7494585335493866, 2.8662225016519187, 2.9159982806513653, 3.0159905820764834, 3.182460721227926, 3.3492070467623307, 3.6990973420665796, 3.848905519236723, 4.615482796892138, 4.698609765642232, 4.78196416313267, 4.948501023268818, 5.114990088084596, 5.231465038845727, 5.331652050066168, 5.748183136271109]",2017_Feb_09_1224,59.9933799559,famFaceGrey,001,16,
193,./greyInner/TomCruise5_1_cut.png,0,108,108,192,,,1.ja,1.193,None,act,1.093,None,None,None,None,None,Tom Cruise,"['lshift', 't', 'o', 'm', 'space', 'lshift', 'c', 'r', 'u', 'o', 'backspace', 'i', 's', 'e', 'return']","[0.7332196724255482, 0.883508689766586, 0.9831112508259139, 1.149845386949437, 1.2996218074972603, 1.382706434083957, 1.4834031551326916, 2.3164290800841627, 2.3995483502594652, 2.6161859334201836, 3.0155504801987263, 3.2328129310399163, 3.3323503749847987, 3.399108889929721, 3.566038377397035]",2017_Feb_09_1224,59.9933799559,famFaceGrey,001,16,
126,./greyInner/KatjaBurkard1_1_cut.png,0,109,109,125,,,1.ja,1.393,None,None,None,host,0.909,None,None,None,Katja Burkhard,"['lshift', 'k', 'a', 'r', 'backspace', 't', 'j', 'a', 'space', 'lshift', 'b', 'r', 'u', 'k', 'backspace', 'backspace', 'backspace', 'u', 'r', 'k', 'h', 'a', 'r', 'd', 'return']","[0.7173198693808445, 0.8173012644906521, 0.9340235319778003, 1.0505668075929862, 1.4170051901223815, 1.533713985103077, 1.9334977834519123, 2.033629300776738, 2.150161670077523, 2.2334211184743253, 2.316655867276495, 2.5001042515377776, 2.5499018431669356, 2.7165609181834043, 3.1663655668394313, 3.2996259775586623, 3.4162686931026656, 3.8494652698027494, 4.032631693750318, 4.815578066759372, 5.048824042649812, 5.132180364783835, 5.232141871908425, 5.415416717455628, 6.015055525972912]",2017_Feb_09_1224,59.9933799559,famFaceGrey,001,16,
189,./greyInner/TaylorSwift7_1_cut.png,0,110,110,188,,,1.ja,1.168,None,None,None,music,0.897,None,None,None,Taylor Swift,"['lshift', 't', 'a', 'y', 'l', 'o', 'r', 'space', 'lshift', 's', 'w', 'i', 'f', 't', 'return']","[0.8499396944948785, 0.9167668550676353, 1.0832950543067454, 1.4497488339866322, 2.7658670841001367, 2.9491849133587493, 3.0992227646866013, 3.265765719527735, 3.415696111577745, 3.5156576187023347, 4.298682902106066, 4.531982447248538, 4.615127058566941, 4.865312465917668, 5.198236705522959]",2017_Feb_09_1224,59.9933799559,famFaceGrey,001,16,
146,./greyInner/MilaKunis1_3_cut.png,0,111,111,145,,,1.ja,3.321,None,act,0.413,None,None,None,None,None,Darstellerin aus Black Swan,"['lshift', 'd', 'a', 'r', 's', 't', 'e', 'l', 'l', 'e', 'r', 'i', 'n', 'space', 'a', 'u', 's', 'space', 'lshift', 'b', 'l', 'a', 'c', 'k', 'space', 'lshift', 's', 'w', 'a', 'n', 'return']","[1.5000076985752457, 1.633471800760617, 1.7665519365123146, 1.9166472063793663, 2.2164877817194792, 2.366413041386295, 2.4497831568005495, 2.5163132806837893, 2.6162642022673026, 2.7662359741584623, 2.88283281902568, 2.9328754819630376, 3.0328004208554376, 3.166172140139679, 3.6491037575460723, 3.732459117358303, 3.8657544924394642, 3.8919501773880256, 4.065622654340132, 4.149054358355897, 4.332253180473799, 4.398823401102163, 4.632171703887252, 4.765443341694663, 4.931722620338405, 5.6649775779001175, 5.998229006947895, 6.248084658664538, 6.331483964509516, 6.547749449872754, 6.831329993006875]",2017_Feb_09_1224,59.9933799559,famFaceGrey,001,16,
213,./greyInner/notfamousface12_2_cut.png,0,112,112,212,,,2.nein,5.199,None,act,1.586,None,None,None,None,None,,['return'],[0.9330798149776456],2017_Feb_09_1224,59.9933799559,famFaceGrey,001,16,
205,./greyInner/Usher7_1_cut.png,0,113,113,204,,,1.ja,2.0,None,None,None,music,1.128,None,None,None,Rapper,"['lshift', 'r', 'a', 'p', 'p', 'e', 'r', 'return']","[0.7667873846012299, 0.8502056161105429, 0.9336033180857157, 1.1168428784972093, 1.2333534351682829, 1.299721247425623, 1.350039455197475, 1.5494142667425876]",2017_Feb_09_1224,59.9933799559,famFaceGrey,001,16,
148,./greyInner/MilaKunis4_1_cut.png,0,114,114,147,,,1.ja,2.607,None,act,0.696,None,None,None,None,None,Darstellerin bei Black Swan,"['lshift', 'd', 'a', 'r', 's', 't', 'e', 'l', 'l', 'e', 'r', 'i', 'n', 'space', 'b', 'e', 'i', 'space', 'lshift', 'b', 'l', 'a', 'c', 'k', 'space', 'lshift', 's', 'a', 'backspace', 'w', 'a', 'n', 'return']","[1.2337255329662185, 1.3503919857835172, 1.4503913442354133, 1.5836530380502154, 1.7169958876779674, 1.8829329005025102, 1.9661721401398609, 2.149390529469656, 2.299307128238979, 2.4492843532880215, 2.532606673381906, 2.6159418244342305, 2.699559256574503, 2.8497658350070196, 3.0330037915482535, 3.4161955566391953, 3.566044472102476, 3.732627523689189, 3.8326656957910927, 3.899098304389099, 4.065928031153817, 4.166030358047919, 4.332543801685006, 4.499088360395945, 4.798924765674656, 4.982186780263419, 5.065488570824073, 5.531960955393515, 6.0485651780618355, 6.115160098285287, 6.2483278053286995, 6.431584687534269, 7.447862362308115]",2017_Feb_09_1224,59.9933799559,famFaceGrey,001,16,
78,./greyInner/GeorgeClooney16_1_cut.png,0,115,115,77,,,1.ja,1.916,None,dummy,1.425,None,None,None,None,None,George Clooney,"['lshift', 'g', 'e', 'o', 'r', 'g', 'e', 'space', 'lshift', 'c', 'l', 'o', 'o', 'n', 'e', 'y', 'return']","[0.5668810505985675, 0.6501372912562147, 0.8001975967613362, 0.9502162016510738, 1.066496121842647, 1.3167148896854997, 1.4164621198024179, 1.5831657823996466, 1.716458591288756, 2.0662741462601844, 2.265938616694257, 2.4327625695277675, 2.5495361608486746, 2.7826105226690743, 2.9326740359138057, 3.1657490392817635, 4.015436605441664]",2017_Feb_09_1224,59.9933799559,famFaceGrey,001,16,
17,./greyInner/BastianSchweinsteiger12_1_cut.png,0,116,116,16,,,1.ja,1.384,None,None,None,None,None,sport,1.147,None,Bastian Schweinsteiger,"['lshift', 'b', 'a', 's', 't', 'i', 'a', 'n', 'space', 'lshift', 's', 'c', 'h', 'w', 'e', 'i', 'n', 's', 't', 'e', 'i', 'g', 'e', 'r', 'return']","[0.6671277257764814, 0.7337948201420659, 0.8671110455306916, 0.9503214155110982, 1.1335442956765291, 1.2004789155271283, 1.3169609233154915, 1.4501777087757546, 1.5836459810229826, 1.6667302868359002, 1.7334612152199043, 1.8167312491577832, 1.9833348302781815, 2.0997100203367154, 2.1832382773154677, 2.2333258486073646, 2.6496923777690427, 2.9661493651883575, 3.0994078512635497, 3.1661541767975905, 3.2661006075459227, 3.432751983986691, 3.6160005260690014, 3.682593842422648, 3.965920653352441]",2017_Feb_09_1224,59.9933799559,famFaceGrey,001,16,
200,./greyInner/UrsulavonderLeyen8_2_cut.png,0,117,117,199,,,1.ja,1.357,None,None,None,None,None,polit,1.342,None,Ursula von der Leyen,"['lshift', 'u', 'r', 'u', 's', 'l', 'a', 'space', 'backspace', 'backspace', 'backspace', 'backspace', 'backspace', 's', 'u', 'l', 'a', 'space', 'lshift', 'v', 'o', 'n', 'space', 'backspace', 'backspace', 'backspace', 'backspace', 'v', 'o', 'n', 'space', 'd', 'e', 'r', 'space', 'lshift', 'l', 'e', 'y', 'e', 'n', 'return']","[0.5502133146856067, 0.6002473167259268, 0.7333069229439388, 0.966525633047695, 1.0500882128399098, 1.1667203428432913, 1.3499390529468656, 1.4663995688797513, 1.783023679533926, 1.899796629307275, 2.0162998081773367, 2.149591013196641, 2.266240144220319, 2.3828055532389953, 2.499478421535514, 2.6326749982358706, 2.7659838458234844, 2.8661955566390134, 3.065969410994967, 3.532450135687668, 3.6323933586959356, 3.7489260487704996, 3.8488176271707744, 4.198471512064316, 4.315493061659254, 4.4320353749526475, 4.548643767682734, 4.765292577932087, 4.8984474540170595, 5.031808908534458, 5.148276802268811, 5.264985276475272, 5.414859533081653, 5.498139831786375, 5.548227403078272, 5.631224458373254, 5.714884232676923, 5.814458886401098, 6.031458944140468, 6.481161265902301, 6.647623706478953, 6.931031673221241]",2017_Feb_09_1224,59.9933799559,famFaceGrey,001,16,
138,./greyInner/LisaEdelstein(DrLisaCuddy)2_2_cut.png,0,118,118,137,,,1.ja,1.972,None,act,0.441,None,None,None,None,None,Darstellerin bei Dr House,"['lshift', 'd', 'a', 'r', 's', 't', 'e', 'l', 'l', 'e', 'r', 'i', 'n', 'space', 'b', 'e', 'i', 'space', 'lshift', 'd', 'r', 'period', 'space', 'lshift', 'h', 'o', 'u', 's', 'e', 'return']","[1.2997722504860576, 1.383104835346785, 1.5331744432965024, 1.7164630821243918, 1.9328988984620992, 2.116122740949322, 2.166097399805949, 2.299484516240682, 2.4157881737055504, 2.4493045620470184, 2.5159524099744885, 2.6325957670665048, 2.6993847555381763, 2.8322823709045224, 2.915853611593775, 3.015675582044423, 3.043677545180799, 3.182503384165102, 3.2488862727987, 3.2821312863675303, 3.4156989985435757, 3.498998543685957, 3.615335561642951, 3.9819898250498227, 4.065420566743342, 4.233567391401721, 4.598458039557499, 4.764971803968365, 4.831644993038935, 5.048301822637313]",2017_Feb_09_1224,59.9933799559,famFaceGrey,001,16,
44,./greyInner/CobieSmulders(Robin)4_7_cut.png,0,119,119,43,,,2.nein,3.294,None,act,1.151,None,None,None,None,None,,['return'],[0.9003839664342195],2017_Feb_09_1224,59.9933799559,famFaceGrey,001,16,
16,./greyInner/BastianSchweinsteiger1_1_cut.png,0,120,120,15,,,1.ja,1.124,None,None,None,None,None,sport,0.908,None,Bastian Schweinsteiger,"['lshift', 'b', 'a', 's', 't', 'i', 'n', 'a', 'backspace', 'backspace', 'a', 'n', 'space', 'lshift', 's', 'c', 'h', 'w', 'e', 'i', 'n', 's', 't', 'e', 'i', 'g', 'e', 'r', 'return']","[0.6665885047441407, 0.7334169484129234, 0.8667270790965631, 0.9499002392972216, 1.1330374728145216, 1.1660698132454854, 1.3331134962436408, 1.7329547131316758, 1.9328440461144965, 2.0496612626943715, 2.18273786993268, 2.2659469568175155, 2.416000205295404, 2.499238803384742, 2.5991377595860286, 2.699233029453353, 2.8323866224423, 2.9657143956937944, 3.0323468464712278, 3.098909368524346, 3.282457192714446, 3.5655437439454545, 3.6988830650593627, 3.782099850519444, 3.8320863780127183, 3.982094076588055, 4.09863446523741, 4.181942992051063, 4.365177099305129]",2017_Feb_09_1224,59.9933799559,famFaceGrey,001,16,
185,./greyInner/SigmarGabriel8_2_cut.png,0,121,121,184,,,1.ja,1.396,None,None,None,None,None,polit,0.817,None,Sigmar Gabriel,"['lshift', 's', 'i', 'g', 'n', 'a', 'backspace', 'backspace', 'm', 'a', 'r', 'space', 'lshift', 'g', 'a', 'b', 'r', 'i', 'e', 'l', 'return']","[0.499963110994031, 0.5832706754858918, 0.6997908553757952, 0.7997947046633271, 0.9166680566872856, 1.0663107144919195, 1.3663620383258603, 1.4828427630186525, 1.7327288882615903, 1.8327324167753432, 1.9176403225701506, 2.165970694090902, 2.2989372758593163, 2.5157464730900756, 2.698664617990289, 2.8156755820441504, 2.900530560135394, 3.015724660460819, 3.11563323988139, 3.215557216451998, 3.46539747101815]",2017_Feb_09_1224,59.9933799559,famFaceGrey,001,16,
86,./greyInner/Ice-T(OdafinFinTutuola)10_1_cut.png,0,122,122,85,,,2.nein,1.363,None,dummy,3.579,None,None,None,None,None,,['return'],[0.9500955906410127],2017_Feb_09_1224,59.9933799559,famFaceGrey,001,16,
160,./greyInner/NicoleKidman8_2_cut.png,0,123,123,159,,,1.ja,2.944,None,act,1.311,None,None,None,None,None,Nicole Kidman,"['lshift', 'n', 'i', 'c', 'o', 'l', 'e', 'space', 'lshift', 'k', 'i', 'd', 'm', 'a', 'n', 'return']","[0.7999858859457163, 0.8334268924058961, 1.0332854310881885, 1.166413362160256, 1.283263297684698, 1.4329373913378731, 1.533074682593906, 1.6995669551492938, 1.8327660980412475, 1.9995143482192361, 2.232834422895394, 2.549327336998431, 2.882491515528727, 3.049185234132892, 3.215650882449154, 4.23198918350181]",2017_Feb_09_1224,59.9933799559,famFaceGrey,001,16,
190,./greyInner/TaylorSwift8_1_cut.png,0,124,124,189,,,1.ja,1.346,None,None,None,music,1.962,None,None,None,Taylor Swift,"['lshift', 't', 'a', 'y', 'l', 'o', 'r', 'space', 'lshift', 'w', 'backspace', 'lshift', 's', 'w', 'i', 'f', 't', 'return']","[0.5836193567838563, 0.6669326952069241, 1.4332389188634806, 1.6664419110429662, 1.8829332212762893, 2.099672810557422, 2.1996198828533124, 2.3659864120149905, 2.4995470671633484, 2.5828867090513086, 2.932620145887995, 3.0992635029797384, 3.149069113957921, 3.415805174725392, 3.49915026977078, 3.9655139119668092, 4.19887600803213, 4.415286162452503]",2017_Feb_09_1224,59.9933799559,famFaceGrey,001,16,
81,./greyInner/HughLaurie(DrHouse)2_1_cut.png,0,125,125,80,,,1.ja,8.503,None,act,3.167,None,None,None,None,None,Dr House Hauptdarsteller,"['lshift', 'd', 'r', 'period', 'space', 'lshift', 'h', 'o', 'u', 's', 'e', 'space', 'lshift', 'h', 'a', 'u', 'p', 't', 'd', 'a', 'r', 's', 't', 'e', 'l', 'l', 'e', 'r', 'return']","[3.082863613326481, 3.1329194279960575, 3.3162215393303995, 3.415853932368009, 3.832567538958301, 3.9494479480090376, 4.0492439357685726, 4.215562348835647, 4.682243557255333, 5.332013241549248, 5.515205968962164, 6.598179928531863, 6.6813437862879255, 6.764722883372997, 7.064621198026543, 7.231240176297433, 7.348023711611404, 7.531058297460277, 8.23092132697775, 8.330750354455176, 8.547464602593209, 8.763944685737897, 8.930443694546284, 8.957064725770579, 9.097293309296674, 9.230428938943987, 9.363842358843613, 9.430236153792066, 10.130110089624395]",2017_Feb_09_1224,59.9933799559,famFaceGrey,001,16,
179,./greyInner/Shakira7_1_cut.png,0,126,126,178,,,1.ja,1.345,None,None,None,music,3.212,None,None,None,Shakira,"['lshift', 's', 'h', 'a', 'r', 'k', 'i', 'backspace', 'backspace', 'backspace', 'backspace', 'k', 'i', 'r', 'a', 'backspace', 'backspace', 'backspace', 'backspace', 'a', 'k', 'i', 'r', 'a', 'return']","[0.7002809979917402, 0.7502299949319422, 0.9336402070916847, 1.0167290037402381, 1.1498736150583682, 1.3499711303434196, 1.499917561091479, 1.8498620671957724, 1.9497841191227963, 2.0829531092622346, 2.1830297742394578, 2.5994601374195554, 2.782739153028615, 2.94984185843623, 3.0492930141845136, 4.06556106573953, 4.232024147864195, 4.382197686578365, 4.7486129733820235, 4.981849005279855, 5.464984314153298, 5.648005427495264, 5.76480949234292, 5.848215534441351, 6.281266158988274]",2017_Feb_09_1224,59.9933799559,famFaceGrey,001,16,
103,./greyInner/JimParsons(SheldonCooper)6_1_cut.png,0,127,127,102,,,2.nein,2.41,None,act,0.995,None,None,None,None,None,,['return'],[0.7831657823999194],2017_Feb_09_1224,59.9933799559,famFaceGrey,001,16,
30,./greyInner/Beyonce8_3_cut.png,0,128,128,29,,,1.ja,1.163,None,None,None,music,2.013,None,None,None,Beonce,"['lshift', 'b', 'e', 'o', 'n', 'c', 'e', 'return']","[0.6004561405761706, 0.6670924406407721, 0.8837486286915919, 1.016939752234066, 1.4999679226039007, 2.016574390690039, 2.2495233298905077, 3.5825165358978666]",2017_Feb_09_1224,59.9933799559,famFaceGrey,001,16,
13,./greyInner/BarackObama2_1_cut.png,0,129,129,12,,,1.ja,1.503,None,None,None,None,None,polit,1.25,None,Barack Obama,"['lshift', 'b', 'r', 'a', 'c', 'k', 'backspace', 'backspace', 'backspace', 'backspace', 'a', 'r', 'a', 'c', 'k', 'space', 'lshift', 'i', 'b', 'a', 'backspace', 'backspace', 'backspace', 'lshift', 'o', 'b', 'a', 'm', 'a', 'return']","[0.48345608283671027, 0.5502704124510274, 0.7836270553593749, 0.8502473167259268, 1.0002020875972448, 1.1336453394751516, 1.449923976570517, 1.566687944673049, 1.6830519076429482, 1.782659921859704, 1.8491656669211807, 2.0164691768300145, 2.099428380797235, 2.2497074541452093, 2.349791817697678, 2.516325470094216, 2.682740756898511, 2.8493850763120463, 2.9826102018951133, 3.099388925599669, 3.4158317989645184, 3.5326118057651, 3.6490190732197334, 3.9989366343111215, 4.148754113926316, 4.348745132255317, 4.415380790771906, 4.681905782271315, 4.798742886837317, 5.165092414978972]",2017_Feb_09_1224,59.9933799559,famFaceGrey,001,16,
63,./greyInner/EmilyDeschanel5_1_cut.png,0,130,130,62,,,2.nein,5.109,None,dummy,0.571,None,None,None,None,None,,['return'],[0.7166449609617302],2017_Feb_09_1224,59.9933799559,famFaceGrey,001,16,
220,./greyInner/notfamousface5_1_cut.png,0,131,131,219,,,1.ja,5.282,None,None,None,None,None,polit,0.988,None,Jean Claude Junker,"['lshift', 'j', 'e', 'a', 'n', 'space', 'backspace', 'period', 'minus', 'lshift', 'c', 'l', 'a', 'backspace', 'backspace', 'backspace', 'space', 'lshift', 'c', 'l', 'u', 'a', 'backspace', 'backspace', 'a', 'u', 'd', 'e', 'space', 'lshift', 'j', 'u', 'n', 'k', 'e', 'r', 'return']","[0.8335892040313411, 0.9335840716480561, 1.0667456839864826, 1.2167947624029694, 1.3992185946253812, 1.616490347911622, 2.016538464005862, 2.3496262983326233, 3.0659023692364826, 3.6657509639258024, 3.7823709045183023, 3.882254784343786, 4.198607840998648, 4.432252859699929, 4.565406452689331, 4.681960955393151, 4.881901932983965, 4.9819102731071325, 5.0484493786607345, 5.248483059926912, 5.4483265222329464, 5.665094339622556, 6.031444509312223, 6.164791208227143, 6.231361749629741, 6.398061883713126, 6.481278669173207, 6.631217401346021, 7.181014672200945, 7.364178529957371, 7.463945648059507, 7.647515284879319, 7.830760939996253, 7.913888229520126, 8.114001462729448, 8.213783977982075, 8.513773713215414]",2017_Feb_09_1224,59.9933799559,famFaceGrey,001,16,
82,./greyInner/HughLaurie(DrHouse)4_1_cut.png,0,132,132,81,,,1.ja,2.555,None,act,0.459,None,None,None,None,None,Dr House,"['lshift', 'd', 'r', 'period', 'space', 'lshift', 'h', 'o', 'u', 's', 'e', 'return']","[1.8663995688798423, 1.9661083061209865, 2.1496445824486727, 2.232815818005747, 2.6826766021054027, 2.8159184079345323, 2.882670507400235, 3.065610144155926, 3.2157429445769594, 3.3658619517173065, 3.4654186420998485, 4.548637672977293]",2017_Feb_09_1224,59.9933799559,famFaceGrey,001,16,
26,./greyInner/Beyonce1_1_cut.png,0,133,133,25,,,1.ja,1.291,None,None,None,music,1.037,None,None,None,Beonce,"['lshift', 'b', 'o', 'backspace', 'e', 'o', 'b', 'backspace', 'n', 'c', 'e', 'return']","[0.5001764256794559, 0.5501783503232218, 0.8334592905762293, 1.3666988509876319, 1.4665278784650582, 1.5999733757607828, 1.9825300084039554, 2.3661814425845478, 2.682626240592981, 3.0492073675363827, 3.165450398721987, 3.4823670552304975]",2017_Feb_09_1224,59.9933799559,famFaceGrey,001,16,
118,./greyInner/JudithRakers4_3_cut.png,0,134,134,117,,,1.ja,1.428,None,None,None,host,1.195,None,None,None,Judith Rakers,"['lshift', 'j', 'u', 'd', 'i', 't', 'h', 'space', 'lshift', 'r', 'a', 'k', 'e', 'r', 's', 'return']","[0.6009976070263292, 0.6509203005011841, 0.8177047981366741, 0.9009353768774417, 1.034195466822439, 1.1841467091799132, 1.2843350034963805, 1.4337803853136393, 1.567297415203484, 1.6505344094230168, 1.7507515733964283, 1.8837813476357042, 1.983792574724248, 2.0505065020879556, 2.2170690241414377, 2.36678706382736]",2017_Feb_09_1224,59.9933799559,famFaceGrey,001,16,
198,./greyInner/UrsulavonderLeyen5_1_cut.png,0,135,135,197,,,1.ja,1.176,None,None,None,None,None,polit,0.66,None,Ursula von der Leyen,"['lshift', 'u', 'r', 's', 'u', 'l', 'a', 'space', 'v', 'o', 'n', 'd', 'backspace', 'space', 'd', 'e', 'r', 'space', 'lshift', 'l', 'e', 'y', 'e', 'n', 'return']","[0.683423043118637, 0.7660954751627287, 0.8833964188797836, 1.6163097521703094, 1.7662481635693439, 1.9328459707585353, 2.032656072572081, 2.1994412117560387, 2.565883443573057, 2.6492150661115375, 2.765803570855951, 2.9990870773003735, 3.417048173834246, 3.5822730684599264, 3.71536571439583, 3.865512628871329, 3.965277180781868, 4.03186889326571, 4.13197506944789, 4.315321126814979, 4.898298614898067, 5.131603613197967, 5.298108716711795, 5.46472288337327, 5.747884816485566]",2017_Feb_09_1224,59.9933799559,famFaceGrey,001,16,
29,./greyInner/Beyonce5_3_cut.png,0,136,136,28,,,1.ja,2.112,None,None,None,music,0.924,None,None,None,Beonce,"['lshift', 'b', 'e', 'o', 'n', 'c', 'e', 'return']","[0.5501305550028519, 0.6336203191058303, 0.9332462966644925, 1.0333543974902568, 1.4498633502912526, 1.7496526017976066, 1.9159482399131775, 2.1161942735429875]",2017_Feb_09_1224,59.9933799559,famFaceGrey,001,16,
113,./greyInner/JoshRadnor(Ted)6_2_cut.png,0,137,137,112,,,2.nein,2.529,None,None,None,music,1.145,None,None,None,,['return'],[0.8002200509390605],2017_Feb_09_1224,59.9933799559,famFaceGrey,001,16,
132,./greyInner/LeonardoDiCaprio2_1_cut.png,0,138,138,131,,,1.ja,1.147,None,act,0.677,None,None,None,None,None,Leonardo diCaprio,"['lshift', 'l', 'e', 'o', 'n', 'a', 'r', 'd', 'o', 'space', 'd', 'i', 'lshift', 'c', 'a', 'p', 'r', 'i', 'o', 'return']","[0.6333957773313159, 0.7167225882608363, 0.8833033944297313, 1.000003528513389, 1.3166411116740164, 1.4996766598446811, 1.682985828206256, 1.8661875372895338, 1.9996327138114793, 2.215926427283648, 2.632268256849784, 2.8825319330476304, 3.198989882789192, 3.3323683383264324, 3.5322361794537755, 4.315166513764325, 4.665062262226002, 4.831613557190394, 5.764696900681884, 7.597253854099108]",2017_Feb_09_1224,59.9933799559,famFaceGrey,001,16,
116,./greyInner/JudithRakers1_1_cut.png,0,139,139,115,,,1.ja,1.727,None,None,None,host,1.476,None,None,None,Judith Rakers,"['lshift', 'j', 'u', 'd', 'i', 't', 'h', 'space', 'lshift', 'r', 'a', 'k', 'e', 'r', 's', 'return']","[0.7333062813954712, 0.7999140325778171, 0.9832437304726227, 1.033185028837579, 1.1499422606866574, 1.2498915784003657, 1.3664005312016343, 1.5162257093916196, 1.6663950780443884, 1.7495903716485373, 1.8328620094562211, 1.9661532144759803, 2.049515631314989, 2.132771551198857, 2.249273126198659, 2.516097079032079]",2017_Feb_09_1224,59.9933799559,famFaceGrey,001,16,
42,./greyInner/CobieSmulders(Robin)2_1_cut.png,0,140,140,41,,,2.nein,1.544,None,act,1.977,None,None,None,None,None,,['return'],[0.9665622012789754],2017_Feb_09_1224,59.9933799559,famFaceGrey,001,16,
157,./greyInner/NicoleKidman3_1_cut.png,0,141,141,156,,,1.ja,1.203,None,act,1.254,None,None,None,None,None,Nicole Kidman,"['lshift', 'n', 'i', 'c', 'i', 'backspace', 'o', 'l', 'e', 'space', 'lshift', 'k', 'd', 'i', 'backspace', 'backspace', 'i', 'd', 'm', 'a', 'n', 'return']","[0.4669673387952571, 0.5351228243507649, 0.700315000032333, 0.866816895806096, 1.0167864222798926, 1.383139478934936, 1.6999028054892733, 1.8497007178921194, 1.966488423267947, 2.0996442616747117, 2.18282223348524, 2.2496208451752864, 2.649427739249404, 2.782705471762256, 3.0825537456776146, 3.1826339391686815, 3.3990428104934836, 3.5323192599103095, 3.6824049065585314, 3.7988112116918273, 3.982216291468376, 4.2987695110764435]",2017_Feb_09_1224,59.9933799559,famFaceGrey,001,16,
168,./greyInner/RobertSeanLeonard(Wilson)11_2_cut.png,0,142,142,167,,,1.ja,2.699,None,act,0.544,None,None,None,None,None,Dr House Darsteller,"['lshift', 'd', 'r', 'period', 'space', 'lshift', 'h', 'o', 'u', 's', 'e', 'space', 'lshift', 'd', 'a', 'r', 's', 't', 'e', 'l', 'l', 'e', 'r', 'return']","[0.8669035047764737, 0.9501109877915042, 1.1334862355893165, 1.1665067073836326, 1.349791496923899, 1.5665968448674903, 1.6833390003398563, 1.933220634747613, 2.116482328562597, 2.1831686693653864, 2.282946693782833, 2.4330820603954635, 2.6827628903015466, 2.7660624354443826, 2.9492894856712155, 3.0492590121443754, 3.2992506720215715, 3.46551038345342, 3.5324373047287736, 3.6824292853798397, 3.7823901509564166, 3.832223990043076, 3.9156130311216657, 4.14882917503337]",2017_Feb_09_1224,59.9933799559,famFaceGrey,001,16,
7,./greyInner/AngelaMerkel3_1_cut.png,0,143,143,6,,,1.ja,1.169,None,None,None,None,None,polit,1.536,None,Angela Merkel,"['lshift', 'a', 'n', 'g', 'e', 'l', 'a', 'space', 'lshift', 'm', 'e', 'r', 'k', 'e', 'l', 'return']","[0.5333649830308786, 0.6168069518130324, 0.7667120027199417, 0.8500580600871217, 0.8998126680053247, 0.9666533010845342, 1.1166831330633613, 1.3331295349416905, 1.4664088713243473, 1.5331952936044217, 1.6327369076107061, 1.6829595247409088, 1.783104514572642, 1.882864254874221, 2.049246501959715, 2.415969731768655]",2017_Feb_09_1224,59.9933799559,famFaceGrey,001,16,
54,./greyInner/DannFlorek(DonaldDonCragen)5_1_cut.png,0,144,144,53,,,2.nein,2.56,None,None,None,None,None,polit,1.46,None,,['return'],[0.7168184996762648],2017_Feb_09_1224,59.9933799559,famFaceGrey,001,16,
83,./greyInner/HughLaurie(DrHouse)5_3_cut.png,0,145,145,82,,,1.ja,7.941,None,act,0.944,None,None,None,None,None,Dr House Hauptdarsteller,"['lshift', 'd', 'r', 'period', 'space', 'lshift', 'h', 'o', 'u', 's', 'e', 'space', 'lshift', 'h', 'a', 'u', 'p', 't', 'd', 'a', 'r', 's', 't', 'e', 'l', 'l', 'e', 'r', 'return']","[3.1824844585012215, 3.2657070178925096, 3.4156271451756766, 3.4989488237215483, 3.7321858179416267, 3.9154699659338803, 4.065303805020449, 4.231990787371615, 4.381990466597472, 4.516100928319702, 4.6151036420674245, 4.731743791419831, 4.915086320273531, 5.0482424794545295, 5.16473956361915, 5.398267820597539, 5.514643652204086, 5.947834454972963, 6.3476878612714245, 6.41445022550397, 6.61432063282291, 6.747470376524234, 6.880917798463997, 6.964100902657719, 7.080866153855823, 7.180756128386292, 7.230619799452143, 7.29743092132685, 7.630655084587943]",2017_Feb_09_1224,59.9933799559,famFaceGrey,001,16,
119,./greyInner/JudithRakers7_1_cut.png,0,146,146,118,,,1.ja,1.162,None,None,None,host,1.378,None,None,None,Judith Rakers,"['lshift', 'j', 'u', 'd', 'i', 't', 'h', 'space', 'lshift', 'r', 'a', 'k', 'e', 'r', 's', 'return']","[1.0166459232837042, 1.0500545315735508, 1.2498511608810077, 1.3663617175520812, 1.4831199117229517, 1.5997465885689053, 1.699719964329688, 1.8495060080963412, 1.9662844110266633, 2.06616251692094, 2.165879915059122, 2.2828446876624184, 2.366093550518599, 2.4326740359138057, 2.5657586625006843, 2.6992516343434545]",2017_Feb_09_1224,59.9933799559,famFaceGrey,001,16,
170,./greyInner/RobertSeanLeonard(Wilson)8_1_cut.png,0,147,147,169,,,1.ja,1.245,None,act,0.662,None,None,None,None,None,Dr House Darsteller,"['lshift', 'd', 'r', 'period', 'space', 'lshift', 'h', 'o', 'u', 's', 'e', 'space', 'lshift', 'd', 'a', 'r', 's', 't', 'e', 'l', 'l', 'e', 'r', 'return']","[1.1498145926493635, 1.216658433468183, 1.3998508401073195, 1.4998200458067004, 1.9330223964384459, 2.0494925355901614, 2.1162093499197, 2.3158164018145726, 2.4661830464547165, 2.5821101152864685, 2.6656707704350993, 2.7825896723616097, 2.8992625406581283, 2.9826336183946296, 3.0658613101691117, 3.199030621082784, 3.665691620742564, 3.7988137778834243, 3.8821470042921646, 3.9487675864324956, 4.065372129874959, 4.115362506656311, 4.1819955989813025, 4.381913480846833]",2017_Feb_09_1224,59.9933799559,famFaceGrey,001,16,
59,./greyInner/ElvisPresley5_2_cut.png,0,148,148,58,,,1.ja,1.049,None,None,None,music,1.766,None,None,None,Elvis Presley,"['lshift', 'e', 'v', 'backspace', 'l', 'v', 'i', 's', 'space', 'lshift', 'p', 'r', 'e', 's', 'l', 'e', 'y', 'return']","[0.6165227460815004, 0.6834621775419691, 0.8502319195754353, 1.399963752542135, 1.6164300424061366, 1.816291147280026, 1.9664303631802795, 2.1331016276067203, 2.249360055942816, 2.68277604203422, 2.9327243974257726, 3.0657532093432565, 3.1325309707258384, 3.448872158744507, 3.6991108145730323, 3.9322454818984625, 4.182097605101262, 4.781622859635718]",2017_Feb_09_1224,59.9933799559,famFaceGrey,001,16,
171,./greyInner/SahraWagenknecht12_1_cut.png,0,149,149,170,,,1.ja,1.419,None,None,None,None,None,polit,1.296,None,Sahra Wagenknecht,"['lshift', 's', 'a', 'h', 'r', 'a', 'space', 'lshift', 'w', 'a', 'h', 'backspace', 'g', 'e', 'n', 'k', 'e', 'backspace', 'n', 'e', 'c', 'h', 't', 'return']","[0.7001581415638611, 0.766618657496565, 1.0168406330794824, 1.5331795756801512, 1.7831994636658237, 1.8780802319838585, 2.0993276577728466, 2.2994704021862162, 2.36611857088792, 2.4495704836631376, 2.7495040834523934, 3.0990893227176457, 3.165928993475518, 3.232344921827462, 3.332378282319496, 3.548863818621612, 3.665689375324746, 4.348722357303814, 4.581943633599167, 4.681855099985114, 4.815066111513715, 4.915146625778561, 5.098349938732099, 5.314951915982874]",2017_Feb_09_1224,59.9933799559,famFaceGrey,001,16,
35,./greyInner/BritneySpears8_5_cut.png,0,150,150,34,,,1.ja,1.27,None,None,None,music,0.787,None,None,None,Britney Spears,"['lshift', 'b', 'r', 'i', 't', 'm', 'backspace', 'n', 'e', 'y', 'space', 'lshift', 's', 'p', 'e', 'a', 'r', 's', 'return']","[0.533584392422199, 0.6169833774933977, 0.8334843109455505, 0.9503262271209678, 1.0500654378884064, 1.3497886099580683, 1.8832036337275895, 2.1495855600392133, 2.216173423235432, 2.432904030845748, 2.6990915681358274, 2.849355244333765, 2.9158571401076188, 3.132699697830958, 3.232586464621818, 3.582459117358212, 3.832337864800138, 4.015524497507613, 4.431976031769409]",2017_Feb_09_1224,59.9933799559,famFaceGrey,001,16,
159,./greyInner/NicoleKidman7_1_cut.png,0,151,151,158,,,1.ja,1.228,None,act,0.662,None,None,None,None,None,Nicole Kidman,"['lshift', 'n', 'i', 'c', 'o', 'l', 'e', 'space', 'lshift', 'k', 'i', 'd', 'm', 'a', 'n', 'return']","[0.8169654141511273, 0.9003557383252883, 1.0669670180209323, 1.1502925458548816, 1.6499820366580025, 1.84988355905125, 2.13297748808327, 2.2663559436209653, 2.290231149718238, 2.399709378789339, 2.582891520661178, 2.832819025745266, 3.1658699710660585, 3.299396303400954, 3.3659761472481478, 3.632343317957748]",2017_Feb_09_1224,59.9933799559,famFaceGrey,001,16,
55,./greyInner/DannFlorek(DonaldDonCragen)8_1_cut.png,0,152,152,54,,,2.nein,1.266,None,None,None,None,None,polit,0.933,None,,['return'],[0.6002245417744234],2017_Feb_09_1224,59.9933799559,famFaceGrey,001,16,
124,./greyInner/KaleyCuoco(Penny)5_2_cut.png,0,153,153,123,,,1.ja,1.652,None,dummy,0.685,None,None,None,None,None,Kaley Coucoa,"['lshift', 'k', 'a', 'l', 'e', 'y', 'space', 'lshift', 'c', 'o', 'u', 'c', 'o', 'a', 'return']","[1.449806252525832, 1.5330410013280016, 1.7329723556995305, 2.016085210395431, 2.132826082772226, 2.4160361319791264, 2.8492003105093318, 3.1657843244179276, 3.298834307416655, 3.5321226254704925, 3.932137381073062, 4.698226440756116, 5.381389656964075, 5.6313085011515795, 6.181020766906386]",2017_Feb_09_1224,59.9933799559,famFaceGrey,001,16,
172,./greyInner/SahraWagenknecht2_2_cut.png,0,154,154,171,,,1.ja,1.145,None,None,None,None,None,polit,2.01,None,Sahra Wagenknecht,"['lshift', 's', 'a', 'h', 'r', 'a', 'space', 'lshift', 'w', 'a', 'g', 'e', 'n', 'k', 'e', 'n', 'c', 'backspace', 'backspace', 'backspace', 'n', 'e', 'c', 'h', 't', 'return']","[1.1165423132933938, 1.2164306839540586, 1.8664072674546333, 2.0330037915482535, 2.2995371231709214, 2.432777966677804, 2.5996631873381375, 2.682793043054062, 2.7660223386988037, 2.866216406946478, 3.082590634683129, 3.3659482399129956, 3.4824700236731587, 3.7990485844243267, 3.898915784003748, 3.948787474418168, 4.298940162824692, 4.648258838926267, 4.748512571131414, 4.865071243897091, 5.081857666176802, 5.215080225568272, 5.381505135590942, 5.464936198058695, 5.63126230970056, 5.798279368460044]",2017_Feb_09_1224,59.9933799559,famFaceGrey,001,16,
45,./greyInner/CobieSmulders(Robin)5_1_cut.png,0,155,155,44,,,2.nein,1.579,None,act,0.897,None,None,None,None,None,,['return'],[1.1002973574641146],2017_Feb_09_1224,59.9933799559,famFaceGrey,001,16,
137,./greyInner/LisaEdelstein(DrLisaCuddy)10_1_cut.png,0,156,156,136,,,1.ja,1.444,None,act,0.695,None,None,None,None,None,Darstellerin aus Dr House,"['lshift', 'd', 'a', 'r', 's', 't', 'e', 'l', 'l', 'e', 'r', 'i', 'n', 'space', 'lshift', u'\xc4', 'backspace', 'backspace', 'backspace', 'backspace', 'backspace', 'lshift', 'd', 'd', 'a', 'backspace', 'backspace', 'backspace', 'backspace', 'lshift', 'd', 'a', 'r', 's', 't', 'e', 'l', 'l', 'e', 'r', 'i', 'n', 'space', 'a', 'u', 's', 'space', 'lshift', 'd', 'r', 'period', 'space', 'lshift', 'h', 'o', 'u', 's', 'e', 'return']","[1.5830275288217308, 1.649759740301306, 1.9661801594888857, 2.1327981754375287, 2.266040943588905, 2.382733379097317, 2.4660589069308116, 2.5826916784817513, 2.6825964086146996, 2.7491733654965174, 2.832570105149898, 2.9659395790163217, 3.0491031159981503, 3.2157034893793934, 4.798263971310007, 4.914984314153116, 5.881270970598052, 6.314532664412582, 6.714158962745387, 7.447299404002024, 7.730469035689566, 10.712516279278589, 10.812462068478908, 11.695453991390423, 11.795644210350929, 12.195284622737745, 12.328487614917321, 12.461878580639222, 12.645207957760704, 15.060739191521407, 15.127405002790965, 15.260773193561363, 15.427368434558957, 15.727104758360838, 15.893779230527343, 15.976972599487908, 16.07692865345507, 16.210285937911067, 16.27691004856524, 16.360273106952718, 16.4765629711369, 16.593676903632968, 16.743263105220194, 17.759576385903983, 17.84292372636719, 17.959414074278357, 18.0095093441455, 18.19244160310018, 18.37603818493244, 18.576029524035675, 18.742573761972835, 19.10922995002329, 19.208994181160506, 19.275584289774542, 19.45892649785401, 19.608922648566477, 19.80891655386131, 19.892138150930805, 20.20859674221947]",2017_Feb_09_1224,59.9933799559,famFaceGrey,001,16,
165,./greyInner/OmarEpps(DrEricForeman)9_1_cut.png,0,157,157,164,,,1.ja,2.511,None,act,1.195,None,None,None,None,None,Darsteller aus Dr House,"['lshift', 'd', 'r', 'a', 'backspace', 'backspace', 'a', 'r', 's', 't', 'e', 'l', 'l', 'e', 'r', 'space', 'a', 'u', 's', 'space', 'lshift', 'd', 'r', 'period', 'lshift', 'h', 'backspace', 'space', 'lshift', 'h', 'o', 'u', 's', 'e', 'return']","[1.4004516497407167, 1.4838455024282666, 1.7003955142968152, 1.8169070332901356, 2.3502293533838383, 2.4831333842294043, 2.5499781873704706, 2.6667658927458433, 2.849885162921055, 2.983233786480014, 3.06645538354951, 3.1664993295826207, 3.2829627324808826, 3.3328446876626003, 3.433063455505362, 5.182417416743192, 5.298901349175139, 5.34862644588884, 5.482027997151363, 5.565556574903894, 5.765195062647308, 5.865354166533052, 6.065205968961891, 6.1486485792920575, 6.415190571811763, 6.514802756089921, 7.314464339558526, 7.7145762896716406, 7.814555118590306, 7.897823227884146, 8.064495454632834, 8.197552173885015, 8.331049636562966, 8.397592270630412, 8.580726296408102]",2017_Feb_09_1224,59.9933799559,famFaceGrey,001,16,
88,./greyInner/Ice-T(OdafinFinTutuola)5_1_cut.png,0,158,158,87,,,2.nein,1.229,None,dummy,0.963,None,None,None,None,None,,['return'],[0.9668082349089673],2017_Feb_09_1224,59.9933799559,famFaceGrey,001,16,
46,./greyInner/CristinMilioti(Tracy_Mutter)10_1_cut.png,0,159,159,45,,,2.nein,1.667,None,act,4.075,None,None,None,None,None,,['return'],[0.3835266531086745],2017_Feb_09_1224,59.9933799559,famFaceGrey,001,16,
25,./greyInner/BenedictCumberbatch6_5_cut.png,0,160,160,24,,,1.ja,2.617,None,act,2.433,None,None,None,None,None,Benedikt Cumberbatch,"['lshift', 'b', 'e', 'n', 'e', 'd', 'k', 'backspace', 'i', 'k', 't', 'space', 'lshift', 'c', 'u', 'm', 'b', 'e', 'r', 'b', 'a', 't', 'c', 'h', 'return']","[0.7168704650580366, 0.8834936133903284, 1.066535897813992, 1.1501411405438375, 1.233349906654439, 1.66653140697872, 2.0996965478302627, 2.632782457513258, 2.81588889673003, 2.9826891122897905, 3.1159424659817887, 3.1825649727661585, 3.3157474354120495, 3.465811910978573, 3.5824029819145835, 3.848967749385338, 3.9989741648646486, 4.182200573543469, 4.265392017860449, 4.63206745234902, 4.764899950600466, 5.065138285655394, 5.298336145451685, 5.464928820257228, 5.781417243525084]",2017_Feb_09_1224,59.9933799559,famFaceGrey,001,16,
15,./greyInner/BarackObama5_2_cut.png,0,161,161,14,,,1.ja,1.127,None,None,None,None,None,polit,0.877,None,Barack Obama,"['lshift', 'b', 'r', 'a', 'c', 'backspace', 'backspace', 'backspace', 'a', 'r', 'a', 'c', 'k', 'space', 'lshift', 'o', 'b', 'a', 'm', 'a', 'return']","[0.7000455499028249, 0.7666577919203519, 0.9665403886497188, 1.0331186286271077, 1.1999746588571725, 1.5830143770890572, 1.699633034585986, 1.816207746049713, 1.9164168906740997, 2.1160717378893423, 2.182572671341404, 2.3326339391683177, 2.449272484650919, 2.932545084780486, 3.0656281074980143, 3.1823227884237895, 3.4322207823038298, 3.598908406202554, 3.7152643498234283, 3.9321072283205467, 4.4817588677960885]",2017_Feb_09_1224,59.9933799559,famFaceGrey,001,16,
84,./greyInner/HughLaurie(DrHouse)8_1_cut.png,0,162,162,83,,,1.ja,2.692,None,act,0.842,None,None,None,None,None,Dr House Hauptdarsteller,"['lshift', 'd', 'r', 'space', 'lshift', 'h', 'o', 'u', 's', 'e', 'space', 'lshift', 'h', 'a', 'u', 'p', 't', 'd', 'a', 'r', 't', 'e', 'backspace', 'backspace', 'backspace', 'r', 's', 't', 'e', 'l', 'l', 'e', 'r', 'return']","[1.149914994899973, 1.1832148608164061, 1.3497356822540496, 1.5830461337113775, 1.716053774547163, 1.8494585335497504, 1.999431588536936, 2.149475855344008, 2.249313222944238, 2.349275371616841, 2.4658144771706247, 2.7156531278669718, 3.1157596248226582, 3.248949786043795, 3.3155466309112853, 3.448751547734446, 3.598991807432867, 4.265176136983428, 4.431802813829108, 4.565109415998904, 4.914873005588106, 4.998172871504266, 5.481337370808433, 5.564764904762342, 5.714575648124082, 6.430941535737475, 6.597559551686572, 6.747454658600418, 6.847586496699478, 6.980739127366633, 7.097349765514537, 7.247413278759268, 7.314041238701066, 7.747132280767346]",2017_Feb_09_1224,59.9933799559,famFaceGrey,001,16,
23,./greyInner/BenedictCumberbatch3_9_cut.png,0,163,163,22,,,1.ja,1.396,None,act,1.096,None,None,None,None,None,Benedikt Cumberbatch,"['lshift', 'b', 'e', 'n', 'e', 'd', 'i', 'k', 't', 'space', 'lshift', 'c', 'u', 'm', 'b', 'e', 'r', 'b', 'a', 't', 'c', 'g', 'backspace', 'h', 'return']","[0.48380316026532455, 0.5505119552458382, 0.7171084793390037, 0.8504975204173206, 0.9002867719232199, 1.2170853836137212, 1.43346185676819, 1.600075702655431, 1.816607109634333, 2.032980375049192, 2.1498514816548777, 2.249803686334417, 2.399841858436048, 2.583104514572824, 2.7995797861080973, 2.9660977205803647, 3.0496019195115878, 3.4659511268791903, 3.5992965426985393, 3.865871254162357, 4.349101191354748, 4.848820514136605, 5.648221629146974, 6.098269103693383, 6.998024032385274]",2017_Feb_09_1224,59.9933799559,famFaceGrey,001,16,
182,./greyInner/SigmarGabriel11_3_cut.png,0,164,164,181,,,1.ja,2.79,None,None,None,None,None,polit,1.22,None,Sigmar Gabriel,"['lshift', 's', 'i', 'g', 'm', 'a', 'r', 'space', 'lshift', 'b', 'backspace', 'lshift', 'g', 'a', 'b', 'r', 'i', 'e', 'l', 'return']","[0.46696958421262025, 0.5337470248214231, 0.6836921724734566, 0.8000959114151556, 0.8669189019265104, 0.9668351799218726, 1.1501093839215173, 1.299880030537679, 1.4665949202235424, 1.7163203377108402, 2.1830105278013434, 2.366255862144044, 2.4489324642495376, 2.8660730209849135, 3.0493392056350785, 3.1659017276883787, 3.865644466970025, 3.9986999031261803, 4.098802871568296, 4.382164646860019]",2017_Feb_09_1224,59.9933799559,famFaceGrey,001,16,
211,./greyInner/notfamousface10_4_cut.png,0,165,165,210,,,2.nein,2.08,None,None,None,None,None,polit,1.749,None,,['return'],[0.6169997369656812],2017_Feb_09_1224,59.9933799559,famFaceGrey,001,16,
32,./greyInner/BritneySpears14_2_cut.png,0,166,166,31,,,1.ja,1.078,None,None,None,music,1.677,None,None,None,Britney Spears,"['lshift', 'b', 'r', 'i', 't', 'h', 'm', 'backspace', 'backspace', 'n', 'e', 'y', 'space', 'lshift', 's', 'p', 'e', 'a', 'r', 's', 'return']","[0.5835269738827265, 0.6500542107996807, 0.866657150372248, 1.0499111456119863, 1.1498643126133175, 1.2998213289024534, 1.5164643652205996, 1.8829149371604217, 1.9994646282552822, 2.2995477087115432, 2.432622391305813, 2.616216727720712, 2.7823991326272335, 2.882061357643579, 2.999121079340057, 3.1656303529157412, 3.315730434392208, 3.615282954713166, 3.831970578612072, 3.9653727714230627, 4.26520244044832]",2017_Feb_09_1224,59.9933799559,famFaceGrey,001,16,
194,./greyInner/TomCruise6_1_cut.png,0,167,167,193,,,1.ja,1.04,None,act,0.463,None,None,None,None,None,Tom Cruise,"['lshift', 't', 'o', 'm', 'space', 'lshift', 'c', 'r', 'u', 'o', 'backspace', 'i', 's', 'e', 'return']","[0.6008195774766136, 0.6842204871913964, 0.8341220095844619, 1.0173477767157237, 1.2004869348766078, 1.2838625034482902, 1.4338628242221603, 1.950278111026364, 2.0670744772987746, 2.216811442648577, 2.633319112354002, 2.850078268847028, 2.932816459553578, 3.016625714523798, 3.1330942498057084]",2017_Feb_09_1224,59.9933799559,famFaceGrey,001,16,
5,./greyInner/AlysonHannigan(Lily)8_3_cut.png,0,168,168,4,,,1.ja,2.708,None,act,7.18,None,None,None,None,None,,['return'],[2.399506008096523],2017_Feb_09_1224,59.9933799559,famFaceGrey,001,16,
111,./greyInner/JoshRadnor(Ted)1_2_cut.png,0,169,169,110,,,2.nein,3.366,None,act,1.041,None,None,None,None,None,,['return'],[0.5502623931024573],2017_Feb_09_1224,59.9933799559,famFaceGrey,001,16,
212,./greyInner/notfamousface11_1_cut.png,0,170,170,211,,,2.nein,5.482,None,dummy,1.034,None,None,None,None,None,,['return'],[0.5835000288698211],2017_Feb_09_1224,59.9933799559,famFaceGrey,001,16,
61,./greyInner/EmilyDeschanel15_1_cut.png,0,171,171,60,,,1.ja,3.259,None,dummy,1.861,None,None,None,None,None,Brooke Shields,"['lshift', 'b', 'r', 'o', 'o', 'k', 'e', 'space', 'lshift', 's', 'h', 'i', 'e', 'l', 's', 'backspace', 'd', 's', 'return']","[0.6001408197698765, 0.6999387321729955, 0.933433307885025, 1.8328889544691265, 1.9995066496439904, 2.2661012490939356, 3.248986995823543, 3.415685526037123, 3.548882423511259, 3.5655485555548694, 3.7654228121609776, 3.9318008891855243, 4.0319946366594195, 4.165286162452503, 4.331689259845916, 4.848403507984131, 4.948272311432902, 5.0315968769446044, 5.448165493703073]",2017_Feb_09_1224,59.9933799559,famFaceGrey,001,16,
6,./greyInner/AngelaMerkel1_1_cut.png,0,172,172,5,,,1.ja,1.021,None,None,None,None,None,polit,0.777,None,Angela Merkel,"['lshift', 'a', 'n', 'g', 'e', 'l', 'a', 'space', 'lshift', 'm', 'e', 'r', 'k', 'e', 'l', 'return']","[0.5168098387789541, 0.5999599032543301, 0.7168316514084836, 0.8002152393291908, 0.8668502562982212, 0.9500076985750638, 1.116696605569814, 1.3499550916449152, 1.4830958536758772, 1.6166937186039831, 1.733099061415487, 1.8163366971830328, 1.8662571452400698, 1.9996503563797887, 2.182900502331904, 2.616252654404434]",2017_Feb_09_1224,59.9933799559,famFaceGrey,001,16,
115,./greyInner/JoshRadnor(Ted)9_1_cut.png,0,173,173,114,,,2.nein,3.478,None,act,1.963,None,None,None,None,None,,['return'],[0.5672034284325491],2017_Feb_09_1224,59.9933799559,famFaceGrey,001,16,
145,./greyInner/MariskaHargitay(Liv)8_8_cut.png,0,174,174,144,,,2.nein,2.659,None,dummy,0.644,None,None,None,None,None,,['return'],[0.5337944993680139],2017_Feb_09_1224,59.9933799559,famFaceGrey,001,16,
109,./greyInner/JoachimLoew4_1_cut.png,0,175,175,108,,,1.ja,1.093,None,None,None,None,None,sport,0.944,None,Jogi Löw,"['lshift', 'j', 'o', 'g', 'i', 'space', 'lshift', 'l', u'\xf6', 'w', 'return']","[0.6666844161595691, 0.733502595061509, 0.8834050797768214, 1.2165769568819087, 1.3333197539022876, 1.4998168380670904, 1.6333053190742248, 1.749711303433287, 2.7827529463088467, 3.249160213763844, 3.549034791144095]",2017_Feb_09_1224,59.9933799559,famFaceGrey,001,16,
142,./greyInner/MariskaHargitay(Liv)14_1_cut.png,0,176,176,141,,,2.nein,2.2,None,act,0.679,None,None,None,None,None,,['return'],[0.5837527987528119],2017_Feb_09_1224,59.9933799559,famFaceGrey,001,16,
