num,pic,trials.thisRepN,trials.thisTrialN,trials.thisN,trials.thisIndex,key_resp_2.keys,key_resp_2.rt,ratingBekannt.response,ratingBekannt.rt,key_resp_5.keys,ratingK1.response,ratingK1.rt,ratingK2.response,ratingK2.rt,ratingK3.response,ratingK3.rt,key_resp_6.keys,inputText,key_resp_4.keys,key_resp_4.rt,date,frameRate,expName,session,participant,
,,,,,,space,84.5617521957,,,,,,,,,,,,,,2017_Feb_09_1443,60.0085081317,famFaceGrey,001,17,
200,./greyInner/UrsulavonderLeyen8_2_cut.png,0,0,0,199,,,1.ja,10.406,None,act,12.319,None,None,None,None,None,,['return'],[9.14661583468478],2017_Feb_09_1443,60.0085081317,famFaceGrey,001,17,
53,./greyInner/DannFlorek(DonaldDonCragen)2_1_cut.png,0,1,1,52,,,2.nein,8.274,None,None,None,None,None,polit,6.125,None,,['return'],[3.2493613390379323],2017_Feb_09_1443,60.0085081317,famFaceGrey,001,17,
149,./greyInner/MilaKunis5_2_cut.png,0,2,2,148,,,1.ja,2.843,None,act,1.81,None,None,None,None,None,mila kunis,"['less', 'm', 'i', 'l', 'a', 'space', 'less', 'less', 'k', 'u', 'n', 'i', 's', 'return']","[7.164058239719452, 7.297288497686168, 8.413338743719578, 8.680009366598824, 8.79677365547468, 8.946608777658184, 9.513073784426524, 9.763031442264037, 9.979379366533976, 10.212693346506057, 10.945755198141342, 11.245420951670894, 11.362184599000102, 13.144955508651037]",2017_Feb_09_1443,60.0085081317,famFaceGrey,001,17,
191,./greyInner/TomCruise1_1_cut.png,0,3,3,190,,,2.nein,23.736,None,None,None,None,None,sport,4.062,None,,['return'],[2.032988394397762],2017_Feb_09_1443,60.0085081317,famFaceGrey,001,17,
165,./greyInner/OmarEpps(DrEricForeman)9_1_cut.png,0,4,4,164,,,2.nein,16.59,None,None,None,None,None,sport,2.495,None,,['return'],[2.183005074644825],2017_Feb_09_1443,60.0085081317,famFaceGrey,001,17,
46,./greyInner/CristinMilioti(Tracy_Mutter)10_1_cut.png,0,5,5,45,,,2.nein,16.503,None,act,3.527,None,None,None,None,None,,['return'],[1.3830047538704093],2017_Feb_09_1443,60.0085081317,famFaceGrey,001,17,
123,./greyInner/KaleyCuoco(Penny)3_1_cut.png,0,6,6,122,,,1.ja,7.843,None,act,21.387,None,None,None,None,None,Film Eheman meiner Freundin,"['lshift', 'f', 'i', 'l', 'm', 'space', 'lshift', '2', 'lshift', 'e', 'h', 'e', 'm', 'a', 'n', 'space', 'm', 'e', 'i', 'n', 'e', 'r', 'space', 'less', 'f', 'backspace', 'lshift', 'f', 'r', 'e', 'u', 'n', 'd', 'i', 'n', 'return']","[69.55467592206514, 69.72137156531244, 70.13789976455155, 71.13749206084503, 71.47053209985097, 71.70387751567068, 72.15367350342967, 72.43672605261963, 74.55270123754599, 74.93589364418585, 75.83546220320386, 75.95204236782592, 76.18527102192274, 76.30189128328857, 76.41862894792575, 76.55185792279553, 77.05173474559524, 77.20152078936007, 77.31830496622206, 77.56805251711376, 77.65133538201007, 77.80128598281954, 77.9177958979435, 78.20113938911891, 78.96754569425138, 79.7505283147184, 80.00042021389163, 80.16700390702681, 80.50027490328648, 80.7999608655773, 81.49986270874433, 81.71641143751731, 81.88291974877029, 82.2327144534338, 82.58267788520243, 88.31355173763222]",2017_Feb_09_1443,60.0085081317,famFaceGrey,001,17,
132,./greyInner/LeonardoDiCaprio2_1_cut.png,0,7,7,131,,,1.ja,4.474,None,act,1.661,None,None,None,None,None,Leonardo di Kaprio,"['lshift', 'l', 'e', 'o', 'n', 'a', 'r', 'd', 'o', 'space', 'd', 'i', 'space', 'lshift', 'k', 'a', 'p', 'r', 'i', 'o', 'return']","[2.032866179517441, 2.16582666657996, 2.4158026085333404, 3.2989648624188703, 3.79879934305427, 3.8816353698202875, 4.148527326733529, 4.7649519159822376, 5.031481398316828, 5.131397997087333, 5.264879741840559, 6.081012747556088, 6.21442039352587, 6.347508869399462, 6.464357842602112, 6.880760619222201, 7.030737202721866, 7.497246797071057, 7.61384781200104, 7.780339443008415, 8.463476355751482]",2017_Feb_09_1443,60.0085081317,famFaceGrey,001,17,
109,./greyInner/JoachimLoew4_1_cut.png,0,8,8,108,,,1.ja,13.904,None,None,None,music,1.075,None,None,None,Beatles,"['lshift', 'b', 'e', 'a', 't', 'l', 'e', 's', 'return']","[6.180876739395899, 6.381035522508682, 6.547335651459434, 6.764149660299154, 7.030741052009034, 7.230803923706844, 7.3305867597337055, 8.946383594335202, 10.029533979584812]",2017_Feb_09_1443,60.0085081317,famFaceGrey,001,17,
63,./greyInner/EmilyDeschanel5_1_cut.png,0,9,9,62,,,2.nein,8.957,None,None,None,host,10.157,None,None,None,,['return'],[1.0495733706284227],2017_Feb_09_1443,60.0085081317,famFaceGrey,001,17,
22,./greyInner/BenedictCumberbatch2_2_cut.png,0,10,10,21,,,1.ja,4.007,None,act,1.393,None,None,None,None,None,Benedikt Kumberbertsch Sherlock,"['lshift', 'b', 'e', 'n', 'e', 'd', 'i', 'k', 't', 'space', 'lshift', 'k', 'u', 'm', 'b', 'e', 'r', 'b', 'e', 'r', 't', 'c', 'h', 'backspace', 'backspace', 's', 'c', 'h', 'space', 'lshift', '8', 'lshift', 's', 'h', 'e', 'r', 'l', 'o', 'c', 'k', 'return']","[1.4999146741265577, 1.5831686693654774, 1.8165464833546139, 2.066397965010765, 2.1497388899933867, 3.050981568327188, 3.2157984384721203, 3.732453664200875, 3.865646712387388, 4.015348392602391, 4.7981953256821726, 4.9985039102339215, 5.265018636966488, 5.548122189218702, 5.8480650914534635, 5.948022428516197, 6.081367523560402, 6.681249157967613, 6.864387353807615, 7.047574307289324, 7.414210286578964, 7.797329877528682, 7.8973911453558685, 9.713020535949909, 9.946232509799302, 10.129576642522807, 10.296255284751169, 10.479354987714032, 10.762773860771631, 11.962172409590494, 12.09540106368695, 14.144584052401115, 14.427930109768567, 14.594118288607206, 14.794381002482623, 15.527487120925798, 15.827177253277114, 16.22722857711051, 16.42705054756152, 17.543176817023777, 18.59280953083544]",2017_Feb_09_1443,60.0085081317,famFaceGrey,001,17,
41,./greyInner/CobieSmulders(Robin)12_1_cut.png,0,11,11,40,,,2.nein,21.501,None,act,4.508,None,None,None,None,None,,['return'],[1.782995772198774],2017_Feb_09_1443,60.0085081317,famFaceGrey,001,17,
73,./greyInner/GuentherJauch4_1_cut.png,0,12,12,72,,,2.nein,5.742,None,None,None,None,None,polit,13.556,None,,['return'],[1.1501568584681081],2017_Feb_09_1443,60.0085081317,famFaceGrey,001,17,
158,./greyInner/NicoleKidman5_1_cut.png,0,13,13,157,,,1.ja,4.591,None,act,1.193,None,None,None,None,None,Nikol Kidman,"['lshift', 'n', 'o', 'backspace', 'i', 'c', 'backspace', 'k', 'o', 'l', 'e', 'backspace', 'space', 'lshift', 'k', 'i', 'd', 'm', 'a', 'n', 'return']","[1.53291269174224, 1.6162263509395416, 1.8662661269099772, 2.182603144867244, 2.8159036523320538, 3.049142250420118, 3.5988535538544966, 3.9487236403983843, 4.931728715042482, 5.1314804359954, 5.231550364718714, 6.297753619934156, 8.463463845566366, 8.879823638473681, 9.146583436515357, 9.363119975876543, 9.846354724679259, 10.246082387584465, 10.595976211401648, 10.762586849550644, 12.045354872234384]",2017_Feb_09_1443,60.0085081317,famFaceGrey,001,17,
10,./greyInner/AngelaMerkel6_1_cut.png,0,14,14,9,,,2.nein,23.986,None,None,None,host,6.856,None,None,None,,['return'],[1.3164983672595554],2017_Feb_09_1443,60.0085081317,famFaceGrey,001,17,
125,./greyInner/KaleyCuoco(Penny)7_1_cut.png,0,15,15,124,,,1.ja,12.588,None,act,2.026,None,None,None,None,None,,['return'],[28.6383459611352],2017_Feb_09_1443,60.0085081317,famFaceGrey,001,17,
6,./greyInner/AngelaMerkel1_1_cut.png,0,16,16,5,,,1.ja,2.844,None,None,None,None,None,polit,1.277,None,Angela Merkel,"['lshift', 'a', 'n', 'g', 'e', 'l', 'a', 'space', 'less', 'comma', 'lshift', 'm', 'e', 'r', 'k', 'e', 'l', 'return']","[0.9336456602486578, 1.1668823336949572, 1.5499441853298777, 1.7668117634220835, 1.9499242973452056, 2.3330259249523806, 2.482990639815398, 2.74951627286282, 2.8661365342304634, 2.9995268584043515, 4.032030884116466, 4.315571651281061, 4.698899745306335, 4.815339090157067, 5.598398375601391, 5.7316635979295825, 5.915033071794824, 6.648064449904268]",2017_Feb_09_1443,60.0085081317,famFaceGrey,001,17,
169,./greyInner/RobertSeanLeonard(Wilson)2_6_cut.png,0,17,17,168,,,2.nein,4.428,None,dummy,2.298,None,None,None,None,None,,['return'],[1.1168938815571892],2017_Feb_09_1443,60.0085081317,famFaceGrey,001,17,
76,./greyInner/GeorgeClooney11_1_cut.png,0,18,18,75,,,1.ja,4.512,None,act,1.047,None,None,None,None,None,George Kluni,"['lshift', 'lshift', 'g', 'e', 'o', 'r', 'g', 'e', 'space', 'lshift', 'k', 'l', 'u', 'n', 'i', 'return']","[1.5164483265216404, 1.699711624207339, 3.248988278919569, 4.365348071827611, 4.715172287695168, 4.881857986951218, 5.0982751983974595, 5.231368485881831, 5.381590461465748, 6.8309267801341775, 7.080745863619086, 7.347443110737004, 7.530523888037351, 8.113783977982166, 8.280213058065783, 9.529770710771118]",2017_Feb_09_1443,60.0085081317,famFaceGrey,001,17,
208,./greyInner/WillSmith4_1_cut.png,0,19,19,207,,,1.ja,3.89,None,act,8.539,None,None,None,None,None,,['return'],[8.696700519012666],2017_Feb_09_1443,60.0085081317,famFaceGrey,001,17,
166,./greyInner/RobertSeanLeonard(Wilson)1_1_cut.png,0,20,20,165,,,2.nein,4.903,None,act,12.186,None,None,None,None,None,,['return'],[0.9334990665483929],2017_Feb_09_1443,60.0085081317,famFaceGrey,001,17,
118,./greyInner/JudithRakers4_3_cut.png,0,21,21,117,,,2.nein,20.088,None,None,None,host,9.708,None,None,None,,['return'],[1.533361133742801],2017_Feb_09_1443,60.0085081317,famFaceGrey,001,17,
153,./greyInner/NeilPatrickHarris(Barney)13_4_cut.png,0,22,22,152,,,1.ja,11.971,None,act,0.96,None,None,None,None,None,,['return'],[22.324133749911198],2017_Feb_09_1443,60.0085081317,famFaceGrey,001,17,
206,./greyInner/WillSmith1_1_cut.png,0,23,23,205,,,1.ja,5.429,None,None,None,music,1.179,None,None,None,,['return'],[2.682670507399962],2017_Feb_09_1443,60.0085081317,famFaceGrey,001,17,
106,./greyInner/JoachimLoew1_1_cut.png,0,24,24,105,,,1.ja,8.449,None,None,None,music,3.385,None,None,None,,['return'],[1.63314461131813],2017_Feb_09_1443,60.0085081317,famFaceGrey,001,17,
161,./greyInner/OmarEpps(DrEricForeman)1_5_cut.png,0,25,25,160,,,2.nein,4.447,None,None,None,music,6.762,None,None,None,,['return'],[1.083376530894384],2017_Feb_09_1443,60.0085081317,famFaceGrey,001,17,
35,./greyInner/BritneySpears8_5_cut.png,0,26,26,34,,,2.nein,8.121,None,dummy,2.338,None,None,None,None,None,,['return'],[2.3826666581135214],2017_Feb_09_1443,60.0085081317,famFaceGrey,001,17,
154,./greyInner/NeilPatrickHarris(Barney)2_2_cut.png,0,27,27,153,,,2.nein,8.976,None,act,22.72,None,None,None,None,None,,['return'],[1.0837845553742227],2017_Feb_09_1443,60.0085081317,famFaceGrey,001,17,
129,./greyInner/KatjaBurkard5_3_cut.png,0,28,28,128,,,2.nein,11.082,None,None,None,music,3.218,None,None,None,,['return'],[1.5335032366092491],2017_Feb_09_1443,60.0085081317,famFaceGrey,001,17,
1,./greyInner/AlysonHannigan(Lily)1_1_cut.png,0,29,29,0,,,1.ja,7.095,None,act,1.346,None,None,None,None,None,,['return'],[1.199883559051159],2017_Feb_09_1443,60.0085081317,famFaceGrey,001,17,
173,./greyInner/SahraWagenknecht5_1_cut.png,0,30,30,172,,,2.nein,10.157,None,None,None,music,3.777,None,None,None,,['return'],[2.816257786787901],2017_Feb_09_1443,60.0085081317,famFaceGrey,001,17,
159,./greyInner/NicoleKidman7_1_cut.png,0,31,31,158,,,1.ja,2.912,None,act,1.463,None,None,None,None,None,Nicole Kidman,"['lshift', 'n', 'i', 'c', 'o', 'l', 'e', 'space', 'less', 'lshift', 'k', 'i', 'd', 'm', 'a', 'n', 'return']","[1.383111892373563, 1.4999807535623404, 2.1161852918721706, 2.3328799727969454, 2.499488044753889, 3.215888896729666, 3.299102795223007, 3.4824658536108473, 3.5657297928428306, 4.1654747775428405, 4.481982768022135, 5.415041732692771, 5.5151517581616645, 5.864796340609246, 5.981376184457986, 6.081236968557278, 7.3642430055224395]",2017_Feb_09_1443,60.0085081317,famFaceGrey,001,17,
214,./greyInner/notfamousface1_2_cut.png,0,32,32,213,,,1.ja,10.567,None,act,3.388,None,None,None,None,None,,['return'],[1.833251429046868],2017_Feb_09_1443,60.0085081317,famFaceGrey,001,17,
66,./greyInner/EmmaWatson(HermioneGranger)11_2_cut.png,0,33,33,65,,,1.ja,3.278,None,act,1.478,None,None,None,None,None,Emma Watson,"['lshift', 'e', 'm', 'm', 'a', 'space', 'less', 'w', 'a', 't', 'backspace', 'backspace', 'backspace', 'lshift', 'w', 'a', 't', 's', 'o', 'n', 'return']","[1.616303336691999, 1.8163780770246376, 2.099468477543269, 2.2662831279321836, 2.4491637422779604, 2.665943428304672, 3.648683543655352, 4.098701827770128, 4.6651142276095925, 4.898437510024451, 5.448258838927359, 5.631484606057711, 5.781271612146156, 6.181175379957494, 6.597699729909436, 6.964151264170141, 7.663924476979446, 7.880569758714046, 8.030403918575757, 8.213523830298072, 9.246522168688898]",2017_Feb_09_1443,60.0085081317,famFaceGrey,001,17,
85,./greyInner/HughLaurie(DrHouse)9_2_cut.png,0,34,34,84,,,1.ja,3.34,None,act,1.219,None,None,None,None,None,Hew Loury  Doctor Haus,"['lshift', 'h', 'e', 'w', 'space', 'lshift', 'l', 'o', 'u', 'r', 'z', 'backspace', 'y', 'space', 'lshift', '8', 'space', 'lshift', 'd', 'o', 'c', 't', 'o', 'r', 'space', 'lshift', 'h', 'a', 'u', 's', 'return']","[5.41499105040748, 7.280959178306148, 13.761524125409778, 13.961460612164956, 15.793700320133212, 16.410379924682275, 16.676924483394032, 17.160020978617467, 17.293325335369445, 17.50966973112736, 17.643268558378622, 18.276187665600446, 19.6423893169449, 20.225283083023896, 20.991708955367358, 21.358342368466765, 24.290457295363012, 26.20614089675655, 26.47284231393496, 27.505651074914567, 27.588952544700078, 27.839005151630772, 27.938989754480644, 28.255436156357973, 28.40535435899801, 28.755132704189236, 29.088440268680642, 29.355033585034107, 29.47169554701577, 29.63808485112895, 30.90436445054729]",2017_Feb_09_1443,60.0085081317,famFaceGrey,001,17,
187,./greyInner/TaylorSwift2_1_cut.png,0,35,35,186,,,1.ja,5.509,None,None,None,music,3.143,None,None,None,,['return'],[2.5658471961141913],2017_Feb_09_1443,60.0085081317,famFaceGrey,001,17,
50,./greyInner/CristinMilioti(Tracy_Mutter)9_1_cut.png,0,36,36,49,,,2.nein,10.565,None,None,None,None,None,sport,13.564,None,,['return'],[0.9499348828849179],2017_Feb_09_1443,60.0085081317,famFaceGrey,001,17,
144,./greyInner/MariskaHargitay(Liv)6_5_cut.png,0,37,37,143,,,1.ja,8.919,None,act,0.851,None,None,None,None,None,,['return'],[0.8499313543725293],2017_Feb_09_1443,60.0085081317,famFaceGrey,001,17,
65,./greyInner/EmilyDeschanel8_3_cut.png,0,38,38,64,,,1.ja,8.318,None,None,None,host,1.194,None,None,None,,['return'],[1.5334865563636413],2017_Feb_09_1443,60.0085081317,famFaceGrey,001,17,
168,./greyInner/RobertSeanLeonard(Wilson)11_2_cut.png,0,39,39,167,,,1.ja,3.078,None,act,0.844,None,None,None,None,None,,['return'],[1.1664470434279792],2017_Feb_09_1443,60.0085081317,famFaceGrey,001,17,
177,./greyInner/Shakira2_1_cut.png,0,40,40,176,,,2.nein,27.519,None,act,3.828,None,None,None,None,None,,['return'],[1.3833543974906206],2017_Feb_09_1443,60.0085081317,famFaceGrey,001,17,
26,./greyInner/Beyonce1_1_cut.png,0,41,41,25,,,2.nein,7.563,None,dummy,0.407,None,None,None,None,None,,['return'],[2.7494838746933965],2017_Feb_09_1443,60.0085081317,famFaceGrey,001,17,
213,./greyInner/notfamousface12_2_cut.png,0,42,42,212,,,2.nein,7.766,None,None,None,None,None,sport,3.802,None,,['return'],[0.9332501459521154],2017_Feb_09_1443,60.0085081317,famFaceGrey,001,17,
7,./greyInner/AngelaMerkel3_1_cut.png,0,43,43,6,,,1.ja,2.52,None,None,None,None,None,polit,1.986,None,Angela Merkel,"['lshift', 'a', 'n', 'g', 'e', 'l', 'a', 'space', 'less', 'lshift', 'm', 'e', 'r', 'k', 'e', 'l', 'return']","[1.3498126680060523, 1.499614108923197, 1.866294034245584, 2.0495133858985355, 2.2325986540326994, 2.482538348527669, 2.6492695976849063, 2.832514290479594, 3.032317656041414, 4.0653307500342635, 4.248520911254673, 4.964944217408629, 5.098332937712257, 5.381226062243513, 5.464652633874721, 5.598112245224911, 6.081259743508781]",2017_Feb_09_1443,60.0085081317,famFaceGrey,001,17,
140,./greyInner/LisaEdelstein(DrLisaCuddy)9_1_cut.png,0,44,44,139,,,2.nein,8.26,None,None,None,host,8.06,None,None,None,,['return'],[2.2328960114955407],2017_Feb_09_1443,60.0085081317,famFaceGrey,001,17,
188,./greyInner/TaylorSwift3_1_cut.png,0,45,45,187,,,1.ja,3.977,None,None,None,music,2.811,None,None,None,,['return'],[1.433471159212786],2017_Feb_09_1443,60.0085081317,famFaceGrey,001,17,
185,./greyInner/SigmarGabriel8_2_cut.png,0,46,46,184,,,2.nein,3.461,None,None,None,None,None,polit,0.895,None,,['return'],[1.2000253411424637],2017_Feb_09_1443,60.0085081317,famFaceGrey,001,17,
17,./greyInner/BastianSchweinsteiger12_1_cut.png,0,47,47,16,,,2.nein,2.613,None,None,None,None,None,polit,2.447,None,,['return'],[1.0500131517328555],2017_Feb_09_1443,60.0085081317,famFaceGrey,001,17,
134,./greyInner/LeonardoDiCaprio4_1_cut.png,0,48,48,133,,,1.ja,3.944,None,act,1.429,None,None,None,None,None,Leonardo di Kaprio,"['lshift', 'l', 'e', 'o', 'n', 'a', 'r', 'd', 'o', 'space', 'd', 'i', 'space', 'lshift', 'k', 'a', 'p', 'r', 'i', 'o', 'return']","[1.649941939913333, 1.816379360121573, 2.099846990820879, 2.2997029633115744, 2.6328976153672556, 2.74950023416568, 2.982781174418051, 3.232683338359493, 3.4326730735920137, 3.549083228013842, 3.7990508298425993, 3.915746152317297, 4.132370904519121, 4.6986832228813, 4.998673599662652, 5.414737318202242, 5.964783509652989, 6.331406978759333, 6.5479804071273975, 6.681076260802001, 7.564206116518108]",2017_Feb_09_1443,60.0085081317,famFaceGrey,001,17,
212,./greyInner/notfamousface11_1_cut.png,0,49,49,211,,,2.nein,5.782,None,act,0.985,None,None,None,None,None,,['return'],[1.1999746588571725],2017_Feb_09_1443,60.0085081317,famFaceGrey,001,17,
145,./greyInner/MariskaHargitay(Liv)8_8_cut.png,0,50,50,144,,,2.nein,7.082,None,None,None,host,4.588,None,None,None,,['return'],[1.21638096398965],2017_Feb_09_1443,60.0085081317,famFaceGrey,001,17,
33,./greyInner/BritneySpears5_1_cut.png,0,51,51,32,,,2.nein,7.377,None,None,None,None,None,sport,4.111,None,,['return'],[0.833697946405664],2017_Feb_09_1443,60.0085081317,famFaceGrey,001,17,
78,./greyInner/GeorgeClooney16_1_cut.png,0,52,52,77,,,2.nein,11.121,None,act,0.959,None,None,None,None,None,,['return'],[0.8832171062349516],2017_Feb_09_1443,60.0085081317,famFaceGrey,001,17,
79,./greyInner/GeorgeClooney3_1_cut.png,0,53,53,78,,,1.ja,2.329,None,act,1.163,None,None,None,None,None,george kluni,"['less', 'g', 'e', 'o', 'r', 'g', 'e', 'space', 'k', 'l', 'u', 'n', 'i', 'return']","[21.70805142648169, 21.791428278149397, 22.124416351773107, 22.44112418443183, 22.64091953064417, 23.25754845290794, 23.440608059125225, 23.573876168418792, 24.956729516978157, 25.20671604447307, 25.390068517319378, 25.723100536975835, 25.856184842788934, 26.50624033668464]",2017_Feb_09_1443,60.0085081317,famFaceGrey,001,17,
143,./greyInner/MariskaHargitay(Liv)4_4_cut.png,0,54,54,142,,,1.ja,8.608,None,None,None,music,1.061,None,None,None,,['return'],[0.9166956432472944],2017_Feb_09_1443,60.0085081317,famFaceGrey,001,17,
101,./greyInner/JimParsons(SheldonCooper)1_1_cut.png,0,55,55,100,,,2.nein,6.411,None,None,None,None,None,sport,3.08,None,,['return'],[1.2000301527514239],2017_Feb_09_1443,60.0085081317,famFaceGrey,001,17,
16,./greyInner/BastianSchweinsteiger1_1_cut.png,0,56,56,15,,,2.nein,5.59,None,None,None,None,None,sport,2.674,None,,['return'],[0.999946751522657],2017_Feb_09_1443,60.0085081317,famFaceGrey,001,17,
60,./greyInner/ElvisPresley6_1_cut.png,0,57,57,59,,,1.ja,9.842,None,None,None,music,1.561,None,None,None,Elvis Presley,"['less', 'lshift', 'e', 'l', 'v', 'i', 's', 'space', 'less', 'p', 'r', 'e', 'backspace', 'backspace', 'backspace', 'lshift', 'lshift', 'p', 'r', 'e', 's', 'l', 'e', 'y', 'return']","[1.2000866089711053, 1.39998588594608, 1.8329742803434783, 2.8160287541777507, 2.9827247182001884, 3.3324972894606617, 3.499080661820699, 3.6157779089389805, 3.8322085928939487, 3.9489991852351523, 4.265384640058983, 4.531921500196404, 4.931909631559392, 5.131847401409686, 5.498116094513534, 5.747966934619399, 6.297868457013465, 6.44862933285367, 6.6312645551188325, 6.797784735008463, 7.0641910401427594, 8.213716615449812, 8.61356649323534, 9.846442616746572, 10.679213205623455]",2017_Feb_09_1443,60.0085081317,famFaceGrey,001,17,
133,./greyInner/LeonardoDiCaprio3_1_cut.png,0,58,58,132,,,1.ja,2.115,None,act,0.866,None,None,None,None,None,Leonardo di Kaprio,"['lshift', 'l', 'e', 'o', 'n', 'a', 'r', 'd', 'o', 'space', 'd', 'i', 'space', 'lshift', 'k', 'a', 'p', 'r', 'i', 'o', 'return']","[0.9167559487541439, 1.183312376102549, 2.099307128239161, 2.3160605108005257, 2.53271188724284, 2.6493995111413824, 2.8658962745321332, 3.1658552154640347, 4.015520968994679, 4.132025110186078, 4.348725885818567, 4.465003560591867, 4.631950049079023, 5.115026335543007, 5.31499939052992, 6.331173134540222, 6.730915873820777, 6.964144848690921, 7.047609271650799, 7.1807317495658936, 7.597378955944805]",2017_Feb_09_1443,60.0085081317,famFaceGrey,001,17,
23,./greyInner/BenedictCumberbatch3_9_cut.png,0,59,59,22,,,1.ja,2.239,None,act,1.0,None,None,None,None,None,Benedikt Kumberbetsch,"['lshift', 'b', 'e', 'n', 'e', 'd', 'i', 'k', 't', 'space', 'lshift', 'k', 'u', 'm', 'b', 'e', 'r', 'b', 'e', 't', 'c', 'h', 'backspace', 'backspace', 's', 'c', 'h', 'return']","[0.5837887254365342, 1.050136970483436, 1.2834172691873391, 1.450224541775242, 1.5326005786773749, 2.1664181737705803, 2.3996240529158968, 2.8161901034818584, 2.999292051863449, 3.1325508587124204, 3.515710867181042, 3.715669166565931, 3.9822865409660153, 4.41534133557434, 4.665297389541593, 4.715343580992339, 4.848658523285849, 5.464953519853225, 5.564771320241562, 5.798274877624863, 6.164715184799206, 6.248062204487724, 7.180778582564017, 7.414097374145058, 8.163881814041815, 8.297133563863099, 8.896968686045511, 9.463338422947345]",2017_Feb_09_1443,60.0085081317,famFaceGrey,001,17,
141,./greyInner/MariskaHargitay(Liv)13_1_cut.png,0,60,60,140,,,2.nein,11.925,None,None,None,host,2.878,None,None,None,,['return'],[0.9999679226039007],2017_Feb_09_1443,60.0085081317,famFaceGrey,001,17,
151,./greyInner/NeilPatrickHarris(Barney)1_1_cut.png,0,61,61,150,,,1.ja,4.86,None,act,0.728,None,None,None,None,None,,['return'],[1.066860521064882],2017_Feb_09_1443,60.0085081317,famFaceGrey,001,17,
83,./greyInner/HughLaurie(DrHouse)5_3_cut.png,0,62,62,82,,,1.ja,2.694,None,act,1.661,None,None,None,None,None,Hew Loury,"['lshift', 'h', 'e', 'w', 'space', 'lshift', 'l', 'o', 'u', 'r', 'y', 'space', 'lshift', 'd', 'o', 'c', 't', 'o', 'h', 'backspace', 'r', 'space', 'lshift', 'h', 'o', 'u', 's', 'e', 'backspace', 'backspace', 'backspace', 'backspace', 'backspace', 'backspace', 'backspace', 'backspace', 'backspace', 'backspace', 'backspace', 'backspace', 'backspace', 'return']","[1.7164547420015879, 1.8166321300031996, 2.1663200169368793, 2.316357868265186, 2.4662151238517254, 3.4491926119335403, 3.782481892309079, 4.065445587113572, 4.365517440481199, 4.715423774483497, 5.43168605210667, 5.831444188537716, 6.381263272023716, 6.8310220500025025, 7.014396656251847, 7.481003445112947, 7.7307490713592415, 7.813964573722842, 8.197245513976668, 8.5970572196602, 8.74690645589726, 8.896747031236373, 9.046780712504187, 9.28007223829627, 11.162772898449475, 11.346055442572833, 11.412562470730336, 11.562443463588352, 12.695281735772369, 12.928153368447965, 13.095289755121485, 13.311854843366746, 13.761568071442525, 14.72782329203983, 15.19433449025746, 15.544312036081465, 15.76056244506799, 15.910702302515347, 16.077386077127812, 16.243940259057126, 16.427176932502334, 17.293375055332945]",2017_Feb_09_1443,60.0085081317,famFaceGrey,001,17,
146,./greyInner/MilaKunis1_3_cut.png,0,63,63,145,,,1.ja,18.435,None,dummy,0.737,None,None,None,None,None,Mila Kunis,"['lshift', 'm', 'i', 'l', 'a', 'space', 'lshift', 'k', 'u', 'n', 'i', 's', 'return']","[0.6337762152506912, 0.9502332026713702, 1.1833762101196044, 1.350136649707565, 1.4335070858960535, 1.5667723082242446, 1.900240901246434, 2.0664797623703635, 2.299780911382186, 2.7496099388590665, 2.9328129310397344, 3.066186895741339, 3.399235595645223]",2017_Feb_09_1443,60.0085081317,famFaceGrey,001,17,
139,./greyInner/LisaEdelstein(DrLisaCuddy)6_3_cut.png,0,64,64,138,,,2.nein,6.005,None,None,None,host,1.342,None,None,None,,['return'],[1.4164788000489352],2017_Feb_09_1443,60.0085081317,famFaceGrey,001,17,
25,./greyInner/BenedictCumberbatch6_5_cut.png,0,65,65,24,,,1.ja,2.249,None,act,1.253,None,None,None,None,None,Benedikt Kumberbetsch,"['lshift', 'b', 'e', 'n', 'e', 'd', 'i', 'k', 't', 'space', 'lshift', 'k', 'u', 'm', 'b', 'e', 'r', 'b', 'e', 't', 's', 'c', 'h', 'return']","[0.866931091337392, 1.0669105618035246, 1.1834073251939117, 1.3334904056500818, 1.483373643928644, 1.833280298704267, 1.983173801749217, 2.8158892175033543, 2.982769305781403, 3.149277617034386, 3.249303278951629, 3.415986091240484, 3.6490453766855353, 4.448633823689306, 4.682092472718068, 4.748704073188492, 4.8819044991760165, 5.18136624046565, 5.415141172621588, 5.881639539882599, 6.130685558115147, 6.2474081463751645, 6.398025636255625, 7.664040276378728]",2017_Feb_09_1443,60.0085081317,famFaceGrey,001,17,
3,./greyInner/AlysonHannigan(Lily)14_2_cut.png,0,66,66,2,,,1.ja,9.208,None,act,1.096,None,None,None,None,None,American Pie,"['lshift', 'a', 'm', 'e', 'r', 'i', 'c', 'a', 'n', 'space', 'lshift', 'p', 'i', 'e', 'return']","[0.7339484708700184, 1.0835519942520477, 1.3670103225067578, 1.5168223489636148, 1.6668621249355056, 1.9001093839215173, 2.083324244737014, 2.249356527428972, 2.4502271079654747, 2.549787647636549, 2.8664242684753845, 2.982749417795276, 3.116328677833735, 3.3661737440088473, 4.548870234100832]",2017_Feb_09_1443,60.0085081317,famFaceGrey,001,17,
47,./greyInner/CristinMilioti(Tracy_Mutter)2_1_cut.png,0,67,67,46,,,2.nein,5.927,None,None,None,None,None,sport,6.493,None,,['return'],[1.3666279599419795],2017_Feb_09_1443,60.0085081317,famFaceGrey,001,17,
157,./greyInner/NicoleKidman3_1_cut.png,0,68,68,156,,,1.ja,3.328,None,act,0.856,None,None,None,None,None,Nicole Kidman,"['lshift', 'n', 'i', 'c', 'o', 'l', 'e', 'space', 'lshift', 'k', 'i', 'd', 'm', 'a', 'n', 'pound', 'return']","[1.333255278335855, 1.4165586727649497, 1.666414966030061, 2.1994367209190386, 2.3328883129215683, 2.649385076310864, 2.7659899405280157, 2.8993667921949964, 2.999110814573214, 3.115867084099591, 3.9321255124359595, 4.248491720823949, 4.465315032108265, 4.598596934683883, 4.698673920434885, 4.915146305003873, 5.531509626425759]",2017_Feb_09_1443,60.0085081317,famFaceGrey,001,17,
167,./greyInner/RobertSeanLeonard(Wilson)10_1_cut.png,0,69,69,166,,,2.nein,2.518,None,act,1.088,None,None,None,None,None,,['return'],[0.7666885862217896],2017_Feb_09_1443,60.0085081317,famFaceGrey,001,17,
108,./greyInner/JoachimLoew15_1_cut.png,0,70,70,107,,,2.nein,9.493,None,None,None,music,9.292,None,None,None,,['return'],[1.0001501222141087],2017_Feb_09_1443,60.0085081317,famFaceGrey,001,17,
115,./greyInner/JoshRadnor(Ted)9_1_cut.png,0,71,71,114,,,2.nein,2.945,None,act,10.692,None,None,None,None,None,,['return'],[0.8671966921792773],2017_Feb_09_1443,60.0085081317,famFaceGrey,001,17,
48,./greyInner/CristinMilioti(Tracy_Mutter)4_2_cut.png,0,72,72,47,,,2.nein,2.094,None,None,None,music,3.693,None,None,None,,['return'],[0.7167944416287355],2017_Feb_09_1443,60.0085081317,famFaceGrey,001,17,
36,./greyInner/CarenMiosga1_1_cut.png,0,73,73,35,,,1.ja,11.406,None,None,None,music,6.409,None,None,None,,['return'],[0.8666549049557943],2017_Feb_09_1443,60.0085081317,famFaceGrey,001,17,
147,./greyInner/MilaKunis10_1_cut.png,0,74,74,146,,,1.ja,7.877,None,act,1.014,None,None,None,None,None,,['return'],[1.1833284147978702],2017_Feb_09_1443,60.0085081317,famFaceGrey,001,17,
142,./greyInner/MariskaHargitay(Liv)14_1_cut.png,0,75,75,141,,,2.nein,7.425,None,dummy,1.395,None,None,None,None,None,,['return'],[1.350059984730251],2017_Feb_09_1443,60.0085081317,famFaceGrey,001,17,
172,./greyInner/SahraWagenknecht2_2_cut.png,0,76,76,171,,,2.nein,33.58,None,act,0.97,None,None,None,None,None,,['return'],[0.8506909471161634],2017_Feb_09_1443,60.0085081317,famFaceGrey,001,17,
64,./greyInner/EmilyDeschanel6_12_cut.png,0,77,77,63,,,1.ja,4.003,None,act,1.853,None,None,None,None,None,,['return'],[1.0500413798417867],2017_Feb_09_1443,60.0085081317,famFaceGrey,001,17,
91,./greyInner/JanHofer1_3_cut.png,0,78,78,90,,,2.nein,3.545,None,None,None,None,None,polit,1.447,None,,['return'],[1.1832604107185034],2017_Feb_09_1443,60.0085081317,famFaceGrey,001,17,
152,./greyInner/NeilPatrickHarris(Barney)11_2_cut.png,0,79,79,151,,,2.nein,4.262,None,act,2.063,None,None,None,None,None,,['return'],[1.0332841479921626],2017_Feb_09_1443,60.0085081317,famFaceGrey,001,17,
113,./greyInner/JoshRadnor(Ted)6_2_cut.png,0,80,80,112,,,2.nein,3.445,None,None,None,None,None,sport,1.447,None,,['return'],[0.7835218414984411],2017_Feb_09_1443,60.0085081317,famFaceGrey,001,17,
184,./greyInner/SigmarGabriel4_5_cut.png,0,81,81,183,,,2.nein,4.477,None,None,None,None,None,polit,1.082,None,,['return'],[0.7501773880012479],2017_Feb_09_1443,60.0085081317,famFaceGrey,001,17,
29,./greyInner/Beyonce5_3_cut.png,0,82,82,28,,,1.ja,8.973,None,None,None,music,1.393,None,None,None,Beyonce,"['lshift', 'b', 'e', 'y', 'o', 'n', 'c', 'e', 'return']","[1.3663530566554982, 1.5330862304563198, 1.8664120790635934, 2.49927601316449, 3.0990626984785195, 3.2824584758109268, 3.5489741648652853, 3.6822300847488805, 5.664720317181491]",2017_Feb_09_1443,60.0085081317,famFaceGrey,001,17,
88,./greyInner/Ice-T(OdafinFinTutuola)5_1_cut.png,0,83,83,87,,,1.ja,4.412,None,dummy,0.913,None,None,None,None,None,,['return'],[1.2835699575934996],2017_Feb_09_1443,60.0085081317,famFaceGrey,001,17,
136,./greyInner/LisaEdelstein(DrLisaCuddy)1_1_cut.png,0,84,84,135,,,2.nein,4.062,None,None,None,host,1.196,None,None,None,,['return'],[0.8335776561671082],2017_Feb_09_1443,60.0085081317,famFaceGrey,001,17,
97,./greyInner/JasonSegel(Marshall)14_1_cut.png,0,85,85,96,,,1.ja,32.674,None,act,0.988,None,None,None,None,None,Film Bad teacher,"['lshift', 'f', 'i', 'l', 'comma', 'space', 'backspace', 'm', 'space', 'lshift', 'b', 'a', 'd', 'space', 't', 'e', 'a', 'c', 'h', 'r', 'backspace', 'e', 'r', 'return']","[0.916738306184925, 1.0665224253061751, 1.4996962270561198, 1.6664351747895125, 1.899373849222684, 2.1161317226196843, 2.465995072911028, 3.232324392292867, 3.5152807092945295, 3.8820539798416576, 4.04865146625707, 4.398499419397922, 4.698356033437449, 4.831762075535153, 5.498027560897754, 5.631419488941901, 5.864568911869355, 6.414287593102927, 6.581019483810451, 6.830879947136054, 7.546961308244136, 7.680433750552766, 7.797178472217638, 12.1953628915835]",2017_Feb_09_1443,60.0085081317,famFaceGrey,001,17,
82,./greyInner/HughLaurie(DrHouse)4_1_cut.png,0,86,86,81,,,1.ja,2.424,None,act,1.109,None,None,None,None,None,Hew Loury,"['lshift', 'h', 'e', 'w', 'space', 'lshift', 'l', 'o', 'u', 'r', 'y', 'return']","[0.7500744195604057, 1.0831847080644366, 1.3331167039832508, 1.433099382189539, 1.5664181737702165, 1.7993764154161909, 2.032973318022414, 2.5160598692527856, 2.699188441873048, 3.0989674286120135, 3.7155761421163334, 4.331763037858764]",2017_Feb_09_1443,60.0085081317,famFaceGrey,001,17,
104,./greyInner/JimParsons(SheldonCooper)8_1_cut.png,0,87,87,103,,,1.ja,3.792,None,dummy,0.676,None,None,None,None,None,,['return'],[0.9000288696570351],2017_Feb_09_1443,60.0085081317,famFaceGrey,001,17,
92,./greyInner/JanHofer3_1_cut.png,0,88,88,91,,,2.nein,4.762,None,None,None,None,None,polit,3.396,None,,['return'],[1.0666937186033465],2017_Feb_09_1443,60.0085081317,famFaceGrey,001,17,
38,./greyInner/CarenMiosga2_11_cut.png,0,89,89,37,,,1.ja,10.105,None,act,1.49,None,None,None,None,None,,['return'],[0.9666013357036718],2017_Feb_09_1443,60.0085081317,famFaceGrey,001,17,
131,./greyInner/LeonardoDiCaprio1_1_cut.png,0,90,90,130,,,1.ja,1.705,None,act,0.771,None,None,None,None,None,Leonardo di Kaprio,"['lshift', 'l', 'e', 'o', 'n', 'a', 'r', 'd', 'o', 'space', 'd', 'i', 'space', 'k', 'backspace', 'lshift', 'k', 'a', 'p', 'r', 'i', 'o', 'return']","[1.5494627036114252, 1.6831183078538743, 1.9496041649290419, 2.1326403546481743, 2.432667620434586, 2.51595176842784, 2.765824100390091, 3.298948502948406, 3.432296164184663, 3.548879536545428, 3.8321245501156227, 4.048615860348946, 4.148475361351302, 4.3319170093600405, 4.848341919383529, 4.914870760170743, 5.081576668184425, 5.647968859264438, 5.930997350407779, 6.114372277430448, 6.281058297459822, 6.3976461606562225, 6.780858134507071]",2017_Feb_09_1443,60.0085081317,famFaceGrey,001,17,
197,./greyInner/UrsulavonderLeyen4_1_cut.png,0,91,91,196,,,2.nein,6.577,None,act,5.761,None,None,None,None,None,,['return'],[0.7501433859615645],2017_Feb_09_1443,60.0085081317,famFaceGrey,001,17,
160,./greyInner/NicoleKidman8_2_cut.png,0,92,92,159,,,1.ja,25.551,None,dummy,0.71,None,None,None,None,None,junge Nicole Kidman??,"['j', 'u', 'n', 'g', 'e', 'space', 'lshift', 'n', 'i', 'c', 'o', 'l', 'e', 'space', 'lshift', 'k', 'i', 'd', 'm', 'a', 'n', 'lshift', 'minus', 'lshift', '1', '1', '1', 'backspace', 'backspace', 'space', 'u', 'b', 'e', 'r', 'backspace', 'backspace', 'backspace', 'backspace', 'backspace', 'lshift', 'minus', 'minus', 'minus', 'lshift', u'?', u'?', u'?', 'lshift', '1', '1', '1', 'backspace', 'backspace', 'lshift', '1', '1', 'lshift', 'minus', 'minus', 'backspace', 'return']","[1.0498720111881994, 1.2498457077235798, 1.3997488339864503, 1.5329681856383104, 1.7327628903003642, 1.7994752137947216, 2.0994296638928063, 2.2491008705801505, 2.6992388033850148, 2.8492076883103437, 2.965630994462117, 3.3823276000330225, 3.482047243589477, 3.615664354954788, 3.765223290754875, 3.8320591122246697, 4.06541800055129, 4.281878837258773, 5.0648659485596, 5.31492946180515, 5.46469433448874, 5.864507964817676, 5.9978116800211865, 6.764229533016987, 6.947425147394824, 7.147065880555601, 7.380332065205948, 8.330225568250171, 8.546862189088642, 9.746340289850195, 12.24516593637054, 13.011395495050238, 13.194871465871984, 13.3781039692567, 14.560897653858774, 14.927607731935495, 15.14410064603726, 15.310695566262439, 16.260012638493208, 17.076609162586465, 17.243234877110808, 17.54295452066617, 17.726411245052077, 19.79213975479979, 19.89192804398408, 20.108585835903796, 20.29158609893966, 22.42431274178307, 22.624232869065963, 22.890864357521423, 23.490541017366922, 24.073647135808642, 24.490190732198243, 24.723255470798904, 24.89003323218276, 25.439846220961044, 26.439242845135595, 26.639346775900776, 27.022372380077286, 27.8055432948604, 28.688328639340398]",2017_Feb_09_1443,60.0085081317,famFaceGrey,001,17,
11,./greyInner/BarackObama1_3_cut.png,0,93,93,10,,,1.ja,8.39,None,None,None,None,None,polit,1.474,None,Barac Obama,"['lshift', 'b', 'a', 'r', 'a', 'c', 'space', 'lshift', 'lshift', 'o', 'b', 'a', 'm', 'a', 'pound', 'return']","[0.8669974915464991, 1.0669310913363006, 1.2668573133250902, 1.6833701154137088, 1.9496952647332364, 2.21630622365592, 2.3831542345360504, 3.2159450321723853, 4.2655889730740455, 4.349005921487333, 4.615214309083967, 5.0152890494173334, 5.215248311124014, 5.314903479113127, 5.614642048332826, 6.148055147459672]",2017_Feb_09_1443,60.0085081317,famFaceGrey,001,17,
4,./greyInner/AlysonHannigan(Lily)5_4_cut.png,0,94,94,3,,,2.nein,7.781,None,None,None,None,None,sport,1.217,None,,['return'],[0.7000497199642268],2017_Feb_09_1443,60.0085081317,famFaceGrey,001,17,
193,./greyInner/TomCruise5_1_cut.png,0,95,95,192,,,1.ja,5.859,None,act,1.345,None,None,None,None,None,,['return'],[3.1324883077886625],2017_Feb_09_1443,60.0085081317,famFaceGrey,001,17,
121,./greyInner/KaleyCuoco(Penny)10_1_cut.png,0,96,96,120,,,1.ja,9.389,None,dummy,0.976,None,None,None,None,None,,['return'],[0.9835282569783885],2017_Feb_09_1443,60.0085081317,famFaceGrey,001,17,
89,./greyInner/Ice-T(OdafinFinTutuola)6_1_cut.png,0,97,97,88,,,2.nein,3.685,None,None,None,None,None,sport,0.988,None,,['return'],[0.7503534929073794],2017_Feb_09_1443,60.0085081317,famFaceGrey,001,17,
196,./greyInner/UrsulavonderLeyen1_1_cut.png,0,98,98,195,,,2.nein,33.134,None,None,None,host,0.747,None,None,None,,['return'],[1.5668050271688116],2017_Feb_09_1443,60.0085081317,famFaceGrey,001,17,
164,./greyInner/OmarEpps(DrEricForeman)5_2_cut.png,0,99,99,163,,,1.ja,2.095,None,dummy,1.431,None,None,None,None,None,,['return'],[1.9994514765239728],2017_Feb_09_1443,60.0085081317,famFaceGrey,001,17,
198,./greyInner/UrsulavonderLeyen5_1_cut.png,0,100,100,197,,,1.ja,6.673,None,None,None,host,3.624,None,None,None,,['return'],[0.9166895485432178],2017_Feb_09_1443,60.0085081317,famFaceGrey,001,17,
27,./greyInner/Beyonce11_2_cut.png,0,101,101,26,,,1.ja,4.027,None,None,None,music,0.794,None,None,None,Beyonce,"['lshift', 'b', 'e', 'z', 'backspace', 'y', 'o', 'o', 'backspace', 'n', 'c', 'e', 'return']","[1.1498492362370598, 1.2499842820743652, 1.48325591988214, 2.4826968108645815, 3.2491063237375784, 3.3990264510212, 3.8155081380355114, 3.8654696451594646, 4.465268199110142, 4.748501985590337, 4.915046865075055, 5.015159135962676, 5.264956406817873]",2017_Feb_09_1443,60.0085081317,famFaceGrey,001,17,
98,./greyInner/JasonSegel(Marshall)6_1_cut.png,0,102,102,97,,,1.ja,5.481,None,act,2.799,None,None,None,None,None,Film Bad Teacher Sportlehrer,"['lshift', 'f', 'i', 'l', 'm', 'space', 'lshift', 'b', 'a', 'd', 'space', 'lshift', 't', 'e', 'a', 'c', 'h', 'e', 'r', 'space', 'lshift', 's', 'p', 'o', 'r', 't', 'l', 'e', 'h', 'r', 'e', 'r', 'return']","[0.8499486761647859, 1.249831914441529, 1.4999461099741893, 1.966445439555173, 2.3328940868523205, 2.4660993244488054, 2.599515310541392, 2.76616380001542, 3.0991197962430306, 3.465818647231572, 3.61575770017771, 3.8821595144763705, 4.148685789070441, 4.465389130893527, 4.715298031089333, 4.998562611868692, 5.2483226729436865, 5.331520211966563, 5.914854079923316, 14.677739570033737, 15.09417955643221, 16.127115343901096, 16.460412002077646, 16.57679136219849, 16.677093210497333, 16.926832100491083, 17.6599077454066, 17.792735432049085, 17.959784568205578, 18.126306031192144, 18.27623931020753, 18.542779698856975, 19.159373015210804]",2017_Feb_09_1443,60.0085081317,famFaceGrey,001,17,
56,./greyInner/ElvisPresley1_1_cut.png,0,103,103,55,,,1.ja,2.406,None,None,None,music,0.691,None,None,None,Elvis Prestly,"['lshift', 'e', 'l', 'c', 'o', 'backspace', 'backspace', 'v', 'o', 's', 'space', 'backspace', 'backspace', 'backspace', 'i', 's', 'space', 'lshift', 'lshift', 'p', 'r', 'e', 's', 't', 'l', 'z', 'backspace', 'y', 'return']","[1.0331831041949044, 1.1999605448036164, 1.449771608939045, 1.8161362134560477, 1.9495278207268711, 2.282695206995413, 2.4493414510543516, 2.5826634503737296, 2.799089643493062, 2.9325739544383396, 3.1321996112219495, 3.58213802262253, 3.7487358298112667, 3.9320645653842803, 4.665091452658089, 4.731648842327559, 4.998197250326484, 5.3313938270257495, 6.730818037762219, 6.880893419644053, 7.080750675229865, 7.297328273660241, 7.697054974241837, 7.9636322518981615, 8.296851924324073, 9.063342913783345, 9.629640797316824, 9.779692441925363, 10.47934440217432]",2017_Feb_09_1443,60.0085081317,famFaceGrey,001,17,
94,./greyInner/JanHofer7_1_cut.png,0,104,104,93,,,2.nein,5.141,None,None,None,None,None,polit,2.691,None,,['return'],[0.8999454684253578],2017_Feb_09_1443,60.0085081317,famFaceGrey,001,17,
20,./greyInner/BastianSchweinsteiger6_2_cut.png,0,105,105,19,,,2.nein,4.576,None,None,None,None,None,sport,0.912,None,,['return'],[0.7502450713091093],2017_Feb_09_1443,60.0085081317,famFaceGrey,001,17,
62,./greyInner/EmilyDeschanel3_1_cut.png,0,106,106,61,,,1.ja,7.747,None,None,None,music,2.749,None,None,None,,['return'],[0.7003111507438007],2017_Feb_09_1443,60.0085081317,famFaceGrey,001,17,
210,./greyInner/WillSmith6_1_cut.png,0,107,107,209,,,1.ja,2.428,None,act,0.863,None,None,None,None,None,,['return'],[0.8167934793073073],2017_Feb_09_1443,60.0085081317,famFaceGrey,001,17,
218,./greyInner/notfamousface3_3_cut.png,0,108,108,217,,,2.nein,3.17,None,None,None,None,None,sport,5.248,None,,['return'],[0.7835571266350598],2017_Feb_09_1443,60.0085081317,famFaceGrey,001,17,
122,./greyInner/KaleyCuoco(Penny)14_2_cut.png,0,109,109,121,,,2.nein,3.043,None,None,None,music,2.16,None,None,None,,['return'],[0.8005693737850379],2017_Feb_09_1443,60.0085081317,famFaceGrey,001,17,
138,./greyInner/LisaEdelstein(DrLisaCuddy)2_2_cut.png,0,110,110,137,,,2.nein,3.758,None,None,None,host,1.409,None,None,None,,['return'],[0.8500218126300751],2017_Feb_09_1443,60.0085081317,famFaceGrey,001,17,
215,./greyInner/notfamousface13_1_cut.png,0,111,111,214,,,2.nein,3.912,None,None,None,None,None,sport,3.163,None,,['return'],[0.8333556805864646],2017_Feb_09_1443,60.0085081317,famFaceGrey,001,17,
86,./greyInner/Ice-T(OdafinFinTutuola)10_1_cut.png,0,112,112,85,,,1.ja,5.212,None,act,0.763,None,None,None,None,None,,['return'],[0.650237051959266],2017_Feb_09_1443,60.0085081317,famFaceGrey,001,17,
211,./greyInner/notfamousface10_4_cut.png,0,113,113,210,,,2.nein,2.498,None,None,None,host,5.28,None,None,None,,['return'],[0.766713285816877],2017_Feb_09_1443,60.0085081317,famFaceGrey,001,17,
209,./greyInner/WillSmith5_1_cut.png,0,114,114,208,,,1.ja,2.411,None,act,1.412,None,None,None,None,None,,['return'],[0.7339131857352186],2017_Feb_09_1443,60.0085081317,famFaceGrey,001,17,
72,./greyInner/GuentherJauch3_1_cut.png,0,115,115,71,,,2.nein,3.049,None,None,None,None,None,polit,1.185,None,,['return'],[0.7835009911923407],2017_Feb_09_1443,60.0085081317,famFaceGrey,001,17,
75,./greyInner/GuentherJauch9_1_cut.png,0,116,116,74,,,2.nein,4.087,None,act,11.683,None,None,None,None,None,,['return'],[1.533295695855486],2017_Feb_09_1443,60.0085081317,famFaceGrey,001,17,
148,./greyInner/MilaKunis4_1_cut.png,0,117,117,147,,,1.ja,5.344,None,act,13.875,None,None,None,None,None,,['return'],[0.8666850577083096],2017_Feb_09_1443,60.0085081317,famFaceGrey,001,17,
217,./greyInner/notfamousface2_cut.png,0,118,118,216,,,2.nein,4.462,None,None,None,None,None,sport,2.282,None,,['return'],[0.7667854599567363],2017_Feb_09_1443,60.0085081317,famFaceGrey,001,17,
96,./greyInner/JasonSegel(Marshall)11_1_cut.png,0,119,119,95,,,2.nein,3.829,None,None,None,None,None,polit,1.547,None,,['return'],[0.7500182841158676],2017_Feb_09_1443,60.0085081317,famFaceGrey,001,17,
34,./greyInner/BritneySpears7_1_cut.png,0,120,120,33,,,2.nein,4.878,None,act,0.93,None,None,None,None,None,,['return'],[0.6839144688310625],2017_Feb_09_1443,60.0085081317,famFaceGrey,001,17,
57,./greyInner/ElvisPresley2_1_cut.png,0,121,121,56,,,1.ja,12.735,None,None,None,music,2.482,None,None,None,Elvis,"['lshift', 'e', 'l', 'v', 'i', 's', 'return']","[1.349887087564639, 1.583078531881256, 1.9163556228468224, 2.1830150186360697, 2.515994752136976, 2.6161737440088473, 3.1325903139095317]",2017_Feb_09_1443,60.0085081317,famFaceGrey,001,17,
2,./greyInner/AlysonHannigan(Lily)12_2_cut.png,0,122,122,1,,,2.nein,6.448,None,act,1.082,None,None,None,None,None,,['return'],[0.8333043567508867],2017_Feb_09_1443,60.0085081317,famFaceGrey,001,17,
68,./greyInner/EmmaWatson(HermioneGranger)3_1_cut.png,0,123,123,67,,,1.ja,3.593,None,dummy,1.045,None,None,None,None,None,Emma Watson,"['lshift', 'e', 'm', 'm', 'a', 'space', 'lshift', 'w', 'capslock', 't', 'backspace', 'a', 't', 's', 'p', 'backspace', 'o', 'n', 'return']","[1.150225824869267, 1.3835324270403362, 1.5999522046786296, 1.766799253236968, 1.8663254700932157, 2.3497642311358504, 2.5495602188966586, 2.716095154388313, 3.282496006364454, 3.449341771825857, 4.049088039620983, 4.232270181493732, 4.398919954064695, 5.065303805020449, 5.165320806039745, 5.598359241177604, 6.8647334689139825, 7.114525607385076, 7.730873531656471]",2017_Feb_09_1443,60.0085081317,famFaceGrey,001,17,
181,./greyInner/SigmarGabriel1_2_cut.png,0,124,124,180,,,2.nein,5.761,None,None,None,None,None,polit,1.279,None,,['return'],[0.9169686218920106],2017_Feb_09_1443,60.0085081317,famFaceGrey,001,17,
110,./greyInner/JoachimLoew8_1_cut.png,0,125,125,109,,,1.ja,9.122,None,None,None,music,1.507,None,None,None,,['return'],[1.099997433808312],2017_Feb_09_1443,60.0085081317,famFaceGrey,001,17,
24,./greyInner/BenedictCumberbatch4_1_cut.png,0,126,126,23,,,1.ja,1.853,None,act,1.15,None,None,None,None,None,Benedikt Kumberbetsch,"['lshift', 'b', 'e', 'n', 'e', 'd', 'i', 'k', 't', 'space', 'lshift', 'lshift', 'k', 'z', 'u', 'm', 'backspace', 'backspace', 'backspace', 'u', 'm', 'b', 'e', 'r', 'b', 'e', 't', 's', 'c', 'h', 'return']","[4.032012920773923, 4.331787416678708, 4.698401262565312, 5.048225799208012, 5.297899251312629, 5.547993558859162, 5.914607083972442, 6.1977597146396874, 6.897460111757027, 7.330406805540406, 7.796967402950031, 8.663342272233422, 8.946558416146217, 9.263367292602197, 10.06297851455929, 10.92893637769157, 11.129095802351003, 12.328606942830447, 13.11158186472312, 13.394704021862708, 13.861228371815741, 14.194200406740492, 14.277733475328205, 14.777701397932105, 15.160746248548094, 15.34387514194168, 15.71059708865505, 16.910025469453103, 17.293139928018718, 18.659368845148492]",2017_Feb_09_1443,60.0085081317,famFaceGrey,001,17,
84,./greyInner/HughLaurie(DrHouse)8_1_cut.png,0,127,127,83,,,1.ja,11.871,None,act,1.143,None,None,None,None,None,Hew Loury,"['lshift', 'h', 'e', 'w', 'space', 'lshift', u'\xf6', 'backspace', 'lshift', 'lshift', 'h', 'e', 'w', 'space', 'lshift', 'l', 'o', 'u', 'r', 'y', 'return']","[1.483178292584853, 2.283096815997851, 2.915790098350044, 3.032445644852487, 3.2492038390228117, 3.782334336287022, 4.032238104098724, 4.69852893060488, 5.231661673285998, 6.014766508633329, 6.647851455993077, 7.897143187081383, 7.980540889057011, 8.130503037729795, 8.696809261386079, 8.84669153734103, 9.02989709571375, 9.27989709571375, 10.02961256920753, 10.812673779295437, 11.195911094288022]",2017_Feb_09_1443,60.0085081317,famFaceGrey,001,17,
174,./greyInner/SahraWagenknecht6_2_cut.png,0,128,128,173,,,2.nein,6.527,None,None,None,host,1.472,None,None,None,,['return'],[0.6499486761658773],2017_Feb_09_1443,60.0085081317,famFaceGrey,001,17,
220,./greyInner/notfamousface5_1_cut.png,0,129,129,219,,,2.nein,3.391,None,None,None,None,None,polit,0.778,None,,['return'],[0.7502126731378667],2017_Feb_09_1443,60.0085081317,famFaceGrey,001,17,
67,./greyInner/EmmaWatson(HermioneGranger)16_1_cut.png,0,130,130,66,,,1.ja,2.712,None,act,1.362,None,None,None,None,None,Emma Watson,"['lshift', 'e', 'm', 'm', 'a', 'space', 'lshift', 'w', 'a', 't', 's', 'o', 'n', 'return']","[1.0666247522021877, 1.1666658112699224, 1.58298326201475, 1.7330695502114395, 1.9330624931844795, 2.1328395552791335, 2.4327365868375637, 2.6171472929891024, 2.8991335895261727, 3.7321614391203184, 3.8987804173921177, 4.3819465205651795, 5.048398054826976, 5.664767791728082]",2017_Feb_09_1443,60.0085081317,famFaceGrey,001,17,
44,./greyInner/CobieSmulders(Robin)4_7_cut.png,0,131,131,43,,,2.nein,25.038,None,act,0.814,None,None,None,None,None,,['return'],[1.3832972997261095],2017_Feb_09_1443,60.0085081317,famFaceGrey,001,17,
102,./greyInner/JimParsons(SheldonCooper)10_1_cut.png,0,132,132,101,,,1.ja,3.246,None,act,0.93,None,None,None,None,None,,['return'],[0.7836389239964774],2017_Feb_09_1443,60.0085081317,famFaceGrey,001,17,
28,./greyInner/Beyonce3_2_cut.png,0,133,133,27,,,1.ja,5.36,None,None,None,music,4.26,None,None,None,,['return'],[1.317168784844398],2017_Feb_09_1443,60.0085081317,famFaceGrey,001,17,
58,./greyInner/ElvisPresley4_10_cut.png,0,134,134,57,,,1.ja,2.688,None,None,None,music,1.38,None,None,None,Elvis Presley,"['lshift', 'e', 'l', 'v', 'i', 's', 'space', 'lshift', 'p', 'r', 'e', 's', 'l', 'e', 'y', 'return']","[1.333389682626148, 1.4500696079503541, 1.9331051561202912, 2.249666395078748, 2.78274075689842, 3.0327022640231007, 3.199115626182902, 3.615754171665685, 3.8990726424708555, 4.39862227582671, 4.465285200130893, 4.781968653967851, 5.831582121341853, 6.281424621325641, 7.847279195242663, 8.663712445388228]",2017_Feb_09_1443,60.0085081317,famFaceGrey,001,17,
54,./greyInner/DannFlorek(DonaldDonCragen)5_1_cut.png,0,135,135,53,,,2.nein,4.058,None,None,None,host,5.092,None,None,None,,['return'],[1.6165272369180457],2017_Feb_09_1443,60.0085081317,famFaceGrey,001,17,
137,./greyInner/LisaEdelstein(DrLisaCuddy)10_1_cut.png,0,136,136,136,,,1.ja,6.493,None,None,None,music,0.695,None,None,None,,['return'],[0.8170048693482386],2017_Feb_09_1443,60.0085081317,famFaceGrey,001,17,
42,./greyInner/CobieSmulders(Robin)2_1_cut.png,0,137,137,41,,,2.nein,2.31,None,None,None,music,4.459,None,None,None,,['return'],[0.8671415190565313],2017_Feb_09_1443,60.0085081317,famFaceGrey,001,17,
13,./greyInner/BarackObama2_1_cut.png,0,138,138,12,,,1.ja,2.129,None,None,None,None,None,polit,0.75,None,Barak Obama,"['lshift', 'b', 'a', 'r', 'a', 'k', 'space', 'lshift', 'o', 'b', 'a', 'm', 'a', 'return']","[1.5831975390228763, 1.949160534537441, 2.3829720349258423, 2.667371513989565, 2.782001052139094, 3.74903575346616, 3.849074567116986, 4.098942087468458, 4.7820032975578215, 5.148081771700163, 5.331748603030064, 5.498010239105497, 5.614848305993291, 5.981425904423304]",2017_Feb_09_1443,60.0085081317,famFaceGrey,001,17,
175,./greyInner/SahraWagenknecht9_1_cut.png,0,139,139,174,,,2.nein,3.972,None,None,None,None,None,sport,0.907,None,,['return'],[0.6835298608475568],2017_Feb_09_1443,60.0085081317,famFaceGrey,001,17,
150,./greyInner/MilaKunis7_3_cut.png,0,140,140,149,,,1.ja,8.139,None,dummy,0.793,None,None,None,None,None,Mila Kunis,"['lshift', 'm', 'i', 'l', 'a', 'space', 'lshift', 'k', 'u', 'n', 'i', 's', 'return']","[1.2996272606542334, 1.4497292667747388, 1.6496856415142247, 1.8996038441546261, 2.0163344517641235, 2.16596492015924, 2.282636184585499, 2.466036452751723, 2.6659793549861206, 3.065770210363553, 3.249012657739513, 3.348966145515078, 3.78202158167187]",2017_Feb_09_1443,60.0085081317,famFaceGrey,001,17,
15,./greyInner/BarackObama5_2_cut.png,0,141,141,14,,,1.ja,2.194,None,act,0.86,None,None,None,None,None,Barak Obama politiker,"['left', 'lshift', 'b', 'r', 'a', 'k', 'backspace', 'backspace', 'backspace', 'a', 'r', 'a', 'k', 'space', 'lshift', 'o', 'n', 'backspace', 'b', 'a', 'm', 'a', 'space', 'p', u'\xd6', 'l', 'i', 't', 'i', 'k', 'e', 'r', 'backspace', 'backspace', 'backspace', 'backspace', 'backspace', 'backspace', 'backspace', 'backspace', 'o', 'l', 'i', 't', 'i', 'k', 'e', 'r', 'return']","[2.082597370936128, 3.0823981703051686, 3.2157698895898648, 3.4157326798103895, 3.9154908162417996, 4.148654673997953, 4.481513796488798, 4.648514495775089, 5.0149509536604455, 5.2147065239005315, 5.48136688201339, 5.631353730279443, 6.314403713278807, 6.447342387713434, 6.564209645031951, 6.714193285559304, 6.9974604325307155, 7.297359067959405, 7.613840754973353, 7.7302903645922925, 7.996999801120182, 8.113562323173028, 8.230271118154633, 8.996637647314856, 9.646301155427864, 9.862818769126534, 10.09589120630153, 10.279493882841052, 10.412742104148492, 10.679298210723573, 10.7959877592657, 10.879086499906407, 11.645503069807091, 11.812070082694845, 11.995576847817574, 12.14533498425044, 12.311810576558855, 12.495203466924067, 12.695205712341703, 12.978193465192817, 13.578016077190114, 13.794508670520372, 14.894153894516421, 15.127434834768792, 15.26066445118704, 15.510492195569896, 15.61055891655451, 15.727158648387558, 16.476559763397745]",2017_Feb_09_1443,60.0085081317,famFaceGrey,001,17,
93,./greyInner/JanHofer5_1_cut.png,0,142,142,92,,,2.nein,12.94,None,None,None,host,1.945,None,None,None,,['return'],[0.833977340527781],2017_Feb_09_1443,60.0085081317,famFaceGrey,001,17,
178,./greyInner/Shakira3_1_cut.png,0,143,143,177,,,1.ja,6.561,None,act,1.247,None,None,None,None,None,,['return'],[2.0666731890705705],2017_Feb_09_1443,60.0085081317,famFaceGrey,001,17,
52,./greyInner/DannFlorek(DonaldDonCragen)10_1_cut.png,0,144,144,51,,,2.nein,3.152,None,None,None,None,None,polit,1.153,None,,['return'],[0.9000859674233652],2017_Feb_09_1443,60.0085081317,famFaceGrey,001,17,
111,./greyInner/JoshRadnor(Ted)1_2_cut.png,0,145,145,110,,,2.nein,3.509,None,None,None,None,None,sport,1.989,None,,['return'],[0.9166109589223197],2017_Feb_09_1443,60.0085081317,famFaceGrey,001,17,
70,./greyInner/EmmaWatson(HermioneGranger)9_1_cut.png,0,146,146,69,,,1.ja,2.229,None,act,0.979,None,None,None,None,None,Emma Watson,"['lshift', 'e', 'm', 'm', 'a', 'space', 'lshift', 'w', 'a', 't', 's', 'o', 'n', 'return']","[1.0332036337276804, 1.2667302868376282, 1.5666600373388064, 1.783127610298834, 1.8830486999031564, 2.0498245366434276, 2.532827686643941, 2.882529687631177, 3.265949843784256, 3.5157653987553203, 4.315246386482613, 4.432023827090234, 4.581973144804579, 5.031789982871487]",2017_Feb_09_1443,60.0085081317,famFaceGrey,001,17,
201,./greyInner/Usher1_1_cut.png,0,147,147,200,,,1.ja,33.62,None,None,None,music,1.133,None,None,None,Snoop Dogg,"['lshift', 's', 'n', 'o', 'o', 'p', 'space', 'lshift', 'd', 'o', 'g', 'g', 'return']","[1.4663639629688987, 1.6662064629526867, 1.8662966004358168, 2.0495720875314873, 2.216035490429931, 2.3992670314928546, 2.532693923898478, 2.699132627201834, 3.415571330506282, 4.0321107568324805, 4.331778435007436, 4.565225856946199, 5.964555439362812]",2017_Feb_09_1443,60.0085081317,famFaceGrey,001,17,
203,./greyInner/Usher2_1_cut.png,0,148,148,202,,,2.nein,5.259,None,None,None,None,None,sport,1.279,None,,['return'],[0.8168701442846213],2017_Feb_09_1443,60.0085081317,famFaceGrey,001,17,
105,./greyInner/JimParsons(SheldonCooper)9_3_cut.png,0,149,149,104,,,2.nein,2.335,None,None,None,None,None,polit,1.886,None,,['return'],[0.8166513764408592],2017_Feb_09_1443,60.0085081317,famFaceGrey,001,17,
61,./greyInner/EmilyDeschanel15_1_cut.png,0,150,150,60,,,1.ja,4.327,None,None,None,music,1.027,None,None,None,,['return'],[1.2165330108491617],2017_Feb_09_1443,60.0085081317,famFaceGrey,001,17,
55,./greyInner/DannFlorek(DonaldDonCragen)8_1_cut.png,0,151,151,54,,,2.nein,1.932,None,None,None,None,None,polit,0.967,None,,['return'],[0.8333842294687202],2017_Feb_09_1443,60.0085081317,famFaceGrey,001,17,
202,./greyInner/Usher11_1_cut.png,0,152,152,201,,,1.ja,2.661,None,None,None,None,None,sport,2.794,None,,['return'],[0.8332976204983424],2017_Feb_09_1443,60.0085081317,famFaceGrey,001,17,
124,./greyInner/KaleyCuoco(Penny)5_2_cut.png,0,153,153,123,,,1.ja,5.5,None,act,0.601,None,None,None,None,None,,['return'],[0.8335282569787523],2017_Feb_09_1443,60.0085081317,famFaceGrey,001,17,
90,./greyInner/Ice-T(OdafinFinTutuola)7_1_cut.png,0,154,154,89,,,1.ja,5.289,None,act,1.075,None,None,None,None,None,,['return'],[0.7500272657871392],2017_Feb_09_1443,60.0085081317,famFaceGrey,001,17,
199,./greyInner/UrsulavonderLeyen7_1_cut.png,0,155,155,198,,,2.nein,5.078,None,None,None,host,0.796,None,None,None,,['return'],[0.7498835590522503],2017_Feb_09_1443,60.0085081317,famFaceGrey,001,17,
5,./greyInner/AlysonHannigan(Lily)8_3_cut.png,0,156,156,4,,,1.ja,18.314,None,act,0.847,None,None,None,None,None,,['return'],[1.1001267057163204],2017_Feb_09_1443,60.0085081317,famFaceGrey,001,17,
204,./greyInner/Usher4_1_cut.png,0,157,157,203,,,2.nein,11.14,None,None,None,music,3.26,None,None,None,,['return'],[0.866676076035219],2017_Feb_09_1443,60.0085081317,famFaceGrey,001,17,
192,./greyInner/TomCruise4_1_cut.png,0,158,158,191,,,1.ja,5.089,None,act,0.692,None,None,None,None,None,,['return'],[0.7500503615119669],2017_Feb_09_1443,60.0085081317,famFaceGrey,001,17,
183,./greyInner/SigmarGabriel3_3_cut.png,0,159,159,182,,,2.nein,2.384,None,None,None,None,None,polit,1.144,None,,['return'],[0.7169458469397796],2017_Feb_09_1443,60.0085081317,famFaceGrey,001,17,
180,./greyInner/Shakira9_1_cut.png,0,160,160,179,,,2.nein,3.059,None,None,None,music,0.811,None,None,None,,['return'],[0.7167142481375777],2017_Feb_09_1443,60.0085081317,famFaceGrey,001,17,
30,./greyInner/Beyonce8_3_cut.png,0,161,161,29,,,1.ja,22.371,None,None,None,music,1.446,None,None,None,Beyonce,"['lshift', 'b', 'e', 'y', 'o', 'n', 'c', 'e', 'return']","[1.8331295349416905, 1.9665410301968222, 2.1165179344716307, 2.9327045094396453, 3.715751605472178, 3.9823641682651214, 4.115580632949786, 4.215469645159828, 4.448850987662809]",2017_Feb_09_1443,60.0085081317,famFaceGrey,001,17,
95,./greyInner/JanHofer9_2_cut.png,0,162,162,94,,,2.nein,6.609,None,None,None,host,3.711,None,None,None,,['return'],[0.7336540003725531],2017_Feb_09_1443,60.0085081317,famFaceGrey,001,17,
103,./greyInner/JimParsons(SheldonCooper)6_1_cut.png,0,163,163,102,,,1.ja,2.645,None,act,0.663,None,None,None,None,None,,['return'],[0.7003490020724712],2017_Feb_09_1443,60.0085081317,famFaceGrey,001,17,
127,./greyInner/KatjaBurkard10_1_cut.png,0,164,164,126,,,1.ja,2.73,None,act,0.713,None,None,None,None,None,,['return'],[0.9002749032861175],2017_Feb_09_1443,60.0085081317,famFaceGrey,001,17,
9,./greyInner/AngelaMerkel5_1_cut.png,0,165,165,8,,,1.ja,1.695,None,None,None,None,None,polit,1.761,None,Angela Merkel,"['lshift', 'a', 'n', 'g', 'e', 'l', 'a', 'space', 'lshift', 'm', 'e', 'r', 'k', 'e', 'l', 'return']","[1.3831471775101818, 1.5329280888927315, 1.69977513745107, 1.9496965478301718, 2.1328453292098857, 2.2995692005661112, 2.4661721401389514, 2.66603966049297, 3.049255162855843, 3.3158783111884986, 3.6822637660134205, 3.8156717327565275, 4.465400037210202, 4.548668467277821, 4.698561649547628, 5.381596556169825]",2017_Feb_09_1443,60.0085081317,famFaceGrey,001,17,
179,./greyInner/Shakira7_1_cut.png,0,166,166,178,,,1.ja,10.991,None,None,None,music,1.995,None,None,None,,['return'],[0.8665211422103312],2017_Feb_09_1443,60.0085081317,famFaceGrey,001,17,
171,./greyInner/SahraWagenknecht12_1_cut.png,0,167,167,170,,,2.nein,3.729,None,None,None,host,0.896,None,None,None,,['return'],[0.8505751477168815],2017_Feb_09_1443,60.0085081317,famFaceGrey,001,17,
12,./greyInner/BarackObama11_2_cut.png,0,168,168,11,,,1.ja,1.907,None,None,None,None,None,polit,0.924,None,Barak Obama,"['lshift', 'b', 'a', 'r', 'a', 'k', 'space', 'lshift', 'o', 'b', 'a', 'm', 'a', 'return']","[1.7823599982039013, 1.9330599269906088, 2.549625015235506, 2.6660287541781145, 2.766212557658946, 3.132531933048085, 3.3824520603302517, 3.699000789103593, 3.9156242582103005, 4.298594689265883, 4.66532369300694, 5.048290274775354, 5.331669692634023, 6.0645984230741306]",2017_Feb_09_1443,60.0085081317,famFaceGrey,001,17,
39,./greyInner/CarenMiosga6_2_cut.png,0,169,169,38,,,2.nein,3.045,None,None,None,None,None,sport,0.846,None,,['return'],[0.750190539734831],2017_Feb_09_1443,60.0085081317,famFaceGrey,001,17,
186,./greyInner/TaylorSwift1_2_cut.png,0,170,170,185,,,1.ja,2.798,None,act,1.315,None,None,None,None,None,,['return'],[0.7500792311693658],2017_Feb_09_1443,60.0085081317,famFaceGrey,001,17,
156,./greyInner/NicoleKidman14_1_cut.png,0,171,171,155,,,1.ja,2.512,None,act,1.878,None,None,None,None,None,Nicole Kidman,"['lshift', 'n', 'i', 'c', 'o', 'l', 'e', 'space', 'lshift', 'k', 'i', 'd', 'm', 'a', 'n', 'return']","[1.0499522046793572, 1.266372303092794, 1.5163427918887464, 2.432676922879182, 2.665779833581837, 3.132360639750914, 3.415528346795327, 3.5656781482357474, 3.9986928460984927, 4.282047564363893, 4.515139247978368, 4.881423017455745, 5.264952236757381, 5.514769395596886, 5.8479361403187795, 6.414410128758391]",2017_Feb_09_1443,60.0085081317,famFaceGrey,001,17,
51,./greyInner/DannFlorek(DonaldDonCragen)1_1_cut.png,0,172,172,50,,,2.nein,2.578,None,None,None,None,None,polit,1.029,None,,['return'],[0.7503236609281885],2017_Feb_09_1443,60.0085081317,famFaceGrey,001,17,
130,./greyInner/KatjaBurkard7_1_cut.png,0,173,173,129,,,2.nein,26.016,None,None,None,host,1.342,None,None,None,,['return'],[1.3663604344565101],2017_Feb_09_1443,60.0085081317,famFaceGrey,001,17,
40,./greyInner/CarenMiosga9_1_cut.png,0,174,174,39,,,2.nein,7.461,None,None,None,None,None,sport,1.746,None,,['return'],[0.8669317328858597],2017_Feb_09_1443,60.0085081317,famFaceGrey,001,17,
195,./greyInner/TomCruise7_1_cut.png,0,175,175,194,,,1.ja,21.722,None,act,0.88,None,None,None,None,None,Tom Kruz,"['lshift', 't', 'o', 'm', 'space', 'lshift', 'k', 'r', 'u', 'y', 'backspace', 'z', 'return']","[1.9498473115927482, 2.183260089945179, 2.6164316462763964, 3.266375831606638, 3.449565030505255, 4.332468740576587, 4.881927915674169, 5.532113643799676, 5.898433339962139, 6.2650564882951585, 7.314686315141444, 8.164242043201739, 17.52686353633908]",2017_Feb_09_1443,60.0085081317,famFaceGrey,001,17,
176,./greyInner/Shakira1_1_cut.png,0,176,176,175,,,1.ja,3.592,None,act,1.243,None,None,None,None,None,,['return'],[1.083173801747762],2017_Feb_09_1443,60.0085081317,famFaceGrey,001,17,
100,./greyInner/JasonSegel(Marshall)9_1_cut.png,0,177,177,99,,,1.ja,2.595,None,act,0.962,None,None,None,None,None,Bad teacher Sportlehrer,"['lshift', 'b', 'a', 'd', 'space', 't', 'e', 'a', 'c', 'h', 'r', 'backspace', 'e', 'r', 'space', 'lshift', 's', 'p', 'o', 'r', 't', 'l', 'e', 'h', 'r', 'e', 'r', 'return']","[1.4349496064096456, 2.3666231483312004, 2.8664184945428133, 2.9828940868519567, 3.1994328716318705, 3.9156524863174127, 4.015900444592262, 4.2324090766196605, 4.8986681465030415, 5.1154340392495214, 5.381820135622547, 7.147861079210998, 7.697377031299766, 7.764145490238661, 7.997576873480284, 9.31349913070153, 9.446993706413195, 9.9967922603646, 10.113274909701431, 10.497987464152175, 10.562985571586978, 10.962922058341064, 11.262521090886366, 11.762627587842871, 12.045808446619048, 12.178957869546139, 12.34566698530216, 13.378615282954343]",2017_Feb_09_1443,60.0085081317,famFaceGrey,001,17,
117,./greyInner/JudithRakers2_1_cut.png,0,178,178,116,,,2.nein,3.927,None,None,None,host,3.53,None,None,None,,['return'],[1.0001780295497156],2017_Feb_09_1443,60.0085081317,famFaceGrey,001,17,
223,./greyInner/notfamousface8_9_cut.png,0,179,179,222,,,2.nein,2.923,None,None,None,music,3.488,None,None,None,,['return'],[0.6335596928274754],2017_Feb_09_1443,60.0085081317,famFaceGrey,001,17,
126,./greyInner/KatjaBurkard1_1_cut.png,0,180,180,125,,,2.nein,10.256,None,None,None,None,None,sport,4.992,None,,['return'],[0.9332790156076953],2017_Feb_09_1443,60.0085081317,famFaceGrey,001,17,
37,./greyInner/CarenMiosga13_1_cut.png,0,181,181,36,,,2.nein,45.276,None,act,3.01,None,None,None,None,None,,['return'],[0.7001674440089118],2017_Feb_09_1443,60.0085081317,famFaceGrey,001,17,
32,./greyInner/BritneySpears14_2_cut.png,0,182,182,31,,,1.ja,6.559,None,act,0.595,None,None,None,None,None,,['return'],[0.7504452342618606],2017_Feb_09_1443,60.0085081317,famFaceGrey,001,17,
59,./greyInner/ElvisPresley5_2_cut.png,0,183,183,58,,,1.ja,4.147,None,None,None,music,0.933,None,None,None,Elvis Presley,"['lshift', 'e', 'l', 'v', 'i', 's', 'space', 'lshift', 'p', 'r', 'r', 'backspace', 'e', 's', 'l', 'e', 'y', 'return']","[1.2163357348617865, 1.6162465596989932, 2.132887671374192, 2.432632335299786, 2.7825460471030965, 3.015894991436653, 3.182452060331343, 3.565460021942272, 3.698988599693621, 4.215386564703294, 4.348624200471022, 5.648052902042764, 6.03120681580549, 6.247661878580402, 6.664428412874258, 6.964149018753233, 7.630330140564183, 8.396992102545482]",2017_Feb_09_1443,60.0085081317,famFaceGrey,001,17,
219,./greyInner/notfamousface4_2_cut.png,0,184,184,218,,,2.nein,6.127,None,None,None,None,None,sport,0.687,None,,['return'],[0.6669480923574156],2017_Feb_09_1443,60.0085081317,famFaceGrey,001,17,
162,./greyInner/OmarEpps(DrEricForeman)2_2_cut.png,0,185,185,161,,,1.ja,2.535,None,dummy,0.887,None,None,None,None,None,,['return'],[1.1499239765707898],2017_Feb_09_1443,60.0085081317,famFaceGrey,001,17,
120,./greyInner/JudithRakers8_1_cut.png,0,186,186,119,,,1.ja,4.223,None,act,0.575,None,None,None,None,None,,['return'],[0.5834891225531464],2017_Feb_09_1443,60.0085081317,famFaceGrey,001,17,
119,./greyInner/JudithRakers7_1_cut.png,0,187,187,118,,,2.nein,3.478,None,None,None,None,None,sport,1.295,None,,['return'],[0.717077043491372],2017_Feb_09_1443,60.0085081317,famFaceGrey,001,17,
128,./greyInner/KatjaBurkard4_1_cut.png,0,188,188,127,,,2.nein,4.199,None,None,None,host,1.267,None,None,None,,['return'],[0.7165724660462729],2017_Feb_09_1443,60.0085081317,famFaceGrey,001,17,
71,./greyInner/GuentherJauch2_1_cut.png,0,189,189,70,,,2.nein,1.745,None,None,None,None,None,polit,1.063,None,,['return'],[0.7005174084024475],2017_Feb_09_1443,60.0085081317,famFaceGrey,001,17,
222,./greyInner/notfamousface7_cut.png,0,190,190,221,,,1.ja,2.507,None,act,4.378,None,None,None,None,None,,['return'],[1.1667379854116007],2017_Feb_09_1443,60.0085081317,famFaceGrey,001,17,
189,./greyInner/TaylorSwift7_1_cut.png,0,191,191,188,,,1.ja,2.796,None,act,0.83,None,None,None,None,None,,['return'],[0.8501530091798486],2017_Feb_09_1443,60.0085081317,famFaceGrey,001,17,
207,./greyInner/WillSmith14_1_cut.png,0,192,192,206,,,1.ja,1.859,None,act,1.043,None,None,None,None,None,,['return'],[7.06418462466354],2017_Feb_09_1443,60.0085081317,famFaceGrey,001,17,
216,./greyInner/notfamousface14_6_cut.png,0,193,193,215,,,2.nein,2.399,None,None,None,None,None,polit,13.252,None,Barak Obama,"['lshift', 'b', 'a', 'r', 'a', 'k', 'space', 'lshift', 'o', 'b', 'a', 'm', 'a', 'return']","[1.4833191123543656, 1.5832642600053077, 2.0829268057968875, 2.3494665528978658, 2.4662927511490125, 3.482556311868393, 3.6156332398804807, 3.9489356719896023, 4.048937275858407, 4.282047885137217, 4.4320619991904096, 4.715378545353815, 4.831921820969001, 5.1150622622262745]",2017_Feb_09_1443,60.0085081317,famFaceGrey,001,17,
19,./greyInner/BastianSchweinsteiger3_1_cut.png,0,194,194,18,,,2.nein,2.461,None,None,None,None,None,sport,0.945,None,,['return'],[0.933662661269409],2017_Feb_09_1443,60.0085081317,famFaceGrey,001,17,
114,./greyInner/JoshRadnor(Ted)7_1_cut.png,0,195,195,113,,,1.ja,5.558,None,act,0.86,None,None,None,None,None,,['return'],[0.7333569636830362],2017_Feb_09_1443,60.0085081317,famFaceGrey,001,17,
8,./greyInner/AngelaMerkel4_1_cut.png,0,196,196,7,,,1.ja,1.645,None,None,None,None,None,polit,2.243,None,Angela Merkel,"['lshift', 'a', 'n', 'g', 'e', 'l', 'a', 'space', 'less', 'lshift', 'm', 'e', 'r', 'k', 'e', 'l', 'return']","[1.4496756975240714, 1.5997876476376405, 1.8493382433134684, 2.082971393378102, 2.3827276051670196, 2.665795551507472, 2.8158895382784976, 2.9325611234799, 3.1489635793241177, 3.582161439120682, 3.7322156499212724, 4.032099208972795, 4.131906744594744, 4.781749565352584, 4.915102358972945, 5.081546515433729, 5.34813469940309]",2017_Feb_09_1443,60.0085081317,famFaceGrey,001,17,
18,./greyInner/BastianSchweinsteiger14_1_cut.png,0,197,197,17,,,1.ja,7.543,None,act,2.763,None,None,None,None,None,,['return'],[1.0331815003246447],2017_Feb_09_1443,60.0085081317,famFaceGrey,001,17,
21,./greyInner/BenedictCumberbatch16_1_cut.png,0,198,198,20,,,1.ja,1.694,None,act,0.545,None,None,None,None,None,Benedikt Kumberbetsch,"['lshift', 'b', 'e', 'n', 'e', 'd', 'i', 'k', 't', 'space', 'lshift', 'k', 'u', 'm', 'b', 'e', 'r', 'b', 'e', 't', 's', 'c', 'h', 'return']","[1.7164188153183204, 2.915994752138431, 3.1659857704671595, 3.8989501068190293, 3.9824687405780423, 4.249015544706708, 4.465596030102461, 4.682091510396276, 4.948713375633815, 5.081890064348045, 5.315194741873711, 5.498466379682213, 6.048275198400006, 6.3646596909020445, 6.597756186127299, 6.697896364348708, 6.814419431204442, 7.730887004163378, 7.88079590435882, 8.18067689721829, 8.480584514316433, 8.597182642279222, 8.730485074387616, 8.98036735034293]",2017_Feb_09_1443,60.0085081317,famFaceGrey,001,17,
190,./greyInner/TaylorSwift8_1_cut.png,0,199,199,189,,,1.ja,2.278,None,act,0.629,None,None,None,None,None,,['return'],[0.6836713221673563],2017_Feb_09_1443,60.0085081317,famFaceGrey,001,17,
80,./greyInner/GeorgeClooney4_2_cut.png,0,200,200,79,,,1.ja,1.899,None,act,0.517,None,None,None,None,None,George Kluni,"['lshift', 'g', 'e', 'o', 'r', 'g', 'e', 'space', 'lshift', 'k', 'l', 'u', 'n', 'i', 'return']","[0.7834028343586397, 0.9665201798907219, 1.1998617464232666, 1.4497905346033804, 1.6331186286279262, 1.9494764968931122, 2.0829630532552983, 2.2492131414692267, 2.4826483739980176, 3.09910054980719, 3.2824732314129506, 3.498972240222429, 3.682144758875438, 3.9153066919880075, 4.5653102205014875]",2017_Feb_09_1443,60.0085081317,famFaceGrey,001,17,
77,./greyInner/GeorgeClooney15_1_cut.png,0,201,201,76,,,1.ja,1.824,None,act,1.075,None,None,None,None,None,George Kluni,"['lshift', 'g', 'e', 'o', 'r', 'g', 'e', 'space', 'lshift', 'k', 'l', 'u', 'n', 'i', 'return']","[0.9167187389721221, 1.116524670724175, 1.3998341598598927, 1.5663530566544068, 1.7662847318006243, 1.982788872992387, 2.149522367568352, 2.299403681201511, 2.482552462581225, 2.6826493363187183, 2.8491823471667885, 3.0490556414515595, 3.248994694398789, 3.4989513899126905, 3.79879934305427]",2017_Feb_09_1443,60.0085081317,famFaceGrey,001,17,
135,./greyInner/LeonardoDiCaprio7_1_cut.png,0,202,202,134,,,1.ja,9.616,None,act,1.07,None,None,None,None,None,Leonardo di Kaprio,"['lshift', 'l', 'e', 'o', 'n', 'a', 'r', 'd', 'o', 'space', 'd', 'i', 'space', 'lshift', 'k', 'a', 'p', 'r', 'i', 'o', 'return']","[1.3329839035613986, 1.466172781687419, 1.7331263272026263, 1.832847895400846, 2.865950164556125, 2.999159251441597, 3.1824161336462566, 3.4823952833394287, 3.6155463101367786, 3.73226280369272, 4.5317351305220654, 4.648540478465293, 4.748139831785011, 4.898279368459043, 5.031590461465385, 5.314745337549539, 5.481411469592786, 5.83128219768696, 5.9977789610766195, 6.11461349945057, 6.397823869430795]",2017_Feb_09_1443,60.0085081317,famFaceGrey,001,17,
43,./greyInner/CobieSmulders(Robin)3_4_cut.png,0,203,203,42,,,2.nein,3.372,None,None,None,music,2.591,None,None,None,,['return'],[0.6500150763768033],2017_Feb_09_1443,60.0085081317,famFaceGrey,001,17,
81,./greyInner/HughLaurie(DrHouse)2_1_cut.png,0,204,204,80,,,1.ja,1.784,None,act,0.751,None,None,None,None,None,Hew Loury,"['lshift', 'h', 'e', 'w', 'space', 'lshift', 'l', 'o', 'u', 'r', 'z', 'backspace', 'y', 'return']","[0.650025020369867, 0.8666337338727317, 1.0331381958385464, 1.1497870060884452, 1.266379680893806, 1.4828036285944108, 1.66636749148347, 1.8662507297613047, 2.3159119924548577, 2.5159729395090835, 2.6825858230731683, 3.598834307416837, 3.7487438491589273, 3.948436547701931]",2017_Feb_09_1443,60.0085081317,famFaceGrey,001,17,
116,./greyInner/JudithRakers1_1_cut.png,0,205,205,115,,,1.ja,2.511,None,act,0.611,None,None,None,None,None,,['return'],[0.5672287695742853],2017_Feb_09_1443,60.0085081317,famFaceGrey,001,17,
107,./greyInner/JoachimLoew12_1_cut.png,0,206,206,106,,,1.ja,2.78,None,None,None,music,0.714,None,None,None,,['return'],[1.0330316988820414],2017_Feb_09_1443,60.0085081317,famFaceGrey,001,17,
182,./greyInner/SigmarGabriel11_3_cut.png,0,207,207,181,,,2.nein,3.036,None,None,None,None,None,polit,0.96,None,,['return'],[0.6669121656723291],2017_Feb_09_1443,60.0085081317,famFaceGrey,001,17,
49,./greyInner/CristinMilioti(Tracy_Mutter)8_1_cut.png,0,208,208,48,,,2.nein,2.721,None,None,None,music,1.071,None,None,None,,['return'],[0.7501642362694838],2017_Feb_09_1443,60.0085081317,famFaceGrey,001,17,
221,./greyInner/notfamousface6_8_cut.png,0,209,209,220,,,2.nein,2.751,None,None,None,None,None,sport,1.201,None,,['return'],[0.6836774168714328],2017_Feb_09_1443,60.0085081317,famFaceGrey,001,17,
74,./greyInner/GuentherJauch7_1_cut.png,0,210,210,73,,,2.nein,2.295,None,None,None,None,None,polit,1.178,None,,['return'],[0.6503730601179996],2017_Feb_09_1443,60.0085081317,famFaceGrey,001,17,
170,./greyInner/RobertSeanLeonard(Wilson)8_1_cut.png,0,211,211,169,,,2.nein,2.279,None,act,0.846,None,None,None,None,None,,['return'],[0.6501870112206234],2017_Feb_09_1443,60.0085081317,famFaceGrey,001,17,
69,./greyInner/EmmaWatson(HermioneGranger)4_1_cut.png,0,212,212,68,,,1.ja,1.442,None,dummy,1.843,None,None,None,None,None,Emma Watson,"['lshift', 'e', 'm', 'm', 'a', 'space', 'lshift', 'w', 'a', 't', 's', 'o', 'n', 'return']","[1.1832100492065365, 1.2997783451901341, 1.5994848370137333, 1.79950087571342, 1.8495242922126636, 2.715883122798914, 3.082461042002251, 3.232208913666909, 3.48211332302526, 3.6988686302302085, 4.364996503563816, 4.4483034265067545, 4.6318400236086745, 4.915058092165054]",2017_Feb_09_1443,60.0085081317,famFaceGrey,001,17,
45,./greyInner/CobieSmulders(Robin)5_1_cut.png,0,213,213,44,,,2.nein,4.478,None,None,None,music,1.046,None,None,None,,['return'],[0.7502107484942826],2017_Feb_09_1443,60.0085081317,famFaceGrey,001,17,
224,./greyInner/notfamousface9_1_cut.png,0,214,214,223,,,2.nein,4.044,None,None,None,None,None,sport,0.661,None,,['return'],[0.5838432570108125],2017_Feb_09_1443,60.0085081317,famFaceGrey,001,17,
163,./greyInner/OmarEpps(DrEricForeman)3_1_cut.png,0,215,215,162,,,1.ja,3.556,None,act,0.792,None,None,None,None,None,,['return'],[0.6501504429888882],2017_Feb_09_1443,60.0085081317,famFaceGrey,001,17,
99,./greyInner/JasonSegel(Marshall)7_1_cut.png,0,216,216,98,,,1.ja,1.661,None,act,1.662,None,None,None,None,None,Bad teacher Sportlehrer,"['lshift', 'b', 'capslock', 'a', 'd', 'space', 't', 'e', 'c', 'backspace', 'a', 'c', 'h', 'e', 'r', 'space', 'lshift', 's', 'p', 'o', 'r', 't', 'l', 'e', 'h', 'r', 'e', 'r', 'return']","[1.383119270174575, 1.4497854022174579, 1.882762569526676, 2.549257729047895, 2.9159103885849618, 3.065714395694158, 3.3322794839386916, 3.6322788423913153, 3.8821604767981626, 4.515050072815939, 4.66508022556809, 4.898324276815401, 6.314431620614414, 6.530949234313084, 6.597364521116106, 6.730964631462484, 6.997354577122678, 7.730451713894581, 8.246934363231048, 8.380486357482368, 8.580047217927131, 8.796750559749853, 9.0130734636532, 9.146202357047514, 9.379846734200328, 9.629667100780352, 9.779728689381955, 10.012902811904496, 11.14570708204701]",2017_Feb_09_1443,60.0085081317,famFaceGrey,001,17,
155,./greyInner/NeilPatrickHarris(Barney)3_7_cut.png,0,217,217,154,,,1.ja,3.14,None,act,0.746,None,None,None,None,None,,['return'],[0.6169981330949668],2017_Feb_09_1443,60.0085081317,famFaceGrey,001,17,
31,./greyInner/BritneySpears1_1_cut.png,0,218,218,30,,,1.ja,2.976,None,dummy,0.743,None,None,None,None,None,,['return'],[0.7667136065902014],2017_Feb_09_1443,60.0085081317,famFaceGrey,001,17,
87,./greyInner/Ice-T(OdafinFinTutuola)12_1_cut.png,0,219,219,86,,,1.ja,1.913,None,act,0.913,None,None,None,None,None,,['return'],[1.0333701154140726],2017_Feb_09_1443,60.0085081317,famFaceGrey,001,17,
14,./greyInner/BarackObama4_1_cut.png,0,220,220,13,,,1.ja,1.646,None,None,None,None,None,polit,0.58,None,Barak Obama,"['lshift', 'b', 'a', 'r', 'a', 'k', 'space', 'lshift', 'o', 'b', 'a', 'm', 'a', 'return']","[0.7665131228623068, 0.9500282281096588, 1.18321518159064, 1.4331343465510145, 1.6664643652202358, 1.866359472134718, 1.9995384062658559, 2.565923540318181, 2.716017847862531, 3.115869971066786, 3.2158712541622663, 3.3489452952089778, 3.8488872351208556, 4.115225856947291]",2017_Feb_09_1443,60.0085081317,famFaceGrey,001,17,
112,./greyInner/JoshRadnor(Ted)3_1_cut.png,0,221,221,111,,,2.nein,1.941,None,None,None,None,None,sport,0.614,None,,['return'],[0.6669801697535149],2017_Feb_09_1443,60.0085081317,famFaceGrey,001,17,
194,./greyInner/TomCruise6_1_cut.png,0,222,222,193,,,1.ja,6.359,None,act,0.68,None,None,None,None,None,,['return'],[0.6670077563139785],2017_Feb_09_1443,60.0085081317,famFaceGrey,001,17,
205,./greyInner/Usher7_1_cut.png,0,223,223,204,,,2.nein,2.31,None,None,None,None,None,sport,1.194,None,,['return'],[0.6337210421315831],2017_Feb_09_1443,60.0085081317,famFaceGrey,001,17,
