num,pic,trials.thisRepN,trials.thisTrialN,trials.thisN,trials.thisIndex,key_resp_2.keys,key_resp_2.rt,ratingBekannt.response,ratingBekannt.rt,key_resp_5.keys,key_resp_5.rt,ratingK1.response,ratingK1.rt,ratingK2.response,ratingK2.rt,ratingK3.response,ratingK3.rt,key_resp_6.keys,key_resp_6.rt,inputText,key_resp_4.keys,key_resp_4.rt,date,frameRate,expName,session,participant,
,,,,,,space,33.7339455545,,,,,,,,,,,,,,,,2017_Feb_16_1621,60.06026464,famFaceGrey,001,18,
108,./greyInner/JoachimLoew15_1_cut.png,0,0,0,107,,,None,None,1,7.33096318974,None,None,None,None,None,None,5,6.96425377367,Jogi Löw,"['lshift', 'j', 'o', 'g', 'i', 'space', 'lshift', 'l', u'\xf6', 'w', 'return']","[1.9995066388837586, 2.149402770010056, 2.8325148072508455, 3.0824615576129872, 3.1823755241566687, 3.365561341019202, 3.6487631327727286, 3.8654086492824717, 4.298635846887919, 4.581862338778592, 7.830572157752613]",2017_Feb_16_1621,60.06026464,famFaceGrey,001,18,
113,./greyInner/JoshRadnor(Ted)6_2_cut.png,0,1,1,112,,,None,None,2,6.3146566104,None,None,None,None,None,None,3,4.66517075812,,['return'],[3.1827495547549915],2017_Feb_16_1621,60.06026464,famFaceGrey,001,18,
129,./greyInner/KatjaBurkard5_3_cut.png,0,2,2,128,,,None,None,1,6.81436373738,None,None,None,None,None,None,3,2.64924975749,Frauke Ludowig,"['lshift', 'f', 'r', 'a', 'u', 'k', 'e', 'space', 'lshift', 'l', 'u', 'd', 'o', 'w', 'i', 'g', 'return']","[2.1827877276882646, 2.3494443432209664, 2.516027499910706, 2.6993461200909223, 2.865980280952499, 3.0823483219282934, 3.282400801694166, 3.4656992126729165, 3.715436813847191, 3.915310618620424, 4.165331148600671, 4.465250119330449, 4.648451012897567, 5.066169092624477, 5.164903226799652, 5.548248985047394, 6.414469530940551]",2017_Feb_16_1621,60.06026464,famFaceGrey,001,18,
112,./greyInner/JoshRadnor(Ted)3_1_cut.png,0,3,3,111,,,None,None,1,32.1876732217,None,None,None,None,None,None,1,3.01574104251,Ted Mosby ,"['lshift', 't', 'e', 'd', 'space', 'lshift', 'comma', 'backspace', 'lshift', 'm', 'o', 's', 'b', 'y', 'space', 'lshift', '8', 'left', 'backspace', 'backspace', 'backspace', 'backspace', 'backspace', 'backspace', 'backspace', 'space', 'lshift', 'm', 'o', 's', 'b', 'y', 'space', 'lshift', '8', 'lshift', '8', 'return']","[0.850120228704327, 1.1498929233130184, 1.3333523663350206, 1.5664914774897625, 1.7831199926076806, 2.032758793247922, 2.232937660708558, 2.5325409829747514, 2.78259872354829, 3.032470731945068, 3.1822565144175314, 3.4489772219858423, 3.8320047655215603, 3.998908061610564, 4.115461578137911, 4.398683899875323, 4.632017404292128, 6.264660973018181, 7.147703914040903, 7.447336106590228, 8.830251376792148, 9.180129095089796, 9.330006300137029, 9.496776151347149, 9.679993404741253, 10.21301138900526, 10.8127441143115, 11.012701642910542, 11.26260508784253, 11.478859251579706, 11.812381631825701, 11.995502009369375, 12.195659384509781, 12.945341169797757, 13.22850575096163, 13.928257658964867, 14.111399208053626, 15.743930182663462]",2017_Feb_16_1621,60.06026464,famFaceGrey,001,18,
33,./greyInner/BritneySpears5_1_cut.png,0,4,4,32,,,None,None,1,2.2660647105,None,None,None,None,None,None,2,1.0165718652,Britney Spears,"['lshift', 'b', 'r', 'i', 't', 'n', 'e', 'y', 'space', 'lshift', 's', 'p', 'e', 'a', 'r', 's', 'return']","[0.4667699795209046, 0.799940783832426, 1.049679988911521, 1.183131604877417, 1.333133272939449, 1.4828661265564733, 1.5664077536603145, 2.1995722706669767, 2.316033081497153, 2.599303841157962, 2.7160193520721805, 2.915855304690922, 3.165787619906041, 3.332193063943123, 3.515721154089988, 3.7322569635107357, 4.465262309004174]",2017_Feb_16_1621,60.06026464,famFaceGrey,001,18,
177,./greyInner/Shakira2_1_cut.png,0,5,5,176,,,None,None,2,2.54921966824,None,None,None,None,None,None,2,2.14944318841,,['return'],[1.299775581639551],2017_Feb_16_1621,60.06026464,famFaceGrey,001,18,
66,./greyInner/EmmaWatson(HermioneGranger)11_2_cut.png,0,6,6,65,,,None,None,1,1.53307187546,None,None,None,None,None,None,1,0.916646350539,Emma Watson,"['lshift', 'e', 'm', 'm', 'a', 'space', 'lshift', 'w', 'a', 't', 's', 'o', 'n', 'return']","[0.33341620174542186, 0.8497680112086528, 1.116422317114484, 1.2664227020541148, 1.383114475174807, 1.4830621237233572, 1.6829352869317518, 1.782843800199771, 1.9828706174885156, 2.1661337425648526, 2.449545004285028, 2.5492629736654635, 2.7490180894783407, 3.331956648376945]",2017_Feb_16_1621,60.06026464,famFaceGrey,001,18,
205,./greyInner/Usher7_1_cut.png,0,7,7,204,,,None,None,2,2.49929460267,None,None,None,None,None,None,5,1.81647190985,,['return'],[0.8500644128143904],2017_Feb_16_1621,60.06026464,famFaceGrey,001,18,
162,./greyInner/OmarEpps(DrEricForeman)2_2_cut.png,0,8,8,161,,,None,None,2,5.21500055174,None,None,None,None,None,None,2,1.51626167001,,['return'],[1.0166219070306397],2017_Feb_16_1621,60.06026464,famFaceGrey,001,18,
219,./greyInner/notfamousface4_2_cut.png,0,9,9,218,,,None,None,2,2.91564262691,None,None,None,None,None,None,2,2.5327174125,,['return'],[0.5835185308751534],2017_Feb_16_1621,60.06026464,famFaceGrey,001,18,
176,./greyInner/Shakira1_1_cut.png,0,10,10,175,,,None,None,2,2.0995492386,None,None,None,None,None,None,1,3.23251294672,,['return'],[0.5834287122088426],2017_Feb_16_1621,60.06026464,famFaceGrey,001,18,
187,./greyInner/TaylorSwift2_1_cut.png,0,11,11,186,,,None,None,2,2.71583714849,None,None,None,None,None,None,2,1.61635046218,,['return'],[0.5167078763297468],2017_Feb_16_1621,60.06026464,famFaceGrey,001,18,
16,./greyInner/BastianSchweinsteiger1_1_cut.png,0,12,12,15,,,None,None,1,2.01603680256,None,None,None,None,None,None,5,1.64979155653,Sebastian Schweinsteiger,"['lshift', 's', 'e', 'b', 'a', 's', 't', 'i', 'a', 'n', 'space', 'lshift', 's', 'c', 'h', 'w', 'e', 'i', 'n', 's', 't', 'e', 'i', 'g', 'e', 'r', 'return']","[1.01628508702197, 1.3163047829730203, 1.7662687271949835, 1.9161529894226987, 2.0323927821737016, 2.1161024985012773, 2.3992866473017784, 2.632496330268623, 2.7158118067927717, 2.865692861214484, 3.0487923879991286, 3.315525285241165, 3.43219652838161, 3.56600036184318, 3.7321600876639422, 3.848808876140538, 3.8987130909445114, 3.9986543238737795, 4.215180189083185, 4.315060794408055, 4.631751156095561, 4.781701178420917, 4.865045525235473, 4.981502165916027, 5.13150672100528, 5.214861653588741, 5.947872131579061]",2017_Feb_16_1621,60.06026464,famFaceGrey,001,18,
23,./greyInner/BenedictCumberbatch3_9_cut.png,0,13,13,22,,,None,None,1,3.09908121917,None,None,None,None,None,None,1,6.2977578694,Sherlock Holmes Dominik Cumberbatch???,"['lshift', 's', 'h', 'e', 'r', 'l', 'o', 'c', 'k', 'space', 'lshift', 'h', 'o', 'l', 'm', 'e', 's', 'space', 'lshift', 'backspace', 'comma', 'space', 'lshift', 'd', 'o', 'm', 'i', 'n', 'i', 'k', 'space', 'lshift', 'c', 'u', 'm', 'b', 'e', 'r', 'b', 'a', 't', 'c', 'h', 'lshift', u'?', u'?', 'lshift', u'?', u'?', u'?', 'return']","[7.780613730967161, 7.997230377186497, 8.297151593382296, 8.447057027155097, 8.563720250775077, 8.730349279143411, 8.880233541371126, 9.013487877047737, 9.0969066450416, 9.246712315936747, 9.413298680436128, 9.913073171421274, 10.11304096501408, 10.312912524317653, 10.46304475022771, 10.662890967836574, 10.896050288189144, 11.095893297988368, 12.62877174253299, 13.744948662217212, 14.044858009518066, 14.194752215957124, 14.711277247133694, 14.82786155863505, 15.594160118460422, 15.777605126335402, 15.927330281210743, 16.077206844696775, 16.210697275157145, 16.493917672207317, 16.810501855397888, 17.093612224576646, 17.39361973085397, 17.66014796984382, 17.9266492632305, 18.143241209319967, 18.27659145850339, 18.311254086751433, 18.5430000461929, 18.65974988066955, 18.809643766329827, 19.259454056467803, 19.45948696859341, 19.87579810303214, 20.425467506171117, 20.775570412704838, 21.175212485308293, 21.325090331920364, 22.00793708330457, 22.458225337079057, 27.039799293768738]",2017_Feb_16_1621,60.06026464,famFaceGrey,001,18,
115,./greyInner/JoshRadnor(Ted)9_1_cut.png,0,14,14,114,,,None,None,1,3.34897824848,None,None,None,None,None,None,1,1.16630824741,Ted Mosby ,"['lshift', 't', 'e', 'd', 'space', 'lshift', 'm', 'o', 's', 'b', 'y', 'space', 'lshift', 'h', 'o', 'w', 'space', 'lshift', 'i', 'space', 'm', 'e', 't', 'space', 'backspace', 'backspace', 'backspace', 'backspace', 'backspace', 'backspace', 'backspace', 'backspace', 'backspace', 'backspace', 'return']","[0.533589936712815, 0.8500252775374975, 1.150073843775317, 1.3830512813256064, 1.6166080492912442, 1.8997171353476006, 2.1497954059013864, 2.3163124817147036, 2.5992778578984144, 2.999004616678576, 3.149309422748047, 3.349167188469437, 3.898899464678834, 4.115624534864764, 4.315472677160869, 4.965283159766841, 5.081852394563612, 5.3649377428300795, 5.949200485531037, 6.181476054342056, 6.281403814467922, 6.397944499760342, 6.581306104588293, 6.6312917977556936, 7.314323639759095, 8.247282985263155, 8.465335126282298, 8.647090580841905, 8.81366475566756, 8.980193379593402, 9.130286470226565, 9.296832416326652, 9.463402741777827, 9.862874158909108, 10.579528336504154]",2017_Feb_16_1621,60.06026464,famFaceGrey,001,18,
213,./greyInner/notfamousface12_2_cut.png,0,15,15,212,,,None,None,2,2.94944941156,None,None,None,None,None,None,2,1.73297615443,,['return'],[0.7497866806625098],2017_Feb_16_1621,60.06026464,famFaceGrey,001,18,
140,./greyInner/LisaEdelstein(DrLisaCuddy)9_1_cut.png,0,16,16,139,,,None,None,2,2.616030002,None,None,None,None,None,None,3,1.84968845753,,['return'],[0.6668798790778965],2017_Feb_16_1621,60.06026464,famFaceGrey,001,18,
127,./greyInner/KatjaBurkard10_1_cut.png,0,17,17,126,,,None,None,2,5.68151711431,None,None,None,None,None,None,5,2.63265639996,,['return'],[0.31701531280123163],2017_Feb_16_1621,60.06026464,famFaceGrey,001,18,
31,./greyInner/BritneySpears1_1_cut.png,0,18,18,30,,,None,None,1,1.86625454867,None,None,None,None,None,None,2,1.33336102742,Britney Spears,"['lshift', 'b', 'r', 'i', 't', 'n', 'e', 'y', 'space', 'lshift', 's', 'p', 'e', 'a', 'r', 's', 'return']","[0.33358942346603726, 0.7168604397520539, 1.016737708956498, 1.2331092785243527, 1.9995817016242654, 2.199573553789378, 2.865956863941392, 3.2991632107841724, 3.4993430405920662, 3.7488419807305036, 3.882189984447905, 4.04885333637867, 4.215281235083239, 4.415189042632846, 4.7984414536222175, 5.1649548725326895, 5.581472910689627]",2017_Feb_16_1621,60.06026464,famFaceGrey,001,18,
92,./greyInner/JanHofer3_1_cut.png,0,19,19,91,,,None,None,2,4.04965560956,None,None,None,None,None,None,4,1.36662248443,,['return'],[0.4170168525488407],2017_Feb_16_1621,60.06026464,famFaceGrey,001,18,
35,./greyInner/BritneySpears8_5_cut.png,0,20,20,34,,,None,None,2,10.96257641,None,None,None,None,None,None,2,1.14976108234,,"['2', 'backspace', 'return']","[0.41658508137697936, 1.4498442929216253, 1.766364640701795]",2017_Feb_16_1621,60.06026464,famFaceGrey,001,18,
180,./greyInner/Shakira9_1_cut.png,0,21,21,179,,,None,None,2,2.98251679609,None,None,None,None,None,None,2,0.933513334225,,['return'],[0.46669331287193927],2017_Feb_16_1621,60.06026464,famFaceGrey,001,18,
118,./greyInner/JudithRakers4_3_cut.png,0,22,22,117,,,None,None,2,2.73248054784,None,None,None,None,None,None,3,1.63284694386,,['return'],[0.7339080231176922],2017_Feb_16_1621,60.06026464,famFaceGrey,001,18,
102,./greyInner/JimParsons(SheldonCooper)10_1_cut.png,0,23,23,101,,,None,None,1,5.28236840282,None,None,None,None,None,None,1,0.533511024601,Sheldon Cooper Big Bang Theory,"['lshift', 's', 'h', 'e', 'l', 'd', 'o', 'n', 'space', 'lshift', 'c', 'o', 'o', 'p', 'e', 'r', 'space', 'lshift', 'b', 'i', 'g', 'space', 'lshift', 'b', 'a', 'n', 'g', 'space', 'lshift', 't', 'h', 'e', 'o', 'r', 'y', 'return']","[0.833299758258363, 1.016750540195062, 1.2997361255838769, 1.5330542325136776, 1.6831749103112088, 1.833027415224933, 1.916379139998753, 2.1162375472849817, 2.2994663487952494, 2.682649471094919, 3.0992537993297447, 3.2988895846283413, 3.4491311968486116, 3.615659179213253, 3.782334079256543, 3.882274029059772, 3.9822515102387115, 5.231653253744298, 5.382133847779187, 5.631590124052309, 5.831545407185331, 5.964857162653061, 6.148097833061911, 6.231403365378355, 6.431204352869827, 7.197636036791664, 7.397392756509362, 7.514036733267858, 7.697411490116792, 7.7974800730880816, 7.930577867653483, 8.11401934694004, 8.480446796555043, 8.547164103842078, 8.79707781376419, 9.746720656239631]",2017_Feb_16_1621,60.06026464,famFaceGrey,001,18,
218,./greyInner/notfamousface3_3_cut.png,0,24,24,217,,,None,None,2,3.51570864364,None,None,None,None,None,None,3,2.96583265756,,['return'],[0.7833050832232402],2017_Feb_16_1621,60.06026464,famFaceGrey,001,18,
37,./greyInner/CarenMiosga13_1_cut.png,0,25,25,36,,,None,None,2,7.58067801547,None,None,None,None,None,None,5,1.01654042867,,['return'],[1.0332864779265947],2017_Feb_16_1621,60.06026464,famFaceGrey,001,18,
43,./greyInner/CobieSmulders(Robin)3_4_cut.png,0,26,26,42,,,None,None,1,19.9423389808,None,None,None,None,None,None,1,0.316782105041,How I met your mother ,"['lshift', 'h', 'o', 'w', 'space', 'lshift', 'i', 'space', 'm', 'e', 't', 'space', 'y', 'o', 'u', 't', 'space', 'backspace', 'backspace', 'r', 'space', 'm', 'o', 't', 'h', 'e', 'r', 'space', 'return']","[6.614065218618634, 6.764320624421089, 6.947628338046343, 7.197526008920249, 7.297543908498483, 7.48068353290364, 7.813916568720742, 7.947280611486349, 8.197206831864605, 8.313860432052024, 8.49699781099116, 8.630365703127609, 9.163462920289021, 9.34663462278695, 9.913100437803223, 10.0297434522181, 10.129535201220278, 10.712763104544138, 10.846176868355542, 10.946057794462831, 11.09599338164844, 11.31250513249688, 11.89591523940544, 12.095573800150305, 12.21230855792237, 12.312196861992561, 12.395357722096378, 12.545330840650422, 16.39398189255735]",2017_Feb_16_1621,60.06026464,famFaceGrey,001,18,
178,./greyInner/Shakira3_1_cut.png,0,27,27,177,,,None,None,2,9.27989133224,None,None,None,None,None,None,2,0.966717050662,,['return'],[1.3335955183029],2017_Feb_16_1621,60.06026464,famFaceGrey,001,18,
64,./greyInner/EmilyDeschanel6_12_cut.png,0,28,28,63,,,None,None,2,4.8992529653,None,None,None,None,None,None,2,2.76575836469,,['return'],[1.0664536253389088],2017_Feb_16_1621,60.06026464,famFaceGrey,001,18,
215,./greyInner/notfamousface13_1_cut.png,0,29,29,214,,,None,None,2,4.11551226153,None,None,None,None,None,None,1,0.650104317967,,['return'],[1.1004317070146499],2017_Feb_16_1621,60.06026464,famFaceGrey,001,18,
212,./greyInner/notfamousface11_1_cut.png,0,30,30,211,,,None,None,2,3.51567592398,None,None,None,None,None,None,2,1.21614670211,,['return'],[0.8172655219459557],2017_Feb_16_1621,60.06026464,famFaceGrey,001,18,
195,./greyInner/TomCruise7_1_cut.png,0,31,31,194,,,None,None,1,8.24714537023,None,None,None,None,None,None,1,0.783221680176,Tom Cruise,"['lshift', 't', 'o', 'm', 'space', 'lshift', 'c', 'r', 'u', 'i', 's', 'e', 'lshift', 'return']","[0.7841933257041092, 0.9168038539901318, 1.116673488610104, 1.3166201106578228, 1.4665589056494355, 1.6831537387661228, 1.7994939359559794, 2.04955712980518, 2.282804344144097, 2.399532044735679, 2.5991700755002967, 2.8326841795969813, 3.665779921164358, 4.581903719521506]",2017_Feb_16_1621,60.06026464,famFaceGrey,001,18,
206,./greyInner/WillSmith1_1_cut.png,0,32,32,205,,,None,None,1,1.74945852174,None,None,None,None,None,None,1,2.899278307,Will Smith,"['lshift', 'w', 'i', 'l', 'l', 'space', 'lshift', 's', 'm', 'i', 't', 'h', 'return']","[0.3336211807800282, 0.8167686322412919, 1.0332758921540517, 1.216647441193345, 1.3662365849377238, 1.549960993033892, 1.7497228452484705, 1.8664386769451085, 1.999637517514202, 2.1662367132521467, 2.232997005186917, 2.3328574013139587, 2.56608408566899]",2017_Feb_16_1621,60.06026464,famFaceGrey,001,18,
4,./greyInner/AlysonHannigan(Lily)5_4_cut.png,0,33,33,3,,,None,None,1,3.91542898679,None,None,None,None,None,None,1,3.69879950933,Lilly von How I met your mother    spielt auch bei American Pie mit,"['lshift', 'l', 'i', 'l', 'l', 'y', 'space', 'v', 'o', 'n', 'space', 'lshift', 'h', 'o', 'w', 'space', 'lshift', 'i', 'space', 'm', 'e', 't', 'space', 'y', 'o', 'u', 'r', 'space', 'm', 'o', 't', 'h', 'e', 'r', 'space', 'minus', 'space', 'backspace', 'comma', 'space', 's', 'p', 'i', 'e', 'l', 't', 'backspace', 'backspace', 'backspace', 'backspace', 'backspace', 'backspace', 'backspace', 'space', 'space', 'space', 's', 'p', 'i', 'e', 'l', 't', 'space', 'a', 'u', 'c', 'h', 'space', 'b', 'e', 'i', 'space', 'lshift', 'a', 'm', 'e', 'r', 'i', 'c', 'a', 'n', 'space', 'lshift', 'p', 'i', 'e', 'space', 'm', 'i', 't', 'return']","[0.6666749000469281, 0.816656358907494, 1.0498403793935722, 1.2163975528274023, 1.3496794756647432, 2.166222278108762, 2.332667819766357, 2.515972646368027, 2.6493514450557996, 2.8492008704706677, 2.999169177313888, 3.199843972142844, 3.2990265580992855, 3.4322619676968316, 3.5989163377598743, 3.7153463536196796, 3.915375416374445, 4.032022600942582, 4.248603961259505, 4.431837574487872, 4.498522803678497, 4.66517364514948, 4.748354072893562, 5.181337797748711, 5.2649881695979275, 5.481376419778826, 5.714707999508391, 5.814540166909865, 6.014614780560805, 6.181173878678237, 6.314458046985237, 6.431136988867365, 6.514310680209746, 6.581121013976372, 6.764278922895755, 7.713919199126394, 7.830549382306344, 8.863518607864535, 9.52989710629845, 10.112963977582694, 10.779243675482576, 10.862537018125295, 11.07912190703064, 11.195737334284786, 11.312311701578437, 11.462441361240053, 11.862220407314453, 12.045526837820944, 12.212134373861772, 12.39545780575645, 12.561984184216271, 12.745306974549749, 12.89518033022614, 13.594949881182401, 13.744834784974955, 13.894801808692137, 14.727817034239706, 14.827759871073795, 15.010960123079713, 15.11095556798682, 15.210955824612029, 15.294299529865384, 15.494086723774672, 15.627501449929696, 15.744057853487902, 15.92738385163102, 16.04394763315213, 16.16023746773135, 16.3948698142558, 16.52692795772964, 16.6268390372461, 16.843526576063596, 17.29309275189007, 17.476716755543748, 17.626635341337533, 17.743240182819136, 17.826495352524944, 17.926563293935033, 18.10979241622408, 18.276391291183245, 18.376454420875234, 18.52637621447866, 18.692857683603506, 18.892619215035666, 19.12607878637209, 19.20933908857114, 19.30921520296397, 19.409290522333322, 19.55928673711969, 19.64245176737677, 20.47555617002945]",2017_Feb_16_1621,60.06026464,famFaceGrey,001,18,
190,./greyInner/TaylorSwift8_1_cut.png,0,34,34,189,,,None,None,2,3.08229924244,None,None,None,None,None,None,1,1.16665340772,,['return'],[1.0668469027950778],2017_Feb_16_1621,60.06026464,famFaceGrey,001,18,
217,./greyInner/notfamousface2_cut.png,0,35,35,216,,,None,None,2,3.91545946099,None,None,None,None,None,None,3,2.23295530367,,['return'],[0.7168825736407598],2017_Feb_16_1621,60.06026464,famFaceGrey,001,18,
207,./greyInner/WillSmith14_1_cut.png,0,36,36,206,,,None,None,2,4.86509107613,None,None,None,None,None,None,1,2.36631004378,,['return'],[1.1665979126119055],2017_Feb_16_1621,60.06026464,famFaceGrey,001,18,
122,./greyInner/KaleyCuoco(Penny)14_2_cut.png,0,37,37,121,,,None,None,1,5.48156792601,None,None,None,None,None,None,1,1.76631780668,Penny aus Big Bang Theory,"['lshift', 'p', 'e', 'n', 'n', 'y', 'space', 'v', 'backspace', 'a', 'u', 's', 'space', 'lshift', 'b', 'i', 'g', 'space', 'lshift', 'b', 'a', 'n', 'g', 'space', 'lshift', 't', 'h', 'e', 'o', 'r', 'y', 'return']","[11.728981789907266, 11.912455988855072, 12.045709682966844, 12.278776618404663, 12.412196156277787, 12.528795223701309, 12.628789706268435, 12.961927790925984, 13.295121049904992, 13.445132341395947, 13.54514254222886, 13.645001976012281, 13.74494737909481, 13.911478569269093, 13.994767420972494, 14.12821999928201, 14.34467465112175, 14.42812004393636, 14.577879843152914, 14.927787073298532, 15.127541547550209, 15.211044360159576, 15.39435464003327, 15.49429875998976, 15.893855184080167, 15.993982790743758, 16.17710637610071, 16.693861407227814, 16.86044199767275, 17.043620436572382, 17.560164393828018, 18.159975389688043]",2017_Feb_16_1621,60.06026464,famFaceGrey,001,18,
1,./greyInner/AlysonHannigan(Lily)1_1_cut.png,0,38,38,0,,,None,None,1,2.31601223073,None,None,None,None,None,None,1,1.28288518095,Lilly How I met your mother,"['lshift', 'l', 'i', 'l', 'l', 'y', 'space', 'lshift', 'lshift', 'h', 'o', 'w', 'space', 'lshift', 'i', 'space', 'm', 'e', 't', 'space', 'y', 'p', 'backspace', 'o', 'u', 't', 'space', 'backspace', 'backspace', 'r', 'space', 'm', 'o', 't', 'h', 'e', 'r', 'return']","[0.10095810857092147, 0.23341786980745383, 0.4834778558470134, 0.6500106499261165, 0.8003080780326854, 0.9663529642712092, 1.233116014926054, 2.1825266119885782, 3.615562624141603, 4.165342696713196, 4.2986958329274785, 4.515179675829131, 4.615211689771968, 4.731714202127478, 4.8817867627803935, 4.998576053316356, 5.181300266376638, 5.281409588526003, 5.414792878149456, 5.481543225876521, 5.898077944639226, 6.03115809625524, 6.3311367322421574, 6.497613710434962, 7.114208286926441, 7.314107433390745, 7.497380502674787, 7.71399490343174, 7.863970909016643, 7.947159035502409, 8.04719586115607, 8.280466813284875, 8.4801860016305, 9.079983845469542, 9.179942721351836, 9.279770397817629, 9.34657110815533, 9.763135659552063]",2017_Feb_16_1621,60.06026464,famFaceGrey,001,18,
223,./greyInner/notfamousface8_9_cut.png,0,39,39,222,,,None,None,2,3.54891749257,None,None,None,None,None,None,2,1.79945961239,,['return'],[1.2831677889735147],2017_Feb_16_1621,60.06026464,famFaceGrey,001,18,
182,./greyInner/SigmarGabriel11_3_cut.png,0,40,40,181,,,None,None,2,8.33038642558,None,None,None,None,None,None,5,0.866543893102,,['return'],[2.1161448415841733],2017_Feb_16_1621,60.06026464,famFaceGrey,001,18,
78,./greyInner/GeorgeClooney16_1_cut.png,0,41,41,77,,,None,None,2,6.78105608791,None,None,None,None,None,None,1,0.666457410553,,['return'],[0.7501305578516622],2017_Feb_16_1621,60.06026464,famFaceGrey,001,18,
40,./greyInner/CarenMiosga9_1_cut.png,0,42,42,39,,,None,None,2,3.88187818535,None,None,None,None,None,None,1,1.31672564759,,['return'],[1.2999298772847396],2017_Feb_16_1621,60.06026464,famFaceGrey,001,18,
126,./greyInner/KatjaBurkard1_1_cut.png,0,43,43,125,,,None,None,2,11.5289854468,None,None,None,None,None,None,5,1.16664923757,,['return'],[0.45007236818491947],2017_Feb_16_1621,60.06026464,famFaceGrey,001,18,
109,./greyInner/JoachimLoew4_1_cut.png,0,44,44,108,,,None,None,1,2.74929941438,None,None,None,None,None,None,5,1.54990710183,Jogi Löw,"['lshift', 'j', 'o', 'g', 'i', 'space', 'lshift', 'l', u'\xf6', 'w', 'return']","[0.3166926071535272, 0.6333544193366833, 0.7833185560230049, 1.1162872683344176, 1.2497039191730437, 1.3495655984224868, 1.6162587188264297, 2.01610384578089, 2.182547783533664, 2.39935401130424, 3.148854555347498]",2017_Feb_16_1621,60.06026464,famFaceGrey,001,18,
156,./greyInner/NicoleKidman14_1_cut.png,0,45,45,155,,,None,None,1,2.41621008843,None,None,None,None,None,None,1,0.416949809329,Nicole Kidman,"['lshift', 'n', 'i', 'c', 'o', 'l', 'e', 'space', 'lshift', 'k', 'i', 'd', 'm', 'a', 'n', 'return']","[0.3006237264999072, 0.7503227056440664, 0.9002675954761798, 1.1501960613240954, 1.2669304983137408, 1.4501275425100175, 1.5334741347905947, 1.6500712775305146, 1.8831888963577512, 2.1998551994729496, 2.3830612255369488, 2.4664498401216406, 2.6161798067078053, 2.6997005830489798, 2.832908405485796, 3.682390600861254]",2017_Feb_16_1621,60.06026464,famFaceGrey,001,18,
202,./greyInner/Usher11_1_cut.png,0,46,46,201,,,None,None,1,3.96546087242,None,None,None,None,None,None,2,2.41582515128,Fällt mir nicht ein Amerikanischer Rapper,"['lshift', 'f', u'\xe4', 'l', 'l', 't', 'space', 'm', 'i', 'r', 'space', 'n', 'i', 'c', 'h', 't', 'space', 'e', 'i', 'n', 'space', 'lshift', 'backspace', 'comma', 'space', 'a', 'm', 'e', 'r', 'i', 'k', 'a', 'n', 'i', 's', 'c', 'h', 'e', 'r', 'space', 'lshift', 'r', 'a', 'p', 'p', 'e', 'r', 'space', 'backspace', 'space', '5', '0', 'backspace', 'backspace', 'backspace', 'return']","[15.061199233205116, 25.290522013270675, 25.407182670642214, 25.623766276425158, 25.773684220654104, 25.873659456367022, 25.973643032379186, 26.04020604402467, 26.223467565196188, 26.35697050611634, 26.4567551979344, 26.573301657281263, 26.673280421582604, 26.87336947037693, 26.99003654336775, 27.0899149032266, 27.22301301857442, 27.356425820042205, 27.423190923695074, 27.589690035772946, 27.739560825200897, 28.122750042341067, 28.55599937383522, 28.73916818930593, 28.922481035428063, 29.33893555895338, 29.4386060527504, 29.572119579443097, 29.68891015310146, 29.805395984847564, 29.988751494838652, 30.605747689092823, 30.688426736192923, 30.904858933365176, 31.038006769758795, 31.121664519570913, 31.188224644189177, 31.321317947822536, 31.404711053342908, 31.438033458736754, 31.571435995214415, 31.92231743714001, 32.104589669826964, 32.25447521518072, 32.40438513988556, 32.82088296884103, 32.920891565769125, 35.35331552784919, 36.36945786734577, 37.085568962771504, 38.068856916292134, 38.26873040028295, 38.935178828967764, 39.10177481689607, 39.268381390596915, 40.134555423250276]",2017_Feb_16_1621,60.06026464,famFaceGrey,001,18,
105,./greyInner/JimParsons(SheldonCooper)9_3_cut.png,0,47,47,104,,,None,None,1,8.48102933478,None,None,None,None,None,None,1,1.14986309069,Shaldon Cooper Big Bang Theory,"['lshift', 's', 'h', 'a', 'l', 'd', 'o', 'n', 'space', 'lshift', 'c', 'o', 'o', 'p', 'e', 'r', 'space', 'lshift', 'b', 'i', 'g', 'space', 'lshift', 'b', 'a', 'n', 'g', 'space', 'lshift', 't', 'h', 'e', 'o', 'r', 'y', 'return']","[0.21690951923665125, 0.5835576661520463, 0.8333969548875757, 0.9833710357888776, 1.0665723142919887, 1.3833422296556819, 1.466583926561725, 1.6331096634603455, 1.7995548843391589, 1.9829119982350676, 2.0661806407406402, 2.249549623531493, 2.6160656086867675, 2.8159285069050384, 2.915753617126029, 2.9992035008726816, 3.7488798328849953, 4.3653246046669665, 4.598536853882251, 4.74858888455492, 5.015060345314851, 5.131865354116599, 5.431482149178919, 5.531098751776881, 5.731517563399393, 5.831528085014725, 5.998020139912114, 6.097985431410052, 6.231218595541577, 6.33111459835709, 6.581107220394188, 6.73092379784066, 6.914231190687133, 7.097632251574396, 7.364241648145253, 7.7639472353803285]",2017_Feb_16_1621,60.06026464,famFaceGrey,001,18,
152,./greyInner/NeilPatrickHarris(Barney)11_2_cut.png,0,48,48,151,,,None,None,2,4.4986167925,None,None,None,None,None,None,5,1.0499767113,,['return'],[1.0337092672343715],2017_Feb_16_1621,60.06026464,famFaceGrey,001,18,
148,./greyInner/MilaKunis4_1_cut.png,0,49,49,147,,,None,None,1,7.79715383885,None,None,None,None,None,None,1,0.849960800566,,['return'],[2.249491241396754],2017_Feb_16_1621,60.06026464,famFaceGrey,001,18,
199,./greyInner/UrsulavonderLeyen7_1_cut.png,0,50,50,198,,,None,None,2,3.71537329922,None,None,None,None,None,None,3,1.26622253473,,['return'],[1.2833339535100095],2017_Feb_16_1621,60.06026464,famFaceGrey,001,18,
38,./greyInner/CarenMiosga2_11_cut.png,0,51,51,37,,,None,None,1,7.64769589452,None,None,None,None,None,None,3,1.93281146548,,['return'],[1.216268919659342],2017_Feb_16_1621,60.06026464,famFaceGrey,001,18,
117,./greyInner/JudithRakers2_1_cut.png,0,52,52,116,,,None,None,2,5.8480749293,None,None,None,None,None,None,5,2.44927458594,,['return'],[0.7834228098363383],2017_Feb_16_1621,60.06026464,famFaceGrey,001,18,
221,./greyInner/notfamousface6_8_cut.png,0,53,53,220,,,None,None,2,3.36574579007,None,None,None,None,None,None,5,1.78277194527,,['return'],[0.6335196215295582],2017_Feb_16_1621,60.06026464,famFaceGrey,001,18,
53,./greyInner/DannFlorek(DonaldDonCragen)2_1_cut.png,0,54,54,52,,,None,None,2,7.81389122703,None,None,None,None,None,None,4,1.26664275779,,['return'],[1.1164704342627374],2017_Feb_16_1621,60.06026464,famFaceGrey,001,18,
200,./greyInner/UrsulavonderLeyen8_2_cut.png,0,55,55,199,,,None,None,1,7.38089114234,None,None,None,None,None,None,4,1.34965637944,Ursula von der Leyen,"['lshift', 'u', 'r', 's', 'u', 'l', 'a', 'r', 'space', 'backspace', 'backspace', 'space', 'v', 'o', 'n', 'space', 'd', 'e', 'r', 'space', 'lshift', 'l', 'e', 'y', 'e', 'n', 'lshift', u'?', u'?', 'backspace', 'return']","[0.833362310550001, 1.0999450823001098, 1.2999103096444742, 1.5498727782724018, 1.633031713688979, 1.8662798903715156, 2.182898397124518, 2.3670840882405173, 2.499322510611819, 3.065823290751723, 3.365807700796722, 3.5322939816360304, 4.2653009310379275, 4.431928676280222, 4.6151539491984295, 4.781797412710148, 4.84853653310347, 4.94817687349132, 5.048427980826091, 5.098390256986022, 5.2981107284576865, 5.431635161701706, 5.564971296520525, 5.831380525774875, 6.064321073514293, 6.181284868893272, 6.414530158544949, 6.516159020105988, 7.2639292716485215, 8.813553123894962, 9.446730472140189]",2017_Feb_16_1621,60.06026464,famFaceGrey,001,18,
28,./greyInner/Beyonce3_2_cut.png,0,56,56,27,,,None,None,2,4.73174820491,None,None,None,None,None,None,2,1.29988849654,,['return'],[1.033123521199741],2017_Feb_16_1621,60.06026464,famFaceGrey,001,18,
89,./greyInner/Ice-T(OdafinFinTutuola)6_1_cut.png,0,57,57,88,,,None,None,2,2.34948219537,None,None,None,None,None,None,1,1.09959895964,,['return'],[0.4004709706059657],2017_Feb_16_1621,60.06026464,famFaceGrey,001,18,
171,./greyInner/SahraWagenknecht12_1_cut.png,0,58,58,170,,,None,None,2,4.94840238251,None,None,None,None,None,None,3,3.83192200404,,['return'],[0.550215372335515],2017_Feb_16_1621,60.06026464,famFaceGrey,001,18,
159,./greyInner/NicoleKidman7_1_cut.png,0,59,59,158,,,None,None,1,3.23242665664,None,None,None,None,None,None,1,0.5498621925,Nicole Kidman,"['lshift', 'n', 'i', 'c', 'o', 'l', 'e', 'space', 'lshift', 'k', 'i', 'd', 'm', 'a', 'n', 'return']","[0.4667603560919815, 0.8331220456057054, 0.9999002371223469, 1.1498643738086685, 1.2165547354961745, 1.449596970800485, 1.583027415224933, 1.9663141497767356, 2.2161749308397702, 2.4491106668647262, 2.59936446876236, 2.6993371382232, 2.8325308462954126, 2.915669893296581, 2.999201896971499, 3.182391883983655]",2017_Feb_16_1621,60.06026464,famFaceGrey,001,18,
52,./greyInner/DannFlorek(DonaldDonCragen)10_1_cut.png,0,60,60,51,,,None,None,2,3.94882228478,None,None,None,None,None,None,4,1.06660856254,,['return'],[0.4835019144229591],2017_Feb_16_1621,60.06026464,famFaceGrey,001,18,
188,./greyInner/TaylorSwift3_1_cut.png,0,61,61,187,,,None,None,1,5.79804208133,None,None,None,None,None,None,1,0.916723017188,,['return'],[1.8995676514205115],2017_Feb_16_1621,60.06026464,famFaceGrey,001,18,
146,./greyInner/MilaKunis1_3_cut.png,0,62,62,145,,,None,None,1,4.18180966654,None,None,None,None,None,None,1,1.13305962163,Mila Kunis,"['lshift', 'm', 'i', 'l', 'a', 'space', 'lshift', 'k', 'u', 'n', 'i', 's', 'return']","[5.114978802794212, 5.464914261665399, 5.664842919981311, 5.831523914861464, 6.13119588425252, 6.231191008380847, 6.3312682524374395, 6.482398107134941, 6.664358219946735, 6.814465424944501, 6.947741573727399, 7.080954849439877, 7.46412097035136]",2017_Feb_16_1621,60.06026464,famFaceGrey,001,18,
132,./greyInner/LeonardoDiCaprio2_1_cut.png,0,63,63,131,,,None,None,1,1.69938268912,None,None,None,None,None,None,1,0.733480422095,Leonardo DiCaprio,"['lshift', 'l', 'e', 'o', 'n', 'a', 'r', 'd', 'o', 'space', 'lshift', 'd', 'i', 'lshift', 'c', 'a', 'p', 'r', 'i', 'o', 'return']","[0.1671166154301318, 0.6002363514126046, 0.7335317470533482, 0.8668309920612955, 1.0848263548505201, 1.2497539610048989, 1.4331758726548287, 1.7998066973959794, 1.9164240493337275, 2.132963066564116, 2.266117639363074, 2.3661894301403663, 2.4828292367492395, 3.049203949969524, 3.1992627170402557, 3.3325411112891743, 3.449100722657022, 3.7823404948758252, 3.8989081257677753, 4.06559746095445, 4.348731567926734]",2017_Feb_16_1621,60.06026464,famFaceGrey,001,18,
74,./greyInner/GuentherJauch7_1_cut.png,0,64,64,73,,,None,None,1,1.49979694565,None,None,None,None,None,None,3,1.01671814132,Günther Jauch,"['lshift', 'g', u'\xfc', 'n', 't', 'h', 'e', 'r', 'space', 'lshift', 'j', 'a', 'u', 'c', 'h', 'return']","[0.6168723728042096, 0.8000864183923113, 1.0499946750351228, 1.2834398112281633, 1.4166322361779748, 1.916487243182928, 1.9830980511906091, 2.0663929977381486, 2.1498265216578147, 2.432866639806889, 2.7328026119284914, 2.816129636568803, 2.9327444222617487, 3.0493697937235993, 3.1327670693972323, 3.299209403245186]",2017_Feb_16_1621,60.06026464,famFaceGrey,001,18,
36,./greyInner/CarenMiosga1_1_cut.png,0,65,65,35,,,None,None,1,3.21580442883,None,None,None,None,None,None,3,1.94955238224,Anne Will,"['lshift', 'a', 'n', 'n', 'e', 'space', 'lshift', 'w', 'i', 'l', 'l', 'return']","[2.199289662643423, 2.4493156458993326, 2.6325033874491055, 2.7658626184966124, 2.849223325138155, 2.9658053911734896, 3.1321800402402005, 3.232341970469861, 3.4155784707218118, 3.615577380067407, 3.7654661332308024, 3.9322234739811393]",2017_Feb_16_1621,60.06026464,famFaceGrey,001,18,
169,./greyInner/RobertSeanLeonard(Wilson)2_6_cut.png,0,66,66,168,,,None,None,1,3.16591689464,None,None,None,None,None,None,1,0.683280447247,,['return'],[1.1500298967839626],2017_Feb_16_1621,60.06026464,famFaceGrey,001,18,
58,./greyInner/ElvisPresley4_10_cut.png,0,67,67,57,,,None,None,1,1.34954571,None,None,None,None,None,None,2,0.99990216181,Elvis Presley,"['lshift', 'e', 'l', 'i', 'backspace', 'v', 'i', 's', 'space', 'lshift', 'p', 'e', 'backspace', 'r', 'e', 'y', 'l', 'e', 's', 'backspace', 'backspace', 'backspace', 'backspace', 's', 'l', 'e', 'y', 'return']","[0.016875965549843386, 0.7001987558833207, 0.8330161878911895, 1.0827932451211382, 1.3165357452635362, 1.6665353603275435, 1.7996796681327396, 1.9662285012600478, 2.06642635895696, 2.216213745334244, 2.5327456412269385, 2.749338549660024, 3.648751905438985, 3.815562175048399, 3.9988143935697735, 4.665166267186578, 4.914909963197715, 5.06507843736108, 5.281640871598938, 6.08141966104813, 6.314542412375886, 6.497937057643867, 6.6809262357746775, 6.881065647179639, 7.214358027478738, 7.330765909453476, 8.547018148503412, 9.030153410287312]",2017_Feb_16_1621,60.06026464,famFaceGrey,001,18,
167,./greyInner/RobertSeanLeonard(Wilson)10_1_cut.png,0,68,68,166,,,None,None,2,2.63264773888,None,None,None,None,None,None,1,0.983306558817,,['return'],[0.8500721115597116],2017_Feb_16_1621,60.06026464,famFaceGrey,001,18,
99,./greyInner/JasonSegel(Marshall)7_1_cut.png,0,69,69,98,,,None,None,1,1.49940398898,None,None,None,None,None,None,1,1.21638536315,Mann von Lilly bei How I Met your mother ,"['lshift', 'm', 'a', 'n', 'n', 'space', 'v', 'o', 'n', 'space', 'lshift', 'l', 'i', 'i', 'backspace', 'l', 'l', 'y', 'space', 'b', 'e', 'i', 'space', 'lshift', 'h', 'o', 'w', 'space', 'lshift', 'i', 'space', 'lshift', 'm', 'e', 't', 'space', 'y', 'o', 'u', 't', 'space', 'backspace', 'backspace', 'r', 'space', 'm', 'o', 't', 'h', 'e', 'r', 'space', 'return']","[10.662833868824237, 10.862844647064776, 11.045890282646724, 11.162694649887271, 11.31265878657723, 11.412575319369353, 11.545936475107737, 11.662021972213552, 11.845555836418498, 11.912345319422457, 12.112308942862, 12.312248828508018, 12.544938525537873, 12.695375493363827, 13.11187845481254, 13.345075627319602, 13.478455709133414, 13.645071906263183, 13.928227505555697, 14.278166813801363, 14.394856341456034, 14.544767549286917, 14.711242282010062, 15.144634681812022, 15.510910722809058, 15.827551363447128, 16.510680402079743, 16.593866924660688, 16.69378570292247, 16.860511607141234, 16.977075709441124, 17.093518556539493, 17.410198011672037, 17.576785338515037, 17.776766284125188, 18.143811878650013, 18.72645114891202, 18.959723704945645, 19.24282316757308, 19.376127865860326, 19.45952321684308, 19.77597876686923, 19.909034859909298, 19.975861232724128, 20.059145593499125, 20.19259432243416, 20.359036656282115, 20.975544621916924, 21.092116743740917, 21.158650243538432, 21.258643122200738, 21.326711238114513, 27.089724038556596]",2017_Feb_16_1621,60.06026464,famFaceGrey,001,18,
179,./greyInner/Shakira7_1_cut.png,0,70,70,178,,,None,None,1,2.73243660085,None,None,None,None,None,None,2,1.39975787453,Beyonce Knowles,"['lshift', 'b', 'e', 'y', 'o', 'n', 'c', 'e', 'space', 'lshift', 'k', 'n', 'o', 'w', 'l', 'e', 's', 'backspace', 's', 'return']","[0.6673187074302405, 0.9346171415054414, 1.1338753676136548, 1.583615727504366, 1.8000238661006733, 2.0000131520173454, 2.1999292998734745, 2.41698317054761, 2.483351147369831, 2.9996865969987994, 3.1496430349470756, 3.3495178020602907, 3.516235365972534, 3.8659603925334523, 3.9492113920859993, 4.115842345137935, 4.315824894652906, 4.815616066247458, 5.9485374312862405, 6.048418036614748]",2017_Feb_16_1621,60.06026464,famFaceGrey,001,18,
20,./greyInner/BastianSchweinsteiger6_2_cut.png,0,71,71,19,,,None,None,1,1.7832701181,None,None,None,None,None,None,5,1.06690560571,Sebastian Schweinsteiger,"['lshift', 's', 'e', 'b', 'a', 's', 't', 'i', 'a', 'n', 'space', 'lshift', 's', 'c', 'h', 'w', 'e', 'i', 'n', 's', 't', 'e', 'i', 'g', 'e', 'r', 'return']","[0.10082787150531658, 0.3669958734753891, 0.5499526527310081, 0.6501582091696037, 0.7334493063426635, 0.8167596503735695, 1.0334811919710774, 1.149952909356216, 1.2666414746709052, 1.3665544788746047, 1.53309176388575, 1.7163587383292906, 1.7998034895863384, 1.9997446583547571, 2.0661658848184743, 2.1828355240540986, 2.249538075418968, 2.349532878764876, 2.5494772553465737, 2.899293383699842, 3.165867173585866, 3.3322771085586282, 3.399056005790044, 3.515678811007092, 3.665629474893649, 3.732262416790036, 3.8822275158236152]",2017_Feb_16_1621,60.06026464,famFaceGrey,001,18,
44,./greyInner/CobieSmulders(Robin)4_7_cut.png,0,72,72,43,,,None,None,1,2.26583631446,None,None,None,None,None,None,1,1.54980284802,How I met your mother Robin Shebatsky,"['lshift', 'h', 'o', 'w', 'space', 'lshift', 'i', 'space', 'm', 'e', 't', 'space', 'y', 'o', 'u', 'r', 'space', 'm', 'o', 't', 'h', 'e', 'r', 'space', 'lshift', 'r', 'o', 'b', 'b', 'u', 'backspace', 'backspace', 'i', 'n', 'space', 'lshift', 's', 'h', 'e', 'r', 'b', 'a', 'r', 't', 'y', 'k', 's', 'lshift', '0', 'backspace', 'backspace', 'backspace', 'backspace', 'backspace', 'backspace', 'backspace', 'backspace', 'backspace', 'b', 'a', 't', 's', 'k', 'y', 'lshift', u'?', 'return']","[2.2161393241512997, 2.6327208769362187, 2.7993191103341815, 3.065811421853141, 3.1822956496980623, 3.2991134897383745, 3.5490233502860065, 3.6489709988345567, 3.8488698245200794, 3.96543905931685, 4.132027027721051, 4.249012315423897, 4.898403537314152, 5.115112568455515, 5.4316460682530305, 5.616417184621241, 5.731496071075526, 5.948110471828841, 6.081376034839195, 6.247804895887384, 6.347953674096061, 6.414576351002324, 6.497774742478214, 6.6143673942824535, 7.397506633751618, 8.09730569655585, 8.247023473468289, 8.563638772408012, 9.24666034942129, 9.513268462869746, 9.946488924073492, 10.079801000323641, 10.89609744299014, 11.062743472750299, 11.46246574059478, 11.795861091577535, 12.312242092106317, 12.512152786686784, 12.862022806242749, 12.961973983379721, 13.111924005708715, 13.345055738900555, 13.561721464608127, 13.744903432099818, 14.161545612485497, 14.444816051363887, 14.72788953073541, 14.96114316069361, 15.094438877113134, 15.677393154277524, 15.87760185436855, 16.0607247981643, 16.26073814265328, 16.476990060920798, 17.37692693122881, 17.59353299167924, 17.760080220901727, 17.94336130970987, 18.543073184249806, 18.676287101527123, 18.859490240560262, 19.309237657631456, 19.42594386589917, 19.709134430318954, 19.80933998675755, 20.108977632586175, 22.525046898175788]",2017_Feb_16_1621,60.06026464,famFaceGrey,001,18,
98,./greyInner/JasonSegel(Marshall)6_1_cut.png,0,73,73,97,,,None,None,1,2.61589302853,None,None,None,None,None,None,1,0.84999865272,How I met your mother Mann von Lilly,"['lshift', 'h', 'o', 'w', 'space', 'lshift', 'i', 'space', 'm', 'e', 't', 'space', 'y', 'o', 'u', 'r', 'space', 'm', 'o', 't', 'e', 'r', 'backspace', 'backspace', 'h', 'e', 'r', 'space', 'lshift', 'm', 'a', 'n', 'n', 'space', 'v', 'o', 'n', 'space', 'lshift', 'l', 'i', 'l', 'l', 'y', 'return']","[0.20038128025043989, 0.9164410507255525, 1.0833077777861035, 1.2832428517176595, 1.3832270692946622, 1.5497460697915812, 1.7497510739740392, 1.9163287773881166, 2.266130149819219, 2.382764823931211, 2.549367548257578, 2.9492771521836403, 3.23242793976533, 3.3656604623356543, 3.599060047628882, 3.9654980830127897, 4.098831010025606, 4.198686273655767, 4.365385232271365, 4.498631869202654, 4.715176981273544, 4.815189427572477, 5.215000230964506, 5.364739820979594, 5.564900724708423, 5.6981188121353625, 5.764581740120775, 5.864856585249072, 8.13049144926481, 8.26379935535806, 8.39704887932021, 8.497051060632657, 8.63024829729693, 8.696932564143935, 8.863544270338025, 8.93014096398474, 9.113466962127859, 9.196817724561697, 9.330018169035611, 9.396621278301609, 9.629917572125123, 9.796594076073234, 9.929749931994593, 10.029830383860826, 10.297532360385958]",2017_Feb_16_1621,60.06026464,famFaceGrey,001,18,
173,./greyInner/SahraWagenknecht5_1_cut.png,0,74,74,172,,,None,None,2,3.93205763023,None,None,None,None,None,None,1,4.49855359865,,['return'],[1.0663650897913612],2017_Feb_16_1621,60.06026464,famFaceGrey,001,18,
157,./greyInner/NicoleKidman3_1_cut.png,0,75,75,156,,,None,None,1,3.39891582451,None,None,None,None,None,None,1,1.01665847606,Nicole Kidman,"['lshift', 'n', 'i', 'c', 'o', 'l', 'e', 'space', 'lshift', 'k', 'i', 'd', 'm', 'a', 'n', 'return']","[0.16707523468357977, 0.7669362723718223, 0.9334620092704426, 1.0666621329619375, 1.1501347921584966, 1.3166297340867459, 1.399894527221477, 1.5165943198662717, 1.6497312497122039, 1.783035627217032, 1.9662358792229497, 2.083025169758912, 2.199685185565613, 2.2829025031169294, 2.399605182796222, 2.632757445968309]",2017_Feb_16_1621,60.06026464,famFaceGrey,001,18,
13,./greyInner/BarackObama2_1_cut.png,0,76,76,12,,,None,None,1,1.53309304701,None,None,None,None,None,None,4,1.18286535668,Barack Obama,"['lshift', 'b', 'r', 'backspace', 'a', 'r', 'a', 'c', 'k', 'space', 'lshift', 'o', 'b', 'a', 'm', 'a', 'return']","[0.10017379912460456, 0.3169508358259918, 0.5501919553244079, 0.8167080046368937, 0.9831869075169379, 1.0831233287317446, 1.5162732181233878, 1.7162567299819784, 2.4159884287873865, 2.532746282788139, 2.615881801197247, 2.732645108473662, 2.96573995185463, 3.1156774637238414, 3.2155253493947384, 3.3156763730694365, 4.065400501443946]",2017_Feb_16_1621,60.06026464,famFaceGrey,001,18,
48,./greyInner/CristinMilioti(Tracy_Mutter)4_2_cut.png,0,77,77,47,,,None,None,1,8.96381943625,None,None,None,None,None,None,1,0.89996413669,,['return'],[0.3169331928729662],2017_Feb_16_1621,60.06026464,famFaceGrey,001,18,
2,./greyInner/AlysonHannigan(Lily)12_2_cut.png,0,78,78,1,,,None,None,1,1.41651098097,None,None,None,None,None,None,1,1.11662280522,Lilly von How I metyour mother,"['lshift', 'l', 'i', 'l', 'l', 'y', 'space', 'c', 'o', 'backspace', 'backspace', 'v', 'o', 'n', 'space', 'lshift', 'h', 'o', 'w', 'space', 'lshift', 'i', 'space', 'm', 'e', 't', 'y', 'o', 'u', 'r', 'space', 'm', 'o', 't', 'h', 'e', 'r', 'return']","[0.4668771203614597, 0.7500862900778884, 0.9500232887003222, 1.1332241822674405, 1.2664842919984949, 1.3998284463414166, 1.5662999712585588, 1.8992552107665688, 1.9995249233979848, 2.3493715259428427, 2.482698358115158, 2.58271240832255, 2.666001901590789, 2.865851968570496, 3.0324479564987996, 3.182972818303824, 3.4656918347136525, 3.6655252210839535, 3.8653913271118654, 3.9653409003440174, 4.098741512138076, 4.248615188593249, 4.565144518237503, 4.798360616823629, 4.914981497353438, 5.081710930164263, 5.898019562508125, 6.031228026506142, 6.581116843823111, 6.780984232973424, 6.880998603963235, 6.980952347348648, 7.147311598928354, 7.264051489193662, 7.347478597494046, 7.464035642613453, 7.547273490148655, 7.713871402764198]",2017_Feb_16_1621,60.06026464,famFaceGrey,001,18,
6,./greyInner/AngelaMerkel1_1_cut.png,0,79,79,5,,,None,None,1,0.91672750812,None,None,None,None,None,None,4,1.06665571734,Angela Merkel,"['lshift', 'a', 'n', 'g', 'e', 'l', 'a', 'space', 'lshift', 'm', 'e', 'r', 'k', 'l', 'backspace', 'e', 'l', 'return']","[0.10022095392560004, 0.23344738165906165, 0.4667603560919815, 0.6166471845681372, 0.7333556383018731, 0.8499803682061611, 0.9499164686385484, 1.066440152539144, 1.2161999517556978, 1.33304634130036, 1.4995566807119758, 1.6828881321307563, 1.7826388211688027, 1.9829851362919726, 2.2991866277952795, 2.399185601298086, 2.482478943937167, 2.9656228668063704]",2017_Feb_16_1621,60.06026464,famFaceGrey,001,18,
11,./greyInner/BarackObama1_3_cut.png,0,80,80,10,,,None,None,1,0.999966317999,None,None,None,None,None,None,4,1.0166324928, Barack Obama,"['space', 'lshift', 'b', 'a', 'r', 'a', 'c', 'j', 'backspace', 'k', 'space', 'lshift', 'o', 'b', 'a', 'm', 'a', 'return']","[0.10022159548680065, 0.2835982770229748, 0.383542717758246, 0.5834546954647521, 0.7667723533013486, 0.9500117405841593, 1.033033381751011, 1.1333521738706622, 1.4997597350629803, 1.6830982436622435, 1.8830034849634103, 2.066174225121358, 2.299555846682779, 2.5327533399722597, 2.6828387318637397, 2.7828053064877167, 2.8660190954506106, 3.4988653977416106]",2017_Feb_16_1621,60.06026464,famFaceGrey,001,18,
137,./greyInner/LisaEdelstein(DrLisaCuddy)10_1_cut.png,0,81,81,136,,,None,None,2,2.4329240596,None,None,None,None,None,None,3,1.79952922186,,['return'],[0.7171379152860027],2017_Feb_16_1621,60.06026464,famFaceGrey,001,18,
185,./greyInner/SigmarGabriel8_2_cut.png,0,82,82,184,,,None,None,2,6.83093079086,None,None,None,None,None,None,4,1.21661632544,,['return'],[0.8496621534941369],2017_Feb_16_1621,60.06026464,famFaceGrey,001,18,
168,./greyInner/RobertSeanLeonard(Wilson)11_2_cut.png,0,83,83,167,,,None,None,2,3.36556390727,None,None,None,None,None,None,2,3.66559386821,,['return'],[0.9335617721480958],2017_Feb_16_1621,60.06026464,famFaceGrey,001,18,
153,./greyInner/NeilPatrickHarris(Barney)13_4_cut.png,0,84,84,152,,,None,None,1,2.9491757854,None,None,None,None,None,None,1,0.866698830305,Barny von How I met your mother,"['lshift', 'b', 'a', 'r', 'n', 'y', 'space', 'v', 'o', 'n', 'space', 'lshift', 'h', 'o', 'w', 'space', 'lshift', 'i', 'space', 'm', 'e', 't', 'space', 'y', 'o', 'u', 'r', 'space', 'm', 'o', 't', 'h', 'e', 'r', 'return']","[0.25051870281095034, 0.7002937070465123, 0.8169261356924835, 1.0335254597412131, 1.1834870301827323, 1.6164624147349969, 1.7167366183020931, 1.8830564138224872, 2.04970885919829, 2.2329966844081355, 2.399647525879118, 2.5828031893324805, 2.815986568257358, 2.982729153085529, 3.165943198673631, 3.2490421480506484, 3.3992074144007347, 3.549206195435545, 3.7324298644489318, 3.882341713841015, 3.98239746557374, 4.115610741286218, 4.248846792444965, 4.781912893853587, 4.915032822307694, 5.181806137949025, 5.614989067784336, 5.698287863702717, 5.7983365582513215, 5.9815063360656495, 6.614682401184837, 6.747870655985025, 6.831148601137102, 6.914458945168008, 7.1477019893536635]",2017_Feb_16_1621,60.06026464,famFaceGrey,001,18,
5,./greyInner/AlysonHannigan(Lily)8_3_cut.png,0,85,85,4,,,None,None,1,1.34963905726,None,None,None,None,None,None,1,0.736748538522,Lilly von How I met your mother,"['lshift', 'l', 'i', 'l', 'l', 'y', 'space', 'c', 'o', 'backspace', 'backspace', 'v', 'o', 'n', 'space', 'lshift', 'h', 'o', 'w', 'space', 'lshift', 'i', 'space', 'm', 'e', 't', 'space', 'y', 'o', 'u', 'r', 'space', 'm', 'o', 't', 'h', 'e', 'r', 'return']","[0.1004855982173467, 0.2337219701585127, 0.4668184174479393, 0.6835806982235226, 0.8167801803574548, 1.2334383997913392, 1.4332711445968016, 1.6165666685483302, 1.7330127234563406, 2.0497377294850594, 2.1995870265927806, 2.766147151207406, 2.882754238158668, 3.049202987625904, 3.199248281896871, 3.332527959268191, 3.5157692712382413, 3.6667111482929613, 3.9322860262691393, 4.048960477219225, 4.182218020705477, 4.348523701864906, 4.8317006651705015, 5.015155296478042, 5.098480717213533, 5.3817168325331295, 5.698226273758337, 6.064876345353696, 6.231422933014983, 6.43130315340386, 6.881154824288387, 6.981075206454989, 7.114286236701446, 7.26429239569552, 7.430937463108421, 7.547539096784021, 7.630875744853256, 7.7308638118011, 7.964016074976826]",2017_Feb_16_1621,60.06026464,famFaceGrey,001,18,
24,./greyInner/BenedictCumberbatch4_1_cut.png,0,86,86,23,,,None,None,1,2.63321937055,None,None,None,None,None,None,1,0.966633326832,Dominik Cumberbatch Sherlock Holmes,"['lshift', 'd', 'o', 'm', 'i', 'n', 'i', 'k', 'space', 'lshift', 'c', 'u', 'm', 'b', 'e', 'r', 'b', 'a', 't', 'c', 'h', 'space', 'lshift', 's', 'h', 'e', 'r', 'l', 'o', 'c', 'k', 'space', 'lshift', 'h', 'o', 'l', 'm', 'e', 's', 'return']","[0.35071303191944025, 0.7169653351265879, 0.9168137981978361, 1.0830306230309361, 1.2331792087752547, 1.3666859990662488, 1.4996166667515354, 1.666415067466005, 1.8496810795695637, 2.1495663682981103, 2.499461729548784, 2.699411238623725, 2.9159640494362975, 3.09893205602566, 3.1825705589799327, 3.249034128526546, 3.482656977368606, 3.5489627226852463, 4.065524643676326, 4.615090755349229, 4.781915460102027, 5.532800173990836, 5.681583836743812, 5.814833360705961, 5.99794379404193, 6.1146589841737296, 6.148692240178207, 6.331166244090127, 6.514325756914332, 6.697740611380141, 6.764573079035472, 7.230900701611972, 7.581610525721771, 7.830656523143261, 7.9638733274478, 8.147220497132366, 8.297209013173415, 8.36377042091408, 8.796880854250048, 9.130202746397117]",2017_Feb_16_1621,60.06026464,famFaceGrey,001,18,
224,./greyInner/notfamousface9_1_cut.png,0,87,87,223,,,None,None,2,3.96556512623,None,None,None,None,None,None,5,2.11619263795,,['return'],[0.7165451120672515],2017_Feb_16_1621,60.06026464,famFaceGrey,001,18,
111,./greyInner/JoshRadnor(Ted)1_2_cut.png,0,88,88,110,,,None,None,1,1.94961268907,None,None,None,None,None,None,1,0.699833386367,Ted Mosby How I met your mother,"['lshift', 't', 'e', 'd', 'space', 'lshift', 'm', 'o', 's', 'b', 'y', 'space', 'lshift', 'h', 'o', 'w', 'space', 'lshift', 'i', 'space', 'm', 'e', 't', 'space', 'x', 'backspace', 'y', 'o', 'u', 'r', 'space', 'm', 'o', 't', 'h', 'e', 'r', 'return']","[0.21712765029224101, 0.633615855818789, 0.7669776531147363, 0.9501718102837913, 1.0667769725478138, 1.2664788387228327, 1.399894527221477, 1.5832179591161548, 1.9830595574749168, 2.3162159266466915, 2.4162165040506807, 2.549454479900305, 2.8829059675517783, 3.2502964016093756, 3.432451228462014, 3.615611382847419, 3.716388891742099, 3.9322638923804334, 4.06559938564169, 4.26554921549905, 4.398853913782659, 4.51539363673146, 4.665382794337347, 4.781965822712664, 5.281848416881985, 5.598331874847645, 5.698286580576678, 5.848213506673346, 6.047975679670344, 6.381275437928707, 6.514683427685668, 6.6811626513444935, 6.830751474310091, 6.947800276640919, 7.064369832220109, 7.164381316175422, 7.247410335305176, 7.514247165578126]",2017_Feb_16_1621,60.06026464,famFaceGrey,001,18,
96,./greyInner/JasonSegel(Marshall)11_1_cut.png,0,89,89,95,,,None,None,1,1.06640069648,None,None,None,None,None,None,1,0.616518230621,Marshall How I met your mother,"['lshift', 'm', 'a', 'r', 's', 'h', 'a', 'l', 'l', 'space', 'lshift', 'h', 'o', 'w', 'space', 'lshift', 'i', 'space', 'm', 'e', 't', 'space', 'y', 'o', 'u', 'r', 'space', 'm', 'o', 't', 'h', 'e', 'r', 'return']","[0.9336018697686086, 1.1002754866894975, 1.2500692886897014, 1.616385106524831, 1.8331063273399195, 1.9165754579480563, 2.083826480597054, 2.282992001008097, 2.4329426648946537, 2.7495509066575323, 2.933038257622684, 3.199377556626132, 3.365820211252867, 3.5325377751651104, 3.6322964837272593, 3.982351593898784, 4.115636724545766, 4.2656178626239125, 4.432108955177682, 4.582207819872565, 4.798700323863159, 5.148565210922243, 5.448461085419694, 5.581749103097536, 5.848313269554637, 6.0480343825875025, 6.148129911158321, 6.281481764246564, 6.414739628511597, 6.514714864220878, 6.631340877247567, 6.714636144573888, 6.781336771251517, 7.131172788023832]",2017_Feb_16_1621,60.06026464,famFaceGrey,001,18,
60,./greyInner/ElvisPresley6_1_cut.png,0,90,90,59,,,None,None,1,1.26646119577,None,None,None,None,None,None,2,1.28306706375,Elvis Presley,"['lshift', 'e', 'l', 'v', 'i', 's', 'space', 'lshift', 'p', 'r', 'e', 's', 'l', 'e', 'y', 'return']","[0.15026695391497924, 0.35017444068580517, 0.5335710106373881, 1.2498030404894962, 1.4165347187627049, 1.566479287812399, 1.6829936690664908, 1.899680566319148, 2.032888388755964, 2.216195781602437, 2.382787920156261, 2.699298002946307, 2.915899893243477, 3.3157629839297442, 3.548872583236516, 4.38205236941576]",2017_Feb_16_1621,60.06026464,famFaceGrey,001,18,
21,./greyInner/BenedictCumberbatch16_1_cut.png,0,91,91,20,,,None,None,1,1.48308265371,None,None,None,None,None,None,1,0.733553239374,Dominik Cumberbatch Sherlock Holmes,"['lshift', 'd', 'o', 'm', 'i', 'n', 'i', 'k', 'space', 'lshift', 'c', 'u', 'm', 'b', 'e', 'r', 'b', 'a', 't', 'c', 'h', 'space', 'lshift', 's', 'h', 'e', 'r', 'l', 'o', 'c', 'k', 'space', 'lshift', 'h', 'o', 'l', 'm', 'e', 's', 'return']","[0.3002532244900067, 0.6333848935246351, 0.8166922863711079, 0.9666413463564822, 1.1497447225119686, 1.2664246267377166, 1.3830801516123756, 1.566336219504592, 1.6997031492974202, 1.8995721423525538, 1.999446652840561, 2.149484569152264, 2.3659985654667253, 2.5326946370551013, 2.632654475277377, 2.699224864885764, 2.8658779518264055, 2.9325586900849885, 3.1490460615787015, 3.2987327227347123, 3.3658548555977177, 4.165366113724303, 4.2817598813344375, 4.4318452732259175, 4.6317867627803935, 4.7150579715344065, 4.781490104549448, 4.9815868520854565, 5.148298962722038, 5.2482684243732365, 5.348249113361817, 5.481416838174482, 5.581460400229844, 5.714677204534382, 5.7980841036333, 5.964628125046147, 6.130988018187054, 6.197855450966017, 6.4811521938827354, 6.980826601207809]",2017_Feb_16_1621,60.06026464,famFaceGrey,001,18,
50,./greyInner/CristinMilioti(Tracy_Mutter)9_1_cut.png,0,92,92,49,,,None,None,2,4.74850612307,None,None,None,None,None,None,2,1.44982536685,,['return'],[0.8166736810781003],2017_Feb_16_1621,60.06026464,famFaceGrey,001,18,
203,./greyInner/Usher2_1_cut.png,0,93,93,202,,,None,None,1,3.09907801136,None,None,None,None,None,None,2,1.41646382617,Usher oder ein anderer amerikanischer Rapper,"['lshift', 'u', 's', 'h', 'e', 'r', 'space', 'o', 'd', 'e', 'r', 'space', 'e', 'i', 'n', 'space', 'space', 'a', 'backspace', 'backspace', 'a', 'n', 'd', 'e', 'r', 'e', 'r', 'space', 'lshift', 'a', 'backspace', 'a', 'm', 'e', 'r', 'i', 'k', 'a', 'n', 'i', 's', 'c', 'h', 'e', 'r', 'space', 'lshift', 'r', 'a', 'p', 'p', 'e', 'r', 'return']","[0.6169509641404147, 0.8500557517290872, 1.0000692886860634, 1.183472915821767, 1.5999309679355065, 1.6498938856566383, 1.766329675574525, 2.0163505263371917, 2.1662129754622583, 2.332898140495672, 2.399543592848204, 2.466239407811372, 2.632854963379941, 2.699473790911725, 2.8993363683475764, 3.065759776120103, 3.88201932897573, 4.182113125330943, 4.74868094869089, 4.898601459168276, 5.265020889255538, 5.36509556706369, 5.514998434588051, 5.698214404859755, 5.74819239928911, 5.931366988817899, 5.981548037590983, 6.081281404454785, 6.297960602965759, 6.38138161642928, 6.731146099045873, 6.814498465384531, 6.931022149285127, 7.1309960377147945, 7.197709174848569, 7.330772966633958, 7.530998668116808, 7.630788492431748, 7.747252511071565, 8.047254243290809, 8.230578316746687, 8.347156854189961, 8.380621044769214, 8.563853374871542, 8.630321114571416, 8.713733466949634, 8.896884318688535, 9.246789944929333, 9.446708979812684, 9.729990325246035, 9.896537554468523, 9.963267372215341, 10.029816269496223, 10.696305758145172]",2017_Feb_16_1621,60.06026464,famFaceGrey,001,18,
30,./greyInner/Beyonce8_3_cut.png,0,94,94,29,,,None,None,2,1.98281416004,None,None,None,None,None,None,2,0.850155835389,,['return'],[0.6503474699347862],2017_Feb_16_1621,60.06026464,famFaceGrey,001,18,
216,./greyInner/notfamousface14_6_cut.png,0,95,95,215,,,None,None,2,2.18301644451,None,None,None,None,None,None,2,1.26674219989,,['return'],[0.8334919060544053],2017_Feb_16_1621,60.06026464,famFaceGrey,001,18,
68,./greyInner/EmmaWatson(HermioneGranger)3_1_cut.png,0,96,96,67,,,None,None,1,1.56637824181,None,None,None,None,None,None,1,0.983221872644,Emma Watson,"['lshift', 'e', 'm', 'm', 'a', 'space', 'lshift', 'w', 'a', 't', 's', 'o', 'n', 'return']","[0.4835108962870436, 0.966661234775529, 1.1496427141682943, 1.2831334654110833, 1.3997976513710455, 1.4829652478765638, 1.6831017722506658, 1.7996389289510262, 1.966397232044983, 2.166277131655079, 2.365958147067431, 2.465983745387348, 2.649279910900077, 3.1822927626708406]",2017_Feb_16_1621,60.06026464,famFaceGrey,001,18,
94,./greyInner/JanHofer7_1_cut.png,0,97,97,93,,,None,None,1,2.78264363288,None,None,None,None,None,None,4,1.61666161972,,['return'],[1.8663350646966137],2017_Feb_16_1621,60.06026464,famFaceGrey,001,18,
130,./greyInner/KatjaBurkard7_1_cut.png,0,98,98,129,,,None,None,2,3.04928286208,None,None,None,None,None,None,5,0.934046792961,,['return'],[0.7001625076336495],2017_Feb_16_1621,60.06026464,famFaceGrey,001,18,
80,./greyInner/GeorgeClooney4_2_cut.png,0,99,99,79,,,None,None,1,2.9992435985,None,None,None,None,None,None,1,1.08316406791,George Clooney,"['lshift', 'g', 'e', 'o', 'r', 'g', 'e', 'space', 'lshift', 'c', 'l', 'o', 'o', 'n', 'e', 'y', 'return']","[0.4167749837033625, 0.6667130729802011, 0.8334210134635214, 1.0665421608828183, 1.3331910135129874, 1.5330699507794634, 1.6829782715794863, 1.7995314673280518, 2.0327924752491526, 2.282702656579204, 2.416016657512955, 2.565962188906269, 2.8156032350125315, 2.99920061384546, 3.09908859713687, 3.7321931281003344, 4.431719847874774]",2017_Feb_16_1621,60.06026464,famFaceGrey,001,18,
128,./greyInner/KatjaBurkard4_1_cut.png,0,100,100,127,,,None,None,1,1.96618295036,None,None,None,None,None,None,3,2.41611545805,Frauke Ludowig,"['lshift', 'f', 'r', 'a', 'u', 'k', 'e', 'space', 'lshift', 'l', 'u', 'd', 'o', 'w', 'i', 'g', 'return']","[0.18354637466109125, 0.38350967731821584, 0.5669428163018893, 0.7000608200687566, 0.849998331937968, 1.4664511232440418, 1.5665241971473733, 1.683057504476892, 1.9329795547018875, 2.099594468709256, 2.3491941340689664, 2.5660282697826915, 2.7660175556993636, 2.9824487905279966, 3.149005322396988, 3.448827417276334, 3.782142893804121]",2017_Feb_16_1621,60.06026464,famFaceGrey,001,18,
151,./greyInner/NeilPatrickHarris(Barney)1_1_cut.png,0,101,101,150,,,None,None,1,1.08328917249,None,None,None,None,None,None,1,0.966224651886,Barney How I met your Mother,"['lshift', 'b', 'a', 'r', 'n', 'y', 'backspace', 'e', 's', 'backspace', 'y', 'space', 'lshift', 'h', 'o', 'w', 'space', 'lshift', 'i', 'space', 'm', 'e', 't', 'space', 'y', 'o', 'u', 'r', 'space', 'lshift', 'm', 'o', 't', 'h', 'e', 'r', 'return']","[1.2169342193737975, 1.6669713016526657, 1.7666931204039429, 1.9167666434004786, 2.000055174325098, 2.1334278781760077, 2.916116099611827, 3.0663365402870113, 3.316009664489684, 3.8160051735576417, 3.9325532368093263, 4.132404266129015, 4.565665466518112, 4.932236946780904, 5.098822669719084, 5.331949270417681, 5.465405698098039, 5.781963898029062, 5.931956905002153, 6.115179290893138, 6.265106537772226, 6.364958593592746, 6.54808538675934, 6.681547588497779, 7.214844331414497, 7.347812209693075, 7.581269535559841, 7.831033761554863, 7.9475240842366475, 8.097690954491554, 8.330831348768697, 8.480921231595858, 8.580920525877445, 8.697360165162536, 8.780642280471511, 8.816220738361153, 9.180546110339492]",2017_Feb_16_1621,60.06026464,famFaceGrey,001,18,
85,./greyInner/HughLaurie(DrHouse)9_2_cut.png,0,102,102,84,,,None,None,1,4.76523773719,None,None,None,None,None,None,1,1.20169487828,Krimiserie,"['lshift', 'k', 'r', 'i', 'm', 'i', 's', 'e', 'r', 'i', 'e', 'return']","[9.696637445660599, 9.846629490293708, 10.06311012538572, 10.129547711676423, 10.279798626543197, 10.429725552639866, 10.712854847897688, 10.912787355584442, 11.112793642892939, 11.262538044622488, 11.42921711481904, 11.763222911973571]",2017_Feb_16_1621,60.06026464,famFaceGrey,001,18,
34,./greyInner/BritneySpears7_1_cut.png,0,103,103,33,,,None,None,1,0.800039584374,None,None,None,None,None,None,2,1.06655659603,Britney Spears,"['lshift', 'b', 'r', 'i', 't', 'n', 'e', 'y', 'space', 'lshift', 's', 'p', 'e', 'a', 'r', 's', 'return']","[0.25059344477631385, 0.6338455349832657, 0.8336805252583872, 0.9836462658531673, 1.1170141579859774, 1.2669532737600093, 1.3834628432996396, 2.033163618816616, 2.099958234317455, 2.4163614970457274, 2.482702528264781, 2.6330609047545295, 2.7663065793458372, 2.949975171552069, 3.116097686783178, 3.432694701208675, 3.8658696115198836]",2017_Feb_16_1621,60.06026464,famFaceGrey,001,18,
222,./greyInner/notfamousface7_cut.png,0,104,104,221,,,None,None,2,2.29958856634,None,None,None,None,None,None,5,1.56630285829,,['return'],[0.4501252970439964],2017_Feb_16_1621,60.06026464,famFaceGrey,001,18,
142,./greyInner/MariskaHargitay(Liv)14_1_cut.png,0,105,105,141,,,None,None,2,2.69926881188,None,None,None,None,None,None,3,0.950015269173,,['return'],[0.3168783393302874],2017_Feb_16_1621,60.06026464,famFaceGrey,001,18,
201,./greyInner/Usher1_1_cut.png,0,106,106,200,,,None,None,1,1.93286599825,None,None,None,None,None,None,2,1.19959119675,Usher ,"['lshift', 'u', 's', 'h', 'e', 'r', 'space', 'return']","[0.4666256280906964, 0.7833339535100095, 0.949743246921571, 1.0998526973853586, 1.1829692897154018, 1.233249459804938, 1.3831808768372866, 2.0497412580771197]",2017_Feb_16_1621,60.06026464,famFaceGrey,001,18,
86,./greyInner/Ice-T(OdafinFinTutuola)10_1_cut.png,0,107,107,85,,,None,None,2,1.73304480155,None,None,None,None,None,None,1,1.19983049934,,['return'],[0.8003831407804682],2017_Feb_16_1621,60.06026464,famFaceGrey,001,18,
119,./greyInner/JudithRakers7_1_cut.png,0,108,108,118,,,None,None,2,2.31597534092,None,None,None,None,None,None,3,1.0330763664,,['return'],[0.36666065737153986],2017_Feb_16_1621,60.06026464,famFaceGrey,001,18,
170,./greyInner/RobertSeanLeonard(Wilson)8_1_cut.png,0,109,109,169,,,None,None,2,4.18206083803,None,None,None,None,None,None,1,1.49983864718,,['return'],[0.3839850747062883],2017_Feb_16_1621,60.06026464,famFaceGrey,001,18,
198,./greyInner/UrsulavonderLeyen5_1_cut.png,0,110,110,197,,,None,None,2,5.84807717477,None,None,None,None,None,None,1,2.94919182445,,['return'],[0.8331631055698381],2017_Feb_16_1621,60.06026464,famFaceGrey,001,18,
163,./greyInner/OmarEpps(DrEricForeman)3_1_cut.png,0,111,111,162,,,None,None,2,3.31560548048,None,None,None,None,None,None,5,1.46808806849,,['return'],[0.3335236633720342],2017_Feb_16_1621,60.06026464,famFaceGrey,001,18,
103,./greyInner/JimParsons(SheldonCooper)6_1_cut.png,0,112,112,102,,,None,None,1,5.1481915011,None,None,None,None,None,None,1,0.699865785245,Sheldon Cooper,"['lshift', 's', 'h', 'e', 'l', 'd', 'o', 'n', 'space', 'lshift', 'c', 'o', 'o', 'p', 'e', 'r', 'return']","[0.6500767308061768, 0.8170198037332739, 1.216855307258811, 1.3667713268041553, 1.7834378865409235, 1.9497730795483221, 2.0165516560009564, 2.2332042296911823, 2.3995060614797694, 2.582894932689669, 2.6846745613001985, 2.8329260484424594, 2.9827984417752305, 3.166147856929456, 3.2161380410288984, 3.2993191103341815, 3.6155145070006256]",2017_Feb_16_1621,60.06026464,famFaceGrey,001,18,
93,./greyInner/JanHofer5_1_cut.png,0,113,113,92,,,None,None,2,2.98226819084,None,None,None,None,None,None,3,0.900070956748,,['return'],[0.46710712030835566],2017_Feb_16_1621,60.06026464,famFaceGrey,001,18,
138,./greyInner/LisaEdelstein(DrLisaCuddy)2_2_cut.png,0,114,114,137,,,None,None,2,2.31615305358,None,None,None,None,None,None,2,4.18205666788,,['return'],[0.4835019144193211],2017_Feb_16_1621,60.06026464,famFaceGrey,001,18,
42,./greyInner/CobieSmulders(Robin)2_1_cut.png,0,115,115,41,,,None,None,1,1.81629291408,None,None,None,None,None,None,1,0.71655024456,Robin Shebartsky How I met your mother,"['lshift', 'r', 'o', 'b', 'i', 'n', 'space', 'lshift', 's', 'h', 'e', 'r', 'backspace', 'b', 'a', 'r', 't', 's', 'k', 'y', 'space', 'lshift', 'h', 'o', 'w', 'space', 'lshift', 'i', 'space', 'm', 'e', 't', 'space', 'y', 'o', 'u', 'r', 'space', 'm', 'o', 't', 'h', 'e', 'r', 'return']","[0.40013607528453576, 0.833307136221265, 1.0498945913786883, 1.816033081500791, 2.0158520327240694, 2.1827123441653384, 2.366068174935208, 2.6158503646656754, 2.8487976488031563, 3.0657572098753008, 3.2156632852093026, 3.265470944945264, 3.698844418668159, 3.9986386056043557, 4.132031197874312, 4.348497397826577, 5.081533538290387, 5.481179139485903, 5.6313681436295155, 5.781300202219427, 5.931218146452011, 6.147760371492041, 6.26444252118381, 6.431046849418635, 6.580951962409017, 6.797728999114042, 6.964003885299462, 7.147556034018635, 7.5471259309088055, 7.697153582226747, 7.863786139183503, 8.046883741280908, 8.263576733374066, 9.013213930105849, 9.196530304820044, 9.396382938048191, 9.646482700925844, 9.74629337600345, 9.896339632618037, 10.062910599630413, 10.279453145449224, 10.37938571729319, 10.479254453723115, 10.5164371371975, 10.679148146911757]",2017_Feb_16_1621,60.06026464,famFaceGrey,001,18,
46,./greyInner/CristinMilioti(Tracy_Mutter)10_1_cut.png,0,116,116,45,,,None,None,1,4.51531632852,None,None,None,None,None,None,2,0.983287311959,,['return'],[0.333606104075443],2017_Feb_16_1621,60.06026464,famFaceGrey,001,18,
54,./greyInner/DannFlorek(DonaldDonCragen)5_1_cut.png,0,117,117,53,,,None,None,2,4.01540069391,None,None,None,None,None,None,4,1.54988208092,,['return'],[1.51640922925435],2017_Feb_16_1621,60.06026464,famFaceGrey,001,18,
51,./greyInner/DannFlorek(DonaldDonCragen)1_1_cut.png,0,118,118,50,,,None,None,2,3.1836063607,None,None,None,None,None,None,1,2.54917957061,,['return'],[0.9668950840969046],2017_Feb_16_1621,60.06026464,famFaceGrey,001,18,
49,./greyInner/CristinMilioti(Tracy_Mutter)8_1_cut.png,0,119,119,48,,,None,None,1,6.96424350868,None,None,None,None,None,None,1,0.733281858684,,['return'],[1.2333963774872245],2017_Feb_16_1621,60.06026464,famFaceGrey,001,18,
123,./greyInner/KaleyCuoco(Penny)3_1_cut.png,0,120,120,122,,,None,None,1,2.98252545718,None,None,None,None,None,None,1,0.949729774118,Penny Big Bang Theory,"['lshift', 'p', 'e', 'n', 'n', 'y', 'space', 'lshift', 'b', 'i', 'g', 'space', 'lshift', 'b', 'a', 'n', 'g', 'space', 'lshift', 't', 'h', 'e', 'o', 'r', 'y', 'return']","[0.367045594521187, 0.7667531064398645, 0.9668206629103224, 1.249952203634166, 1.3832604305134737, 1.4999624686279276, 1.5829629382496933, 1.7831155016756384, 2.0663259545144683, 2.2329841739483527, 2.566203736969328, 2.699562968016835, 2.832807038703322, 2.966029617062304, 3.1659608416266565, 3.2326508825317433, 3.4491732191527262, 3.5325303972022084, 3.6490069263018086, 3.749034449308965, 4.082256257792324, 4.248893626467179, 5.031882740444416, 5.148604346195498, 5.4983098051161505, 6.1814446178068465]",2017_Feb_16_1621,60.06026464,famFaceGrey,001,18,
82,./greyInner/HughLaurie(DrHouse)4_1_cut.png,0,121,121,81,,,None,None,1,2.98274198433,None,None,None,None,None,None,1,1.48345475962,aus einer amerikanischen Krimiserie,"['lshift', 'k', 'r', 'backspace', 'backspace', 'lshift', 'a', 'm', 'e', 'r', 'i', 'k', 'a', 'n', 'i', 's', 'c', 'h', 'e', 'space', 'lshift', 'k', 'r', 'i', 'm', 'i', 's', 'backspace', 'backspace', 'backspace', 'backspace', 'backspace', 'backspace', 'backspace', 'backspace', 'backspace', 'backspace', 'backspace', 'backspace', 'backspace', 'backspace', 'backspace', 'backspace', 'backspace', 'backspace', 'backspace', 'backspace', 'backspace', 'a', 'u', 's', 'space', 'e', 'i', 'n', 'e', 'r', 'space', 'a', 'm', 'e', 'r', 'i', 'k', 'a', 'n', 'i', 's', 'c', 'h', 'e', 'n', 'space', 'lshift', 'lshift', 'k', 'r', 'i', 'm', 'i', 's', 'e', 'r', 'i', 'e', 'return']","[1.399827804780216, 1.7495977406761085, 1.949429523141589, 2.2327711753932817, 2.399554178620747, 2.6326897611870663, 2.749279205181665, 2.8993068564996065, 3.0325874962145463, 3.2157405934194685, 3.282461108516145, 3.4323636552617245, 3.515829257277801, 3.6156861248127825, 3.7489545748503588, 3.8321811950518168, 3.932252985829109, 3.982109083492105, 4.14870924157367, 4.298681397784094, 4.515188978479273, 4.715229589350201, 4.915123924100044, 4.981441217532847, 5.114970462491328, 5.264948071977415, 5.514824571309873, 5.881324838199362, 6.214589631334093, 7.597455180486577, 7.764060150278965, 7.9316608241751965, 8.113805706823769, 8.247221395322413, 8.413786588276707, 8.580402464624058, 8.73025240329298, 8.89690132008036, 9.046755108116486, 9.230204286148364, 9.413041734886065, 9.579955616747611, 9.763212646983447, 9.929716570775781, 10.096403660496435, 10.262962437835085, 10.446130932523374, 10.596271819522372, 11.062602329126094, 11.212570315186895, 11.329083092536166, 11.429246626667009, 11.595885599246685, 11.695804056726047, 11.829210121795768, 11.895713147401693, 11.962358599754225, 12.02907622782368, 12.22871939108154, 12.312179860600736, 12.51214284247908, 12.628747363181901, 12.728711371557438, 12.895411934077856, 12.995343222795782, 13.078831600261765, 13.22835145532008, 13.361615093643195, 13.445112452973262, 13.495158773745061, 13.62840541067635, 13.728312320043187, 13.878093611583608, 14.077974473533686, 14.611206418700021, 14.744581047234533, 14.894866606446158, 14.9944828882617, 15.144408852014749, 15.294366893864208, 15.594114246781828, 15.844206310917798, 15.91073082884759, 16.077380387196172, 16.14395719242384, 16.31066449134596]",2017_Feb_16_1621,60.06026464,famFaceGrey,001,18,
71,./greyInner/GuentherJauch2_1_cut.png,0,122,122,70,,,None,None,1,2.39938865565,None,None,None,None,None,None,3,1.24991338914,Günther Jauch,"['lshift', 'g', u'\xfc', 'n', 't', 'h', 'e', 'r', 'space', 'lshift', 'j', 'a', 'u', 'c', 'h', 'return']","[0.11724415793651133, 0.4173940909568046, 0.600502920391591, 0.8504968255510903, 0.9671449724628474, 1.366846389544662, 1.4665550562785938, 1.5167354634904768, 1.633914823672967, 1.8507518464139139, 2.249737280391855, 2.349827676469431, 2.466410063283547, 2.5663811288395664, 2.633090095823718, 2.816383053526806]",2017_Feb_16_1621,60.06026464,famFaceGrey,001,18,
135,./greyInner/LeonardoDiCaprio7_1_cut.png,0,123,123,134,,,None,None,1,1.43305333433,None,None,None,None,None,None,1,1.53270875142,Leonardo DiCaprio,"['lshift', 'l', 'e', 'o', 'n', 'a', 'r', 'd', 'o', 'space', 'lshift', 'd', 'i', 'lshift', 'c', 'a', 'r', 'backspace', 'p', 'r', 'i', 'o', 'return']","[0.2502803625611705, 0.6667294328071875, 0.8001608395752555, 0.8834416717581917, 1.1000737154645321, 1.2166804816333752, 1.3832091055592173, 1.583128140446206, 1.6663961413905781, 1.816424113490939, 1.9994812971890497, 2.116300420351763, 2.3327364668948576, 2.499304546876374, 2.5997856541616784, 2.782791833687952, 3.032514037375222, 3.432448982995993, 3.7657028695793997, 3.915668610170542, 4.065592007678788, 4.315392161141062, 4.715201681407052]",2017_Feb_16_1621,60.06026464,famFaceGrey,001,18,
7,./greyInner/AngelaMerkel3_1_cut.png,0,124,124,6,,,None,None,1,1.51645862952,None,None,None,None,None,None,4,1.4665749447,Angela Merkel,"['lshift', 'a', 'n', 'g', 'e', 'l', 'a', 'space', 'lshift', 'm', 'e', 'r', 'k', 'e', 'l', 'return']","[0.30016533050729777, 0.4335399590418092, 0.6500382370904845, 0.7999436708632857, 0.9332271976054471, 1.0332107736212492, 1.1165586490242276, 1.2832069242504076, 1.432904812740162, 1.5331061990291346, 1.6497161730076186, 1.7328856941967388, 1.882557920209365, 1.9827323608951701, 2.0995081786313676, 2.8991551271064964]",2017_Feb_16_1621,60.06026464,famFaceGrey,001,18,
55,./greyInner/DannFlorek(DonaldDonCragen)8_1_cut.png,0,125,125,54,,,None,None,2,1.91612957241,None,None,None,None,None,None,4,2.11603256825,,['return'],[0.3003167391216266],2017_Feb_16_1621,60.06026464,famFaceGrey,001,18,
63,./greyInner/EmilyDeschanel5_1_cut.png,0,126,126,62,,,None,None,2,3.08241664827,None,None,None,None,None,None,3,2.18287626324,,['return'],[0.7670068441802869],2017_Feb_16_1621,60.06026464,famFaceGrey,001,18,
194,./greyInner/TomCruise6_1_cut.png,0,127,127,193,,,None,None,1,1.85115121871,None,None,None,None,None,None,1,0.700170206375,Tom Cruise,"['lshift', 't', 'o', 'm', 'space', 'lshift', 'c', 'r', 'u', 'i', 's', 'e', 'return']","[0.30043478651350597, 0.6502461031523126, 0.8336243885896693, 1.0334327540440427, 1.183228159949067, 1.349778917759977, 1.4668091147977975, 1.6665661552979145, 1.8497484435683873, 1.9996432915722835, 2.1829856495423883, 2.3162454384946614, 2.4494522985878575]",2017_Feb_16_1621,60.06026464,famFaceGrey,001,18,
12,./greyInner/BarackObama11_2_cut.png,0,128,128,11,,,None,None,1,1.78281428835,None,None,None,None,None,None,4,0.966722183159,Barack Obama,"['lshift', 'b', 'a', 'r', 'a', 'c', 'k', 'space', 'lshift', 'o', 'b', 'a', 'm', 'a', 'return']","[0.0502785661847156, 0.9497945718721894, 1.199895938654663, 1.3664694719154795, 1.5329817360143352, 1.6330050888682308, 1.7663386574422475, 1.8996266751164512, 1.9829232255651732, 2.1162211874543573, 2.3493365608155727, 2.4659802167952876, 2.615947561294888, 2.699280039210862, 3.215860886277369]",2017_Feb_16_1621,60.06026464,famFaceGrey,001,18,
59,./greyInner/ElvisPresley5_2_cut.png,0,129,129,58,,,None,None,1,1.19973811442,None,None,None,None,None,None,2,1.08329526733,Elvis Presley,"['lshift', 'e', 'l', 'v', 'i', 's', 'space', 'lshift', 'p', 'r', 'e', 's', 'l', 'e', 'y', 'return']","[0.18362143740523607, 0.45031552015279885, 0.6167293044964026, 0.9499543207894021, 1.01652791820743, 1.1830822046104004, 1.2998192078484863, 1.4497275286521472, 1.5995174812778714, 1.7663530925856321, 1.8662564733604086, 2.149467246981658, 2.299415023840993, 2.4994267644215142, 2.849309294433624, 3.1490781396751117]",2017_Feb_16_1621,60.06026464,famFaceGrey,001,18,
144,./greyInner/MariskaHargitay(Liv)6_5_cut.png,0,130,130,143,,,None,None,2,5.04828459174,None,None,None,None,None,None,3,0.933466500202,,['return'],[0.7166224202810554],2017_Feb_16_1621,60.06026464,famFaceGrey,001,18,
9,./greyInner/AngelaMerkel5_1_cut.png,0,131,131,8,,,None,None,1,1.23322026874,None,None,None,None,None,None,4,1.13299546544,Angela Merkel,"['lshift', 'a', 'n', 'g', 'e', 'l', 'a', 'space', 'lshift', 'm', 'e', 'r', 'k', 'e', 'l', 'return']","[0.20049483670663903, 0.36709980650266516, 0.5835531752163661, 0.7002346833505726, 0.8334922268331866, 0.9167964760272298, 1.033405487662094, 1.1334628432996396, 1.2832280957918556, 1.3833630804183485, 1.4999615062843077, 1.5999701032123994, 1.7830635351601813, 1.9662519182675169, 2.083109855928342, 2.4162312599764846]",2017_Feb_16_1621,60.06026464,famFaceGrey,001,18,
150,./greyInner/MilaKunis7_3_cut.png,0,132,132,149,,,None,None,2,4.06516761447,None,None,None,None,None,None,1,1.84975100982,,['return'],[0.3168632626257022],2017_Feb_16_1621,60.06026464,famFaceGrey,001,18,
106,./greyInner/JoachimLoew1_1_cut.png,0,133,133,105,,,None,None,1,1.03321751002,None,None,None,None,None,None,5,0.866723530438,Jogi Löw,"['lshift', 'j', 'o', 'g', 'i', 'space', 'lshift', 'l', u'\xf6', 'w', 'return']","[0.11695320960643585, 0.48349838583089877, 0.9666836894430162, 1.2332863496158097, 1.3664771706608008, 1.4665611511154566, 1.5831165923300432, 1.7163375667878427, 1.8826727597952413, 1.982708943887701, 2.182856054034346]",2017_Feb_16_1621,60.06026464,famFaceGrey,001,18,
83,./greyInner/HughLaurie(DrHouse)5_3_cut.png,0,134,134,82,,,None,None,1,8.21351661902,None,None,None,None,None,None,1,1.79967325251,,['return'],[1.2831764500588179],2017_Feb_16_1621,60.06026464,famFaceGrey,001,18,
197,./greyInner/UrsulavonderLeyen4_1_cut.png,0,135,135,196,,,None,None,1,2.84929678398,None,None,None,None,None,None,4,1.16650809395,Ursula von der Leyen,"['lshift', 'u', 'r', 's', 'u', 'l', 'a', 'space', 'lshift', 'v', 'backspace', 'v', 'o', 'n', 'space', 'd', 'e', 'r', 'space', 'lshift', 'l', 'e', 'y', 'e', 'n', 'return']","[0.11708601292411913, 0.866718077162659, 1.0333410106904921, 1.5831489912088728, 1.7163670786358125, 1.9329574208168196, 2.016248197211098, 2.199383972241776, 2.499270864875143, 2.899248153586086, 3.199009941643453, 3.2991314534701814, 3.3990861591992143, 3.582502617573482, 3.732258246636775, 3.815711017414287, 3.965596883546823, 4.015589633898344, 4.1156161945618805, 4.348742474478058, 4.531951387569279, 4.698667989137903, 5.031890118407318, 5.215089087287197, 5.315640124823403, 5.648196954378363]",2017_Feb_16_1621,60.06026464,famFaceGrey,001,18,
84,./greyInner/HughLaurie(DrHouse)8_1_cut.png,0,136,136,83,,,None,None,2,5.98087375601,None,None,None,None,None,None,5,3.21568445675,,['return'],[0.600075640151772],2017_Feb_16_1621,60.06026464,famFaceGrey,001,18,
125,./greyInner/KaleyCuoco(Penny)7_1_cut.png,0,137,137,124,,,None,None,1,2.84926983838,None,None,None,None,None,None,1,0.866451187401,Penny Big Bang Theory,"['lshift', 'p', 'e', 'n', 'n', 'y', 'space', 'lshift', 'b', 'i', 'g', 'space', 'lshift', 'b', 'a', 'n', 'g', 'space', 'lshift', 't', 'h', 'e', 'o', 'r', 'y', 'return']","[0.21697175074586994, 0.7667524648823019, 0.8666510339426168, 1.1163546323332412, 1.2498745746452187, 1.3331018364078773, 1.4498276123122196, 1.6162657760069123, 1.6832140455881017, 1.8662096393418324, 2.116132972689229, 2.2328555407875683, 2.399153523201676, 2.5161214887339156, 2.715963536185882, 2.832561962051841, 2.9658634525294474, 3.082486899307696, 3.2490084660530556, 3.3490055148686224, 3.548904340554145, 3.65045878093224, 3.7654712657240452, 3.8820995242203935, 4.232008037488413, 5.181695468520047]",2017_Feb_16_1621,60.06026464,famFaceGrey,001,18,
22,./greyInner/BenedictCumberbatch2_2_cut.png,0,138,138,21,,,None,None,2,4.79833816216,None,None,None,None,None,None,1,2.68231906671,,['return'],[0.41695109245119966],2017_Feb_16_1621,60.06026464,famFaceGrey,001,18,
95,./greyInner/JanHofer9_2_cut.png,0,139,139,94,,,None,None,2,2.81599587091,None,None,None,None,None,None,3,1.01636496148,,['return'],[0.650061012540391],2017_Feb_16_1621,60.06026464,famFaceGrey,001,18,
141,./greyInner/MariskaHargitay(Liv)13_1_cut.png,0,140,140,140,,,None,None,2,2.93226838332,None,None,None,None,None,None,3,1.06664577313,,['return'],[0.41674258482817095],2017_Feb_16_1621,60.06026464,famFaceGrey,001,18,
17,./greyInner/BastianSchweinsteiger12_1_cut.png,0,141,141,16,,,None,None,1,1.33317112509,None,None,None,None,None,None,5,1.83307521159,Sebastian Schweinsteiger,"['lshift', 's', 'e', 'b', 'a', 't', 'i', 'a', 'backspace', 'backspace', 'backspace', 's', 't', 'i', 'a', 'n', 'space', 'lshift', 's', 'c', 'h', 'w', 'e', 'i', 'n', 's', 't', 'e', 'i', 'g', 'e', 'r', 'return']","[0.08607836293958826, 0.25031019518792164, 0.4835715238878038, 0.6334926759263908, 0.8668467103270814, 1.066741045076924, 1.216647441193345, 1.366704283580475, 1.6665299070482433, 1.81630221672458, 1.9659856700709497, 2.0158424092951464, 2.1504728952895675, 2.266154529170308, 2.41612026976145, 2.516167681187653, 2.649303969472385, 2.833715490382019, 2.882547334436822, 3.0491455678311468, 3.149112463237543, 3.249133891404199, 3.315764908613346, 3.3991182372956246, 3.5822870527663326, 3.9487485051577096, 4.165273408027133, 4.29869679526746, 4.382002327583905, 4.498680307126051, 4.631953568878089, 4.69869236849263, 4.898451975241187]",2017_Feb_16_1621,60.06026464,famFaceGrey,001,18,
160,./greyInner/NicoleKidman8_2_cut.png,0,142,142,159,,,None,None,2,7.33080279926,None,None,None,None,None,None,1,0.600098094819,,['return'],[0.600103227312502],2017_Feb_16_1621,60.06026464,famFaceGrey,001,18,
14,./greyInner/BarackObama4_1_cut.png,0,143,143,13,,,None,None,1,1.18327339007,None,None,None,None,None,None,4,0.966854986473,Barack Obama,"['lshift', 'b', 'a', 'r', 'a', 'c', 'k', 'space', 'lshift', 'o', 'b', 'a', 'm', 'a', 'e', 'backspace', 'return']","[0.11705618029373, 0.3339952113783511, 0.5669992737493885, 0.7668050729553215, 0.9168798790778965, 1.1168566545347858, 1.2002394950650341, 1.3668143114482518, 1.5832182798949361, 1.7167106350425456, 1.9666381385432032, 2.2830943301305524, 2.399786424033664, 2.516302088410157, 2.6829859703211696, 3.0994475510269694, 3.4326687179527653]",2017_Feb_16_1621,60.06026464,famFaceGrey,001,18,
209,./greyInner/WillSmith5_1_cut.png,0,144,144,208,,,None,None,1,1.03331502743,None,None,None,None,None,None,1,0.849700326427,Will Smith,"['lshift', 'w', 'i', 'l', 'l', 'space', 'lshift', 's', 'm', 'i', 't', 'h', 'return']","[0.2838151249488874, 0.6336989380833984, 0.8004039915394969, 1.0002370571273786, 1.1167918567807646, 1.2834208851490985, 1.4166341608615767, 1.500111310990178, 1.6833481320281862, 1.816534462137497, 1.9165106601903972, 1.999857894032175, 2.3830599424109096]",2017_Feb_16_1621,60.06026464,famFaceGrey,001,18,
155,./greyInner/NeilPatrickHarris(Barney)3_7_cut.png,0,145,145,154,,,None,None,1,1.46639498658,None,None,None,None,None,None,1,0.634571783081,Barney How I met your mother,"['lshift', 'b', 'a', 'r', 'n', 'y', 'backspace', 'e', 'y', 'space', 'lshift', 'h', 'o', 'backspace', 'lshift', 'i', 'm', 'y', 'm', 'backspace', 'backspace', 'backspace', 'backspace', 'o', 'w', 'space', 'lshift', 'i', 'space', 'm', 'e', 't', 'space', 'y', 'o', 'u', 'r', 'space', 'm', 'o', 't', 'h', 'e', 'r', 'return']","[0.4836154708827962, 0.700164111542108, 0.8834785615690635, 1.033418318904296, 1.1667714551149402, 1.4832366285663738, 2.182905775083782, 2.416224202796002, 2.633075339901552, 2.866027114974713, 3.3824363442254253, 4.248790334997466, 4.432070782244409, 5.348446072872321, 6.114625302176137, 6.264552869834006, 6.54769146774197, 7.047559626764269, 7.3641479801081005, 7.997206960179028, 8.163796853266831, 8.31369875845121, 8.496956109465827, 9.246738619975076, 9.413073492203694, 9.546577716246247, 9.71323561490135, 9.829995072806923, 10.046409627022513, 10.179851940341905, 10.263194683248003, 10.413061623305111, 10.529647538711288, 10.812942998509243, 10.996203236551082, 11.196109760981926, 11.445983052501106, 11.579227123187593, 11.745754463987396, 11.895812910279346, 11.962448418424174, 12.079082130192546, 12.179018872186134, 12.229032794079103, 12.462178000074346]",2017_Feb_16_1621,60.06026464,famFaceGrey,001,18,
165,./greyInner/OmarEpps(DrEricForeman)9_1_cut.png,0,146,146,164,,,None,None,2,1.48303870671,None,None,None,None,None,None,5,1.41612026977,,['return'],[0.30058940293383785],2017_Feb_16_1621,60.06026464,famFaceGrey,001,18,
57,./greyInner/ElvisPresley2_1_cut.png,0,147,147,56,,,None,None,1,1.23292322557,None,None,None,None,None,None,2,1.69955174069,Elviy Preyley,"['lshift', 'e', 'l', 'v', 'i', 'y', 'space', 'lshift', 'p', 'r', 'e', 'y', 'l', 'e', 'y', 'return']","[0.4502693276917853, 0.6502563681424363, 0.8833303607607377, 1.4832587624514417, 1.6499063961127831, 1.7831334654074453, 1.8830833594220167, 2.0663102362486825, 2.1994555063974985, 2.316289706264797, 2.4829328489940963, 2.6994429959377158, 2.89937518284205, 2.9989311578392517, 3.2159590452502016, 3.4156939518652507]",2017_Feb_16_1621,60.06026464,famFaceGrey,001,18,
143,./greyInner/MariskaHargitay(Liv)4_4_cut.png,0,148,148,142,,,None,None,2,2.91611834508,None,None,None,None,None,None,3,2.23246579192,,['return'],[0.31663486657998874],2017_Feb_16_1621,60.06026464,famFaceGrey,001,18,
133,./greyInner/LeonardoDiCaprio3_1_cut.png,0,149,149,132,,,None,None,1,1.08326992563,None,None,None,None,None,None,1,0.633363721983,Leonardo DiCaprio,"['lshift', 'l', 'e', 'o', 'n', 'a', 'r', 'd', 'o', 'space', 'lshift', 'd', 'i', 'lshift', 'c', 'a', 'p', 'r', 'i', 'o', 'return']","[0.29978520506847417, 0.6001061143397237, 0.7166163254405546, 0.8999901199458691, 1.0996191688427643, 1.2165303561414476, 1.3664194300872623, 1.5664250758309208, 1.9662461442130734, 2.2996469484751287, 2.7160341079979844, 2.882611169847223, 3.098956114597968, 3.3322235381347127, 3.4322023024360533, 3.598940396332182, 3.7488926641235594, 3.9321060681468225, 4.098782251316152, 4.331731139362091, 4.698599662795459]",2017_Feb_16_1621,60.06026464,famFaceGrey,001,18,
72,./greyInner/GuentherJauch3_1_cut.png,0,150,150,71,,,None,None,1,1.04989491216,None,None,None,None,None,None,3,0.966818417448,Günther Jauch,"['lshift', 'g', u'\xfc', 'n', 't', 'e', 'r', 'backspace', 'backspace', 'h', 'e', 'r', 'space', 'lshift', 'j', 'a', 'u', 'c', 'h', 'return']","[0.15009276985074393, 0.5501704630005406, 0.7834439813777863, 1.0500402259312978, 1.1665424175080261, 1.3165148945008696, 1.383137892185914, 1.999533584483288, 2.1661058346180653, 2.2495306974524283, 2.565906693798752, 2.591896687998087, 2.8158765403895814, 3.0159325487438764, 3.149112142455124, 3.265731739862531, 3.3989504688506713, 3.482400352600962, 3.5490923181932885, 3.7322187905774626]",2017_Feb_16_1621,60.06026464,famFaceGrey,001,18,
97,./greyInner/JasonSegel(Marshall)14_1_cut.png,0,151,151,96,,,None,None,1,1.04999275035,None,None,None,None,None,None,1,0.683531297957,Marshall How I met your mother,"['lshift', 'm', 'a', 'r', 's', 'h', 'a', 'l', 'space', 'backspace', 'l', 'space', 'lshift', 'b', 'i', 'backspace', 'backspace', 'lshift', 'h', 'o', 'w', 'space', 'lshift', 'i', 'space', 'm', 'e', 't', 'space', 'y', 'o', 'u', 't', 'backspace', 'r', 'space', 'm', 'o', 't', 'h', 'e', 'r', 'return']","[0.2501722593769955, 0.5833430636885168, 0.6835155796907202, 0.8499258354422636, 1.0665399154167972, 1.183017086077598, 1.2831838280217198, 1.366484869406122, 1.6163578401428822, 1.999220823046926, 2.1661452906810155, 2.382427683140122, 2.549293127078272, 2.649271249814774, 2.8490545943532197, 3.582183440517838, 3.717314024030202, 3.9653136339620687, 4.032064302467916, 4.198546092375182, 4.34856764885626, 4.4482269153195375, 4.631655242588749, 4.748411171902262, 4.881722927369992, 5.048256683792715, 5.115022429006785, 5.281456101769436, 5.38150672100528, 5.6825513121220865, 5.848018792632502, 6.047807911229029, 6.214137650960765, 6.4639195199088135, 6.614327938226779, 6.797592667204299, 6.964197957782744, 7.180782846688089, 8.130356400481105, 8.247069986708084, 8.346996784493967, 8.430026445184922, 8.613574423750833]",2017_Feb_16_1621,60.06026464,famFaceGrey,001,18,
164,./greyInner/OmarEpps(DrEricForeman)5_2_cut.png,0,152,152,163,,,None,None,1,5.26480500367,None,None,None,None,None,None,2,0.483201021882,2pac,"['2', 'p', 'a', 'c', 'return']","[1.3494732135077356, 1.6326865533774253, 1.749195481352217, 1.9491690490031033, 2.448992619472847]",2017_Feb_16_1621,60.06026464,famFaceGrey,001,18,
27,./greyInner/Beyonce11_2_cut.png,0,153,153,26,,,None,None,2,2.64953621489,None,None,None,None,None,None,2,1.64971938082,,['return'],[1.3331611808862363],2017_Feb_16_1621,60.06026464,famFaceGrey,001,18,
87,./greyInner/Ice-T(OdafinFinTutuola)12_1_cut.png,0,154,154,86,,,None,None,2,3.19929094577,None,None,None,None,None,None,1,1.53317997865,,['return'],[0.6168499181367224],2017_Feb_16_1621,60.06026464,famFaceGrey,001,18,
65,./greyInner/EmilyDeschanel8_3_cut.png,0,155,155,64,,,None,None,1,3.6323256748,None,None,None,None,None,None,2,0.750060948383,Adele,"['lshift', 'a', 'd', 'e', 'l', 'e', 'return']","[0.21686460990531486, 0.583383482091449, 0.7665811678489263, 0.9331649660998664, 1.0165057843223622, 1.1163899182392925, 1.2664881413693365]",2017_Feb_16_1621,60.06026464,famFaceGrey,001,18,
18,./greyInner/BastianSchweinsteiger14_1_cut.png,0,156,156,17,,,None,None,1,0.883372703851,None,None,None,None,None,None,5,0.916555248747,Sebastian Schweinsteiger,"['lshift', 's', 'e', 'b', 'a', 's', 't', 'i', 'a', 'n', 'space', 'lshift', 's', 'c', 'h', 'w', 'e', 'i', 'n', 's', 't', 'e', 'i', 'g', 'e', 'r', 'return']","[0.1837491082296765, 0.966741750798974, 1.1672805344969674, 1.316631017209147, 1.3997796876356006, 1.4833161822461989, 1.716504372885538, 1.8331515574573132, 1.9830627652845578, 2.083066550501826, 2.249747866164398, 2.4162607718244544, 2.532823591001943, 4.098735417297576, 4.198900234554458, 4.398531849699793, 4.448608003101981, 4.548757102089439, 4.731914048665203, 4.832012143484462, 5.031753144936374, 5.181745510351902, 5.231849892476021, 5.3317144587526855, 5.565039943645388, 5.631466302602348, 6.381308157589956]",2017_Feb_16_1621,60.06026464,famFaceGrey,001,18,
211,./greyInner/notfamousface10_4_cut.png,0,157,157,210,,,None,None,2,2.59930255804,None,None,None,None,None,None,5,2.64937806987,,['return'],[0.33373794505314436],2017_Feb_16_1621,60.06026464,famFaceGrey,001,18,
136,./greyInner/LisaEdelstein(DrLisaCuddy)1_1_cut.png,0,158,158,135,,,None,None,2,1.46647454026,None,None,None,None,None,None,2,0.900033425376,,['return'],[0.7004104713196284],2017_Feb_16_1621,60.06026464,famFaceGrey,001,18,
134,./greyInner/LeonardoDiCaprio4_1_cut.png,0,159,159,133,,,None,None,1,0.916692222218,None,None,None,None,None,None,1,0.633316246403,Leonardo DiCaprio,"['lshift', 'l', 'e', 'o', 'n', 'a', 'r', 'd', 'i', 'backspace', 'o', 'space', 'lshift', 'd', 'i', 'lshift', 'c', 'a', 'p', 'r', 'i', 'o', 'return']","[0.7163584175468714, 1.4996240447144373, 1.6164280911725655, 1.7163006769733329, 1.8828238476235128, 1.982858427811152, 2.1827338364892057, 2.3494488341530086, 2.449427598454349, 2.83252186442769, 2.965823675687716, 3.1824294153557275, 3.432322916076373, 3.515558838924335, 3.732089836630621, 4.431860349930503, 4.515292911510187, 4.731757186775212, 4.981612514562585, 5.148281640547793, 5.29823615380883, 5.447994349120563, 5.781366283095849]",2017_Feb_16_1621,60.06026464,famFaceGrey,001,18,
124,./greyInner/KaleyCuoco(Penny)5_2_cut.png,0,160,160,123,,,None,None,1,1.18319896888,None,None,None,None,None,None,1,0.566885396511,Penny Big Bang Theory,"['lshift', 'p', 'e', 'n', 'n', 'y', 'space', 'lshift', 'b', 'i', 'g', 'space', 'lshift', 'b', 'a', 'n', 'g', 'space', 'lshift', 't', 'e', 'backspace', 'h', 'e', 'r', 'o', 'backspace', 'backspace', 'o', 'r', 'y', 'return']","[0.9665383756655501, 1.1331847262044903, 1.2831466174284287, 1.4663860047112394, 1.6163023450353649, 1.6996556737176434, 1.783123521199741, 1.9661903283231368, 2.049324884388625, 2.199476998721366, 2.4160830591717968, 2.5326343302331225, 2.682531744481821, 2.8326206649653614, 3.0324765060031496, 3.09908667244963, 3.2823854042071616, 3.34896156787363, 3.4987685218911793, 3.5986853754657204, 3.9487780170093174, 4.315281812487228, 4.548657339211786, 4.648565531701024, 4.731806587042229, 4.915032180746493, 6.131292118538113, 6.314563904699753, 6.531117357073526, 6.731008484013728, 8.16379075842633, 8.480385848168225]",2017_Feb_16_1621,60.06026464,famFaceGrey,001,18,
88,./greyInner/Ice-T(OdafinFinTutuola)5_1_cut.png,0,161,161,87,,,None,None,2,1.41637657375,None,None,None,None,None,None,1,2.04955167653,,['return'],[0.3171317562882905],2017_Feb_16_1621,60.06026464,famFaceGrey,001,18,
19,./greyInner/BastianSchweinsteiger3_1_cut.png,0,162,162,18,,,None,None,1,1.21648255978,None,None,None,None,None,None,5,1.20003227056,Sebastian Schweinsteiger,"['lshift', 's', 'e', 'b', 'a', 's', 't', 'i', 'a', 'n', 'space', 'lshift', 's', 'c', 'h', 'w', 'e', 'i', 'n', 's', 't', 'e', 'i', 'g', 'e', 'r', 'return']","[0.1336049492674647, 0.36689514825411607, 0.583459827957995, 0.7001445439018426, 0.7834135071898345, 1.2832268126694544, 1.4164997536427109, 1.5330847067052673, 1.6829237388192269, 1.782990076320857, 1.932971535181423, 2.1328745310202066, 2.18277874582418, 2.299440686318121, 2.4327293455571635, 2.515899508307484, 2.599307048971241, 2.6493026863499836, 2.815955452508206, 3.1991036096842436, 3.415705820763833, 3.549023991850845, 3.6655858486847137, 3.7988982457136444, 3.9321365423420502, 3.998825620903517, 4.398694806430285]",2017_Feb_16_1621,60.06026464,famFaceGrey,001,18,
73,./greyInner/GuentherJauch4_1_cut.png,0,163,163,72,,,None,None,1,0.750031436535,None,None,None,None,None,None,3,1.23317471784,Günther Jauch,"['lshift', 'g', u'\xfc', 'n', 't', 'h', 'e', 'r', 'space', 'lshift', 'j', 'a', 'u', 'c', 'h', 'return']","[0.11687846764107235, 0.33352815430407645, 0.4833665448568354, 0.6999116569240869, 0.8331313482558471, 0.9828702967097342, 1.0330763663987454, 1.0998257517821912, 1.2175077757310646, 1.4331364165955165, 1.7329553036652214, 1.8493253334854671, 1.96620636737498, 2.049614228817518, 2.1161217453554855, 2.3158758988283807]",2017_Feb_16_1621,60.06026464,famFaceGrey,001,18,
208,./greyInner/WillSmith4_1_cut.png,0,164,164,207,,,None,None,1,0.85041246016,None,None,None,None,None,None,2,1.98278881835,Will Smith,"['lshift', 'w', 'i', 'l', 'l', 'space', 'lshift', 's', 'm', 'i', 't', 'h', 'return']","[0.10026650482177502, 0.5835595908356481, 0.866666110647202, 1.0665521050905227, 1.2332934067962924, 1.5997484435683873, 1.7827796440105885, 1.8663238373592321, 2.0996012051073194, 2.2661978346004616, 2.366142275335733, 2.4494067476916825, 2.749322510611819]",2017_Feb_16_1621,60.06026464,famFaceGrey,001,18,
193,./greyInner/TomCruise5_1_cut.png,0,165,165,192,,,None,None,1,1.39955097081,None,None,None,None,None,None,1,0.350059280325,Tom Cruise,"['lshift', 't', 'o', 'm', 'space', 'lshift', 'c', 'r', 'u', 'i', 's', 'e', 'return']","[0.3001435174010112, 0.6668702556489734, 0.8331027987478592, 1.01677171173651, 1.1999655481231457, 1.3331557276069361, 1.399911528609664, 1.6164633770786168, 1.7663810005287814, 1.899640147916216, 2.016380358963943, 2.166374649063073, 2.3828142241982277]",2017_Feb_16_1621,60.06026464,famFaceGrey,001,18,
174,./greyInner/SahraWagenknecht6_2_cut.png,0,166,166,173,,,None,None,1,6.6143603371,None,None,None,None,None,None,4,1.21664102557,Sarah Wagenknecht,"['lshift', 's', 'a', 'r', 'a', 'h', 'space', 'lshift', 'w', 'a', 'g', 'e', 'n', 'k', 'n', 'e', 'c', 'h', 't', 'return']","[0.08323303582074004, 0.21694737139478093, 0.4168330450593203, 0.5668247689100099, 0.6999825495149707, 0.7835129492850683, 0.9834027931028686, 1.166435276667471, 1.299812471450423, 1.4997642259950226, 1.6827941433111846, 1.7828425170773698, 1.8828286593416124, 2.6325893567445746, 2.7993223181438225, 2.8825130108780286, 3.2659803451097105, 3.3657666408325895, 3.4823913707368774, 3.898816382414225]",2017_Feb_16_1621,60.06026464,famFaceGrey,001,18,
41,./greyInner/CobieSmulders(Robin)12_1_cut.png,0,167,167,40,,,None,None,1,2.24953743386,None,None,None,None,None,None,1,0.499970488152,Robin Shebartsky How I met your mother,"['lshift', 'r', 'o', 'b', 'i', 'n', 'space', 'lshift', 's', 'h', 'e', 'b', 'a', 'r', 't', 'k', 'backspace', 'y', 'backspace', 's', 'k', 'y', 'space', 'lshift', 'h', 'o', 'w', 'space', 'lshift', 'i', 'space', 'm', 'e', 't', 'space', 'y', 'o', 'u', 't', 'backspace', 'r', 'space', 'm', 'o', 't', 'h', 'e', 'r', 'return']","[0.3002067112502118, 0.7000037210600567, 0.916665276614367, 1.283223284077394, 1.416529586269462, 1.5830784193967702, 1.7661506797994662, 1.9162652627564967, 2.032823591001943, 2.2161707606865093, 2.3661069894333195, 2.9158030173930456, 3.015722116437246, 3.199035283338162, 3.3819776274540345, 3.4827381349532516, 4.031973521457985, 4.765157541944063, 4.999108228930709, 5.18163997341253, 5.398324304416747, 5.514769717763556, 5.814577698281937, 6.464554666206823, 6.780861373867083, 6.964140217205568, 7.847235445526167, 7.947179244700237, 8.213446688769181, 8.346962140149117, 8.696721490272466, 8.86356063016865, 8.96347395515113, 9.130159120188182, 9.213396005379764, 9.679943362913036, 9.79649110538594, 9.996281507104868, 10.146176034326345, 10.529484581984434, 10.629214741038595, 10.696130611740955, 10.812729358385695, 10.995899136200023, 11.095881108311005, 11.262586482545885, 11.395881878186628, 11.462360845220246, 11.762404278961185]",2017_Feb_16_1621,60.06026464,famFaceGrey,001,18,
181,./greyInner/SigmarGabriel1_2_cut.png,0,168,168,180,,,None,None,1,2.21609890575,None,None,None,None,None,None,4,1.29954237388,Sigmar Gabriel,"['lshift', 's', 'i', 'g', 'm', 'a', 'r', 'space', 'lshift', 'g', 'a', 'b', 'r', 'i', 'e', 'l', 'return']","[0.10044517981805257, 0.2505026637663832, 0.5170889641085523, 0.7169858651104732, 0.8520308001061494, 0.9169190143584274, 1.0834514876551111, 1.233454118060763, 1.4167133937626204, 1.9163419294091, 2.099833129745093, 2.1828194850058935, 2.39971745613002, 2.4829225840076106, 2.5827906788763357, 2.699545966628648, 3.0159546826325823]",2017_Feb_16_1621,60.06026464,famFaceGrey,001,18,
145,./greyInner/MariskaHargitay(Liv)8_8_cut.png,0,169,169,144,,,None,None,2,2.28278156869,None,None,None,None,None,None,3,0.866670922362,,['return'],[0.28352096881280886],2017_Feb_16_1621,60.06026464,famFaceGrey,001,18,
220,./greyInner/notfamousface5_1_cut.png,0,170,170,219,,,None,None,2,3.53216855628,None,None,None,None,None,None,4,0.832792282781,,['return'],[0.3165193854365498],2017_Feb_16_1621,60.06026464,famFaceGrey,001,18,
81,./greyInner/HughLaurie(DrHouse)2_1_cut.png,0,171,171,80,,,None,None,1,3.94868563209,None,None,None,None,None,None,1,0.666770492771,aus amerikanischer Krimiserie,"['lshift', 'a', 'm', 'e', 'r', 'i', 'backspace', 'backspace', 'backspace', 'backspace', 'backspace', 'a', 'u', 's', 'space', 'a', 'm', 'e', 'r', 'i', 'k', 'a', 'n', 'i', 's', 'c', 'h', 'e', 'r', 'space', 'lshift', 'k', 'r', 'i', 'm', 'i', 's', 'e', 'r', 'i', 'e', 'return']","[1.5497111046679493, 1.6854081873570976, 1.849382432494167, 1.9662769391870825, 2.0495648285505013, 2.116267700694152, 2.815992663097859, 2.949215241460479, 3.1158907830649696, 3.282407858878287, 3.43231970827037, 3.8154823005897924, 4.198769035141595, 4.3325911531173915, 4.515261474978615, 4.631934963585081, 4.748350865083921, 4.915083826483169, 4.9648578042179, 5.065087098446384, 5.264864348147967, 5.364644228251564, 5.4648776926369464, 5.648099116184312, 5.881429412791476, 5.998108033894823, 6.048074800986797, 6.181184785233199, 6.264617988370446, 6.364677910252794, 6.564390041421575, 6.84770763510096, 7.014289508668298, 7.114263782033959, 7.247590934988693, 7.39757111072322, 7.647190664505615, 8.013870568731363, 8.163790437647549, 8.297103476241318, 8.430436082471715, 8.780067761770624]",2017_Feb_16_1621,60.06026464,famFaceGrey,001,18,
101,./greyInner/JimParsons(SheldonCooper)1_1_cut.png,0,172,172,100,,,None,None,1,2.11615991829,None,None,None,None,None,None,1,0.500063193849,Sheldon Cooper Big Bang Theory,"['lshift', 's', 'e', 'h', 'backspace', 'backspace', 'h', 'e', 'l', 'd', 'o', 'n', 'space', 'lshift', 'x', 'backspace', 'lshift', 'c', 'o', 'o', 'p', 'e', 'r', 'space', 'lshift', 'b', 'i', 'g', 'space', 'lshift', 'b', 'a', 'n', 'g', 'space', 'lshift', 't', 'h', 'e', 'r', 'o', 'backspace', 'backspace', 'o', 'r', 'y', 'return']","[0.28356780283138505, 0.5168214327895839, 0.7499008786835475, 1.0833170804326073, 1.599597676518897, 1.7495108090370195, 1.9658961721870583, 2.066156261389551, 2.365884688228107, 2.5993532414286165, 2.682523083396518, 2.8659863757929998, 3.0491907979485404, 3.2490941145697434, 3.665611511161842, 3.965191095634509, 4.165379265745287, 4.298726948680269, 4.432000851993507, 4.5985804800948245, 4.731751412720769, 4.865103907370212, 4.948359718637221, 5.064989260252332, 5.264928504340787, 5.381592690300749, 5.5490647310325585, 5.748136583399173, 5.881383861895301, 6.064558130641672, 6.131170542557811, 6.314447140430275, 6.414596880982572, 6.5643810595538525, 6.664370730406517, 6.797669975414465, 6.897718669966707, 7.08077777834842, 7.280889281810232, 7.347478918276465, 7.4640901753773505, 7.913793003895989, 8.047088399533095, 8.163730772390409, 8.247071269830485, 8.563648716619355, 8.996794115082594]",2017_Feb_16_1621,60.06026464,famFaceGrey,001,18,
210,./greyInner/WillSmith6_1_cut.png,0,173,173,209,,,None,None,1,0.950011419802,None,None,None,None,None,None,1,0.566902397899,Will Smith,"['lshift', 'w', 'i', 'l', 'l', 'space', 'lshift', 's', 'm', 'i', 't', 'h', 'return']","[0.3169460241115303, 0.7502325661953364, 0.9334690664509253, 1.099925193881063, 1.2332799339965277, 1.4332618419502978, 1.5664934021770023, 1.6830953566313838, 1.7665452403816744, 1.916366308760189, 2.0329692255581904, 2.166298623978946, 2.9992638076946605]",2017_Feb_16_1621,60.06026464,famFaceGrey,001,18,
186,./greyInner/TaylorSwift1_2_cut.png,0,174,174,185,,,None,None,2,2.71589392672,None,None,None,None,None,None,2,1.38334864527,,['return'],[1.0165898289342294],2017_Feb_16_1621,60.06026464,famFaceGrey,001,18,
107,./greyInner/JoachimLoew12_1_cut.png,0,175,175,106,,,None,None,1,3.3821133178,None,None,None,None,None,None,5,2.21612745526,Jogi Löw,"['lshift', 'j', 'o', 'g', 'i', 'space', 'lshift', 'l', u'\xf6', 'w', 'return']","[0.18358454759800225, 0.43348638862153166, 0.5834181264362996, 0.8333077777824656, 1.0666348665799887, 1.2331115239940118, 1.4497195091280446, 1.7662263841048116, 1.9496633724593266, 2.099640981949051, 2.266105128903291]",2017_Feb_16_1621,60.06026464,famFaceGrey,001,18,
