num,pic,trials.thisRepN,trials.thisTrialN,trials.thisN,trials.thisIndex,key_resp_2.keys,key_resp_2.rt,ratingBekannt.response,ratingBekannt.rt,key_resp_5.keys,key_resp_5.rt,ratingK1.response,ratingK1.rt,ratingK2.response,ratingK2.rt,ratingK3.response,ratingK3.rt,key_resp_6.keys,key_resp_6.rt,inputText,key_resp_4.keys,key_resp_4.rt,date,frameRate,expName,session,participant,
,,,,,,space,37.8827801392,,,,,,,,,,,,,,,,2017_Feb_20_1032,60.0351840761,famFaceGrey,001,19,
67,./greyInner/EmmaWatson(HermioneGranger)16_1_cut.png,0,0,0,66,,,None,None,1,5.06503410971,None,None,None,None,None,None,1,2.38285536118,Emma Watson,"['lshift', 'e', 'm', 'm', 'a', 'space', 'lshift', 'w', 'a', 't', 's', 'o', 'n', 'return']","[1.6330551243790978, 1.8996725198649074, 2.149592887242761, 2.2662924494798062, 2.399434022969217, 2.682734332421205, 2.7994634060432873, 2.9493680874793426, 3.0492352541714354, 3.382338270394939, 3.5991163906546717, 3.715689246403599, 3.9155178879082086, 5.64822173057928]",2017_Feb_20_1032,60.0351840761,famFaceGrey,001,19,
44,./greyInner/CobieSmulders(Robin)4_7_cut.png,0,1,1,43,,,None,None,1,2.03309830082,None,None,None,None,None,None,1,13.6113536712,,['return'],[1.2333968790426297],2017_Feb_20_1032,60.0351840761,famFaceGrey,001,19,
6,./greyInner/AngelaMerkel1_1_cut.png,0,2,2,5,,,None,None,1,2.34912898111,None,None,None,None,None,None,4,2.5494759965,Angela Merkel,"['lshift', 'a', 'n', 'g', 'e', 'l', 'a', 'space', 'lshift', 'm', 'e', 'r', 'k', 'e', 'l', 'return']","[1.066600458517314, 1.2165574264281531, 1.5163622984364338, 1.6996600737593326, 1.8323477493240716, 2.432732808736546, 2.5658371722192896, 2.965855648912111, 3.1490151698144473, 3.2490116092012613, 3.3989608784904703, 3.5988568829370706, 3.7489065550880696, 3.8487519090176647, 3.965388919950783, 4.731726438447367]",2017_Feb_20_1032,60.0351840761,famFaceGrey,001,19,
122,./greyInner/KaleyCuoco(Penny)14_2_cut.png,0,3,3,121,,,None,None,2,2.76583325875,None,None,None,None,None,None,1,7.99665911881,,['return'],[1.2998712726239319],2017_Feb_20_1032,60.0351840761,famFaceGrey,001,19,
30,./greyInner/Beyonce8_3_cut.png,0,4,4,29,,,None,None,2,17.043413492,None,None,None,None,None,None,2,2.89891965878,,['return'],[0.9832837253379694],2017_Feb_20_1032,60.0351840761,famFaceGrey,001,19,
14,./greyInner/BarackObama4_1_cut.png,0,5,5,13,,,None,None,1,1.58299323067,None,None,None,None,None,None,4,1.53301153093,Barack Obama,"['lshift', 'b', 'a', 'r', 'a', 'c', 'k', 'space', 'lshift', 'o', 'b', 'a', 'm', 'a', 'return']","[0.9003349221356984, 1.150296028055891, 1.416888723795637, 1.733463760820996, 1.9000991518360024, 2.0334380025151404, 2.1665654618636836, 2.3832223288263776, 2.7163304774649077, 2.949642992441113, 3.4494154019266716, 3.565952651549196, 4.48243928273223, 4.598847259659124, 5.448627576271065]",2017_Feb_20_1032,60.0351840761,famFaceGrey,001,19,
117,./greyInner/JudithRakers2_1_cut.png,0,6,6,116,,,None,None,2,3.29893909781,None,None,None,None,None,None,3,4.2651918673,,['return'],[1.2165016114176979],2017_Feb_20_1032,60.0351840761,famFaceGrey,001,19,
5,./greyInner/AlysonHannigan(Lily)8_3_cut.png,0,7,7,4,,,None,None,2,3.11595728676,None,None,None,None,None,None,5,4.39832638372,,['return'],[0.7834223646896135],2017_Feb_20_1032,60.0351840761,famFaceGrey,001,19,
20,./greyInner/BastianSchweinsteiger6_2_cut.png,0,8,8,19,,,None,None,1,10.0629602934,None,None,None,None,None,None,5,2.28290415119,,['return'],[4.032526357355891],2017_Feb_20_1032,60.0351840761,famFaceGrey,001,19,
137,./greyInner/LisaEdelstein(DrLisaCuddy)10_1_cut.png,0,9,9,136,,,None,None,2,3.69887288965,None,None,None,None,None,None,3,3.86528790761,,['return'],[1.316649457038693],2017_Feb_20_1032,60.0351840761,famFaceGrey,001,19,
168,./greyInner/RobertSeanLeonard(Wilson)11_2_cut.png,0,10,10,167,,,None,None,2,7.01412408447,None,None,None,None,None,None,1,2.19949695921,,['return'],[1.1163973913216978],2017_Feb_20_1032,60.0351840761,famFaceGrey,001,19,
109,./greyInner/JoachimLoew4_1_cut.png,0,11,11,108,,,None,None,1,1.66651269423,None,None,None,None,None,None,5,3.61567516434,Jogi Löw,"['lshift', 'j', 'o', 'g', 'i', 'space', 'lshift', 'l', u'\xf6', 'w', 'return']","[1.0332808223147367, 1.2831857924493306, 1.666275961597421, 1.9328545431972088, 2.06570581447977, 2.4658086552399254, 2.7990492843327957, 2.9320115440832524, 3.0995569763790627, 3.4323097052993035, 4.09872103433554]",2017_Feb_20_1032,60.0351840761,famFaceGrey,001,19,
82,./greyInner/HughLaurie(DrHouse)4_1_cut.png,0,12,12,81,,,None,None,2,12.9617798701,None,None,None,None,None,None,1,1.11658087515,,['return'],[1.099984891454369],2017_Feb_20_1032,60.0351840761,famFaceGrey,001,19,
186,./greyInner/TaylorSwift1_2_cut.png,0,13,13,185,,,None,None,2,3.18248075906,None,None,None,None,None,None,2,3.58230580787,,['return'],[1.1000115158558401],2017_Feb_20_1032,60.0351840761,famFaceGrey,001,19,
53,./greyInner/DannFlorek(DonaldDonCragen)2_1_cut.png,0,14,14,52,,,None,None,2,4.53219515622,None,None,None,None,None,None,3,1.91626978666,,['return'],[1.1500676356026815],2017_Feb_20_1032,60.0351840761,famFaceGrey,001,19,
12,./greyInner/BarackObama11_2_cut.png,0,15,15,11,,,None,None,2,12.89521598,None,None,None,None,None,None,4,6.96449876678,Barack Obama,"['lshift', 'b', 'a', 'r', 'a', 'c', 'k', 'space', 'lshift', 'o', 'b', 'a', 'm', 'a', 'return']","[1.2832582878072571, 1.5166490721076116, 2.199712520621688, 2.316354984744976, 2.4828469889243934, 2.649506758908501, 2.7828196267382737, 3.0993459058245207, 3.365712775317661, 3.4658295056742645, 3.7323840290800945, 3.832565556172085, 4.498839913891061, 4.582019996529198, 5.181794298592649]",2017_Feb_20_1032,60.0351840761,famFaceGrey,001,19,
47,./greyInner/CristinMilioti(Tracy_Mutter)2_1_cut.png,0,16,16,46,,,None,None,2,2.69938933888,None,None,None,None,None,None,1,3.18240858448,,['return'],[0.950026961216281],2017_Feb_20_1032,60.0351840761,famFaceGrey,001,19,
38,./greyInner/CarenMiosga2_11_cut.png,0,17,17,37,,,None,None,1,4.58205784809,None,None,None,None,None,None,2,1.89963178132,Adele,"['lshift', 'a', 'd', 'e', 'l', 'e', 'return']","[0.8332369401696269, 1.0165286207502504, 1.3498212155418514, 1.4329692205883475, 1.6830958468817698, 1.7828183436349718, 2.549275190773187]",2017_Feb_20_1032,60.0351840761,famFaceGrey,001,19,
49,./greyInner/CristinMilioti(Tracy_Mutter)8_1_cut.png,0,18,18,48,,,None,None,2,3.56532072299,None,None,None,None,None,None,3,2.84942329301,,['return'],[1.1499649873085218],2017_Feb_20_1032,60.0351840761,famFaceGrey,001,19,
216,./greyInner/notfamousface14_6_cut.png,0,19,19,215,,,None,None,2,2.89948005431,None,None,None,None,None,None,5,4.14861323759,,['return'],[1.0838912428498588],2017_Feb_20_1032,60.0351840761,famFaceGrey,001,19,
159,./greyInner/NicoleKidman7_1_cut.png,0,20,20,158,,,None,None,1,4.08198455079,None,None,None,None,None,None,2,1.5330173049,Kylie Minouge,"['lshift', 'k', 'y', 'l', 'i', 'e', 'space', 'lshift', 'm', 'i', 'o', 'n', 'o', 'u', 'g', 'e', 'backspace', 'backspace', 'backspace', 'backspace', 'backspace', 'backspace', 'n', 'o', 'u', 'g', 'e', 'return']","[1.0834254762157798, 1.2835357589765408, 1.4501336192088274, 1.633275176659481, 2.1161683573163828, 2.2828576386855275, 3.3159235411349073, 3.5324421536770387, 3.6157691516855266, 3.8156718924274173, 4.448822928806294, 4.732004230392704, 5.031856256461651, 5.298445744442688, 5.565085915018244, 5.748271739545089, 7.014349269160448, 7.347751569315733, 7.497560659528062, 7.630885075291189, 7.780804512419309, 8.146978563508128, 8.763742120540883, 9.030247565230638, 9.446669880841, 9.613314253581848, 9.746704749183664, 11.11265650256064]",2017_Feb_20_1032,60.0351840761,famFaceGrey,001,19,
185,./greyInner/SigmarGabriel8_2_cut.png,0,21,21,184,,,None,None,2,3.54893933839,None,None,None,None,None,None,4,5.2983078108,,['return'],[1.116770132939564],2017_Feb_20_1032,60.0351840761,famFaceGrey,001,19,
187,./greyInner/TaylorSwift2_1_cut.png,0,22,22,186,,,None,None,2,2.09948255637,None,None,None,None,None,None,3,4.44834336881,,['return'],[1.6664113290362366],2017_Feb_20_1032,60.0351840761,famFaceGrey,001,19,
45,./greyInner/CobieSmulders(Robin)5_1_cut.png,0,23,23,44,,,None,None,2,4.03195313079,None,None,None,None,None,None,5,2.98251418391,,['return'],[1.3499947553136735],2017_Feb_20_1032,60.0351840761,famFaceGrey,001,19,
108,./greyInner/JoachimLoew15_1_cut.png,0,24,24,107,,,None,None,1,3.26553605986,None,None,None,None,None,None,5,2.79906147382,Jogi Löw,"['lshift', 'j', 'o', 'g', 'i', 'space', 'lshift', 'l', u'\xf6', 'w', 'return']","[0.8669350919553835, 1.133321528779561, 2.0831066249529613, 2.199869700821182, 2.3163424744843724, 2.682861038909323, 2.932942115023252, 3.116143978346372, 3.2660092043443, 3.465885641459863, 4.182317484115629]",2017_Feb_20_1032,60.0351840761,famFaceGrey,001,19,
65,./greyInner/EmilyDeschanel8_3_cut.png,0,25,25,64,,,None,None,1,4.09898310826,None,None,None,None,None,None,2,3.3490398054,Adele,"['lshift', 'a', 'd', 'e', 'l', 'e', 'return']","[0.7502490023071005, 0.8832997962117588, 1.200061524821649, 1.3000319813590977, 1.4499527015914282, 1.5667202683225696, 2.2663630201823253]",2017_Feb_20_1032,60.0351840761,famFaceGrey,001,19,
29,./greyInner/Beyonce5_3_cut.png,0,26,26,28,,,None,None,2,3.0654764597,None,None,None,None,None,None,3,4.2822767135,,['return'],[0.9334819808937027],2017_Feb_20_1032,60.0351840761,famFaceGrey,001,19,
209,./greyInner/WillSmith5_1_cut.png,0,27,27,208,,,None,None,1,12.8950209483,None,None,None,None,None,None,1,1.04988257998,Will Smith,"['lshift', 'm', 'a', 'n', 'space', 'i', 'n', 'space', 'lshift', 'b', 'l', 'a', 'backspace', 'backspace', 'backspace', 'backspace', 'backspace', 'backspace', 'backspace', 'backspace', 'backspace', 'backspace', 'lshift', 'w', 'i', 'l', 'l', 'space', 'lshift', 's', 'm', 'i', 't', 'h', 'return']","[0.8504183399145404, 0.9834014500993362, 1.1004243544630299, 1.1837545602311366, 1.3169747238198397, 1.516889012495085, 1.6831112441259393, 1.850165247714358, 2.0166120224894257, 2.5830775947324582, 3.1162745341453046, 3.2494873198884306, 3.8991602407231767, 4.049182967696652, 4.1656204560085826, 4.315649277725242, 4.448945144431491, 4.582232991739147, 4.732265021214516, 4.882118378503947, 5.14860585974202, 5.498533572888846, 5.848225515735976, 6.098391276691473, 6.348331532176417, 6.51458680372798, 6.614423817483839, 6.8312378646460274, 6.9646280394727, 7.0645215097893015, 7.247845267961566, 7.431051301371554, 7.930873110349239, 8.663880086262907, 9.530239064669331]",2017_Feb_20_1032,60.0351840761,famFaceGrey,001,19,
70,./greyInner/EmmaWatson(HermioneGranger)9_1_cut.png,0,28,28,69,,,None,None,1,1.66641774455,None,None,None,None,None,None,1,1.33284735782,Emma Watson,"['lshift', 'e', 'm', 'm', 'a', 'space', 'lshift', 'w', 'a', 't', 's', 'o', 'n', 'return']","[0.6670795052741596, 0.9169033191010385, 1.1334033266393817, 1.2667068919672602, 1.383336204277839, 1.6498320256905572, 2.03319517514592, 2.2497304680346133, 2.3494997980715198, 2.6495147783070934, 2.849384479129185, 2.949281798757511, 3.1659845366766604, 3.8824218325225957]",2017_Feb_20_1032,60.0351840761,famFaceGrey,001,19,
156,./greyInner/NicoleKidman14_1_cut.png,0,29,29,155,,,None,None,1,2.89883272851,None,None,None,None,None,None,2,12.7451165876,Kylie Minouge,"['lshift', 'k', 'y', 'l', 'i', 'e', 'space', 'lshift', 'm', 'i', 'n', 'o', 'u', 'g', 'e', 'return']","[0.683359845463201, 0.8002284566091475, 0.9998893323081575, 1.1998921551366948, 1.5330974988783055, 1.699706907043037, 1.899571154674959, 2.166154547912811, 2.249476413507182, 2.4993255686313205, 2.6326060380933995, 3.3823427612587693, 3.63230579183346, 3.8154486323883248, 3.9321761021301427, 4.7983708432657295]",2017_Feb_20_1032,60.0351840761,famFaceGrey,001,19,
202,./greyInner/Usher11_1_cut.png,0,30,30,201,,,None,None,2,4.36507282736,None,None,None,None,None,None,5,2.46605853968,,['return'],[0.9832291934317254],2017_Feb_20_1032,60.0351840761,famFaceGrey,001,19,
24,./greyInner/BenedictCumberbatch4_1_cut.png,0,31,31,23,,,None,None,1,3.88209271643,None,None,None,None,None,None,1,1.71639367032,Sherlock,"['lshift', 's', 'h', 'r', 'e', 'backspace', 'backspace', 'e', 'r', 'l', 'o', 'c', 'k', 'return']","[2.999036709916254, 3.132528570708928, 3.432096710089354, 3.682407461760704, 4.6983628559446515, 4.8318887189843736, 4.965013612125404, 5.048151673118809, 5.714713766836212, 5.84775012582395, 5.964646965250722, 6.081325035501322, 7.713903486866002]",2017_Feb_20_1032,60.0351840761,famFaceGrey,001,19,
9,./greyInner/AngelaMerkel5_1_cut.png,0,32,32,8,,,None,None,1,1.49984747105,None,None,None,None,None,None,4,1.6997168511,Angela Merkel,"['lshift', 'a', 'n', 'g', 'e', 'l', 'a', 'space', 'lshift', 'lshift', 'm', 'e', 'r', 'k', 'e', 'l', 'return']","[1.6500482286601255, 1.7997675016149515, 1.9666508524142046, 2.1497199145069317, 2.2828505816150937, 2.732964312716831, 2.882727211196652, 3.0826331596981618, 3.216003125640782, 3.9490030444849253, 4.098957446188251, 4.332149670194667, 4.44884570389695, 4.682016435916921, 5.09860619655683, 5.2150254006419345, 6.18140583895638]",2017_Feb_20_1032,60.0351840761,famFaceGrey,001,19,
110,./greyInner/JoachimLoew8_1_cut.png,0,33,33,109,,,None,None,1,1.25000248601,None,None,None,None,None,None,5,2.13267965617,Jogi Löw,"['lshift', 'j', 'o', 'g', 'i', 'space', 'lshift', 'l', u'\xf6', 'w', 'return']","[0.6833739596031592, 1.016561019117944, 1.2831854716732778, 1.483083400776195, 1.599861553113442, 2.0497023039088162, 2.366154804533835, 2.5659879369004557, 2.782688429388145, 3.015732134144855, 3.6321733113791197]",2017_Feb_20_1032,60.0351840761,famFaceGrey,001,19,
80,./greyInner/GeorgeClooney4_2_cut.png,0,34,34,79,,,None,None,2,3.06583989881,None,None,None,None,None,None,1,3.33238928981,,['return'],[1.0499666232653908],2017_Feb_20_1032,60.0351840761,famFaceGrey,001,19,
114,./greyInner/JoshRadnor(Ted)7_1_cut.png,0,35,35,113,,,None,None,2,2.34967173396,None,None,None,None,None,None,3,2.36619201454,,['return'],[0.9333177436237747],2017_Feb_20_1032,60.0351840761,famFaceGrey,001,19,
188,./greyInner/TaylorSwift3_1_cut.png,0,36,36,187,,,None,None,2,3.18241243379,None,None,None,None,None,None,1,2.41605631029,,['return'],[1.2001747587200953],2017_Feb_20_1032,60.0351840761,famFaceGrey,001,19,
123,./greyInner/KaleyCuoco(Penny)3_1_cut.png,0,37,37,122,,,None,None,2,4.04869378442,None,None,None,None,None,None,1,2.88259152298,,['return'],[1.0998966780762203],2017_Feb_20_1032,60.0351840761,famFaceGrey,001,19,
205,./greyInner/Usher7_1_cut.png,0,38,38,204,,,None,None,2,2.06614752292,None,None,None,None,None,None,1,2.46616311263,,['return'],[0.8666832828594124],2017_Feb_20_1032,60.0351840761,famFaceGrey,001,19,
199,./greyInner/UrsulavonderLeyen7_1_cut.png,0,39,39,198,,,None,None,1,3.66558821803,None,None,None,None,None,None,4,2.69923536644,Ursula van der Leyen,"['lshift', 'v', 'o', 'backspace', 'a', 'n', 'space', 'd', 'e', 'r', 'space', 'lshift', 'l', 'w', 'y', 'e', 'backspace', 'backspace', 'backspace', 'backspace', 'backspace', 'backspace', 'backspace', 'backspace', 'backspace', 'backspace', 'backspace', 'backspace', 'lshift', 'u', 'r', 's', 'u', 'l', 'a', 'space', 'v', 'a', 'n', 'space', 'd', 'e', 'r', 'space', 'lshift', 'l', 'e', 'y', 'e', 'n', 'return']","[1.0504044823937875, 1.5504681564143539, 1.8836892181761868, 5.415552371319791, 5.931906329582489, 5.99852410999938, 6.165180672223869, 6.231899497055565, 6.298465311772816, 6.431739044940514, 6.548518159605919, 7.06465270714034, 7.248096114729378, 7.49806812703082, 7.864433360567091, 8.014373006578353, 8.864053882655753, 9.014112536532593, 9.347194702321758, 9.497161293509635, 9.630443046075015, 9.780346765182912, 9.930377190778927, 10.080294061699533, 10.247034667215303, 10.380075196290818, 10.529986293245202, 10.729779970173695, 11.113075435910105, 11.413200121509362, 11.663086486640168, 11.946153912776026, 12.096238549502232, 12.595881686293069, 13.045709606051787, 13.645502513119027, 14.21189976009191, 14.495065343658098, 14.57852193513827, 14.944801200727852, 15.0782305102166, 15.177765994609217, 15.2949024536465, 15.394773148874265, 15.69453664078992, 15.861331457435881, 16.061231311194206, 16.327672921475823, 16.494292594470608, 17.310681100299917, 19.626348341475932]",2017_Feb_20_1032,60.0351840761,famFaceGrey,001,19,
72,./greyInner/GuentherJauch3_1_cut.png,0,40,40,71,,,None,None,1,1.89949930087,None,None,None,None,None,None,3,1.66622207124,Günther Jauch,"['lshift', 'h', 'backspace', 'lshift', 'g', u'\xfc', 'n', 't', 'h', 'e', 'r', 'space', 'lshift', 'j', 'a', 'u', 'c', 'h', 'return']","[0.7331840442211615, 0.8667204928660794, 1.5996421423851643, 1.91613955163848, 2.1828721056790528, 2.4661230156398233, 2.732608892999451, 2.9824917295954947, 3.165765767499579, 3.2825487314757993, 3.3822298481354665, 3.5822859197660364, 3.7488654957705876, 4.015378959858936, 4.248743440533872, 4.381881164711558, 4.5154015745611105, 4.598306110685371, 6.014606531446589]",2017_Feb_20_1032,60.0351840761,famFaceGrey,001,19,
224,./greyInner/notfamousface9_1_cut.png,0,41,41,223,,,None,None,2,2.24939814418,None,None,None,None,None,None,5,2.39963258326,,['return'],[1.100088181299725],2017_Feb_20_1032,60.0351840761,famFaceGrey,001,19,
167,./greyInner/RobertSeanLeonard(Wilson)10_1_cut.png,0,42,42,166,,,None,None,2,8.99634668306,None,None,None,None,None,None,1,4.79850877691,,['return'],[1.2998978970244934],2017_Feb_20_1032,60.0351840761,famFaceGrey,001,19,
183,./greyInner/SigmarGabriel3_3_cut.png,0,43,43,182,,,None,None,2,2.09961567837,None,None,None,None,None,None,1,2.68278822278,,['return'],[0.8165838583636287],2017_Feb_20_1032,60.0351840761,famFaceGrey,001,19,
154,./greyInner/NeilPatrickHarris(Barney)2_2_cut.png,0,44,44,153,,,None,None,1,5.94772250702,None,None,None,None,None,None,1,1.18297347087,Barny Stinson,"['lshift', 'b', 'a', 'r', 'n', 'i', 'e', 'backspace', 'backspace', 'y', 'space', 'lshift', 's', 't', 'i', 'n', 's', 'o', 'n', 'return']","[1.0335785023680728, 1.3499565829797575, 1.5499885964163695, 1.6999555083802989, 2.549640554544567, 2.6830047465209645, 2.8168844253987118, 3.8656895190633804, 4.01551625195134, 4.082265550494412, 4.931866232592256, 5.081810048690386, 5.181808091957464, 5.431893658933404, 5.598298412062832, 5.997962110590379, 6.131400081028005, 6.61461596225854, 6.7978065984243585, 8.463719120906717]",2017_Feb_20_1032,60.0351840761,famFaceGrey,001,19,
13,./greyInner/BarackObama2_1_cut.png,0,45,45,12,,,None,None,1,1.9665578274,None,None,None,None,None,None,4,2.73272244767,Barack Obama,"['lshift', 'b', 'a', 'r', 'a', 'c', 'k', 'space', 'lshift', 'o', 'b', 'a', 'm', 'a', 'return']","[0.6835837470534898, 0.7835372024683238, 1.0002572622861408, 1.1000073457680628, 1.2834940581069532, 1.4333387544456855, 1.5667318162550146, 2.0996698895023655, 2.432835457029796, 2.4996155500612076, 2.7328369646766077, 2.832824101562437, 2.999496061032005, 3.0659730208199107, 3.549177674894054]",2017_Feb_20_1032,60.0351840761,famFaceGrey,001,19,
97,./greyInner/JasonSegel(Marshall)14_1_cut.png,0,46,46,96,,,None,None,2,2.26619140507,None,None,None,None,None,None,2,3.34892304297,,['return'],[1.083247445581037],2017_Feb_20_1032,60.0351840761,famFaceGrey,001,19,
21,./greyInner/BenedictCumberbatch16_1_cut.png,0,47,47,20,,,None,None,1,2.36575896705,None,None,None,None,None,None,1,1.16630980346,Sherlock,"['lshift', 's', 'h', 'e', 'r', 'l', 'o', 'c', 'k', 'return']","[0.6503260206045525, 0.9336815035148902, 1.3335623673392547, 1.466807872226127, 1.6167805581562789, 2.4495632796260907, 2.5664235505983015, 2.733134965505087, 2.816287140638451, 3.699372658536049]",2017_Feb_20_1032,60.0351840761,famFaceGrey,001,19,
150,./greyInner/MilaKunis7_3_cut.png,0,48,48,149,,,None,None,2,2.73242027676,None,None,None,None,None,None,2,3.08293276441,,['return'],[1.0332628588639636],2017_Feb_20_1032,60.0351840761,famFaceGrey,001,19,
140,./greyInner/LisaEdelstein(DrLisaCuddy)9_1_cut.png,0,49,49,139,,,None,None,2,3.18236592128,None,None,None,None,None,None,3,1.83266210972,,['return'],[2.216385169759633],2017_Feb_20_1032,60.0351840761,famFaceGrey,001,19,
160,./greyInner/NicoleKidman8_2_cut.png,0,50,50,159,,,None,None,2,4.69833430689,None,None,None,None,None,None,5,1.84963404279,,['return'],[1.1332544866127137],2017_Feb_20_1032,60.0351840761,famFaceGrey,001,19,
60,./greyInner/ElvisPresley6_1_cut.png,0,51,51,59,,,None,None,1,2.66592984438,None,None,None,None,None,None,2,2.69930208783,Elvis Presley,"['lshift', 'e', 'l', 'v', 'i', 's', 'a', 'backspace', 'space', 'lshift', 'p', 'r', 'e', 's', 'l', 'e', 'y', 'return']","[0.7002689064529477, 0.9668920759049797, 1.3001044767170242, 1.5666359042561453, 1.7332866925153212, 1.9332231147282073, 2.682938345906223, 3.082569004513971, 3.5657172020264625, 3.7825549866065558, 4.1155422027241, 4.215609854364629, 4.448764868365288, 5.065162420075467, 5.2318594000662415, 5.548254802577503, 6.814495927910684]",2017_Feb_20_1032,60.0351840761,famFaceGrey,001,19,
74,./greyInner/GuentherJauch7_1_cut.png,0,52,52,73,,,None,None,1,1.68303040859,None,None,None,None,None,None,3,2.13262961512,Günther Jauch,"['lshift', 'g', u'\xfc', 'n', 't', 'h', 'e', 'r', 'space', 'lshift', 'k', 'backspace', 'lshift', 'j', 'a', 'u', 'c', 'h', 'return']","[0.7671109092361803, 0.9835525355574646, 1.4334442897234112, 1.7166708207150805, 1.833319058804591, 1.9332994593960393, 2.0166793854314164, 2.133328906625138, 2.2497506769168467, 2.483063191893052, 2.64968992195827, 3.2161028869513757, 3.532686584926523, 3.782605989977128, 3.8824853461537714, 3.9658296660627457, 4.115681740247965, 4.199034400329765, 4.832223609043467]",2017_Feb_20_1032,60.0351840761,famFaceGrey,001,19,
85,./greyInner/HughLaurie(DrHouse)9_2_cut.png,0,53,53,84,,,None,None,1,1.84977390109,None,None,None,None,None,None,1,1.49992285339,Doctor House,"['lshift', 'd', 'o', 'c', 't', 'o', 'r', 'space', 'lshift', 'h', 'o', 'u', 's', 'e', 'return']","[0.7335551819578541, 1.2334587887944508, 1.3499771126380438, 1.4832085033840485, 1.816208871314302, 1.899858569897333, 1.9998527638526866, 2.18295454508916, 2.449526390394567, 2.6161560074424415, 3.015723473194157, 3.18270177366594, 3.3160252271009085, 3.3991466077459336, 4.448931992617872]",2017_Feb_20_1032,60.0351840761,famFaceGrey,001,19,
212,./greyInner/notfamousface11_1_cut.png,0,54,54,211,,,None,None,2,1.93289784795,None,None,None,None,None,None,3,3.23213173882,,['return'],[0.7333874161531639],2017_Feb_20_1032,60.0351840761,famFaceGrey,001,19,
164,./greyInner/OmarEpps(DrEricForeman)5_2_cut.png,0,55,55,163,,,None,None,1,5.29819553923,None,None,None,None,None,None,2,1.68312247128,Tu Pack,"['lshift', '2', 'lshift', 't', 'u', 'space', 'lshift', 'p', 'a', 'c', 'k', 'return']","[0.7836741737855846, 1.9665485248960977, 3.1494446887691083, 3.4492967148380558, 3.71604049603593, 4.082237642990549, 4.398958312282957, 4.632304508730158, 4.78213701558434, 5.048842624448298, 5.165378270190558, 6.481430121692938]",2017_Feb_20_1032,60.0351840761,famFaceGrey,001,19,
22,./greyInner/BenedictCumberbatch2_2_cut.png,0,56,56,21,,,None,None,2,4.8819159689,None,None,None,None,None,None,1,1.18308606322,,['return'],[0.8167686252927524],2017_Feb_20_1032,60.0351840761,famFaceGrey,001,19,
75,./greyInner/GuentherJauch9_1_cut.png,0,57,57,74,,,None,None,1,3.96540239254,None,None,None,None,None,None,3,2.09950693534,Günther Jauch,"['lshift', 'h', 'backspace', 'lshift', 'g', u'\xfc', 'n', 't', 'h', 'e', 'r', 'space', 'lshift', 'j', 'a', 'u', 'c', 'h', 'delete', 'return']","[0.6833242393358887, 0.9166755681981158, 1.7330429028161234, 1.755512935128536, 1.949589102086975, 2.1828082712709147, 2.4326798807096566, 2.5826060541321567, 2.6658114780675533, 2.749392530604382, 2.8992580773774534, 2.999163095628319, 3.199169767767671, 3.515653383656172, 3.632206351298919, 3.7323224401034167, 3.832224892146769, 3.9321719320423654, 4.281782077030584, 5.264792822061281]",2017_Feb_20_1032,60.0351840761,famFaceGrey,001,19,
89,./greyInner/Ice-T(OdafinFinTutuola)6_1_cut.png,0,58,58,88,,,None,None,2,5.19849164748,None,None,None,None,None,None,1,0.949771623585,,['return'],[1.116591781527859],2017_Feb_20_1032,60.0351840761,famFaceGrey,001,19,
132,./greyInner/LeonardoDiCaprio2_1_cut.png,0,59,59,131,,,None,None,1,2.41599247588,None,None,None,None,None,None,1,2.21632614699,Leonardo Di Caprio,"['lshift', 'l', 'e', 'o', 'n', 'a', 'r', 'd', 'o', 'space', 'lshift', 'd', 'i', 'space', 'lshift', 'c', 'a', 'p', 'r', 'i', 'o', 'return']","[0.7001120470276874, 0.9832247025678953, 1.2333878973167884, 1.3996813412022675, 1.6163664364457873, 1.7329495570238578, 1.849569566833452, 2.0660747067868215, 2.1662148537852772, 2.7493469804239794, 2.949131675627541, 3.1157253657720503, 3.2656544261781164, 3.715595900612243, 3.782121939116223, 3.9489497956810737, 4.0155242713490225, 4.28194823895592, 4.498255780943509, 4.731799896132543, 5.71452258438876, 6.963807494672437]",2017_Feb_20_1032,60.0351840761,famFaceGrey,001,19,
157,./greyInner/NicoleKidman3_1_cut.png,0,60,60,156,,,None,None,2,10.4129505578,None,None,None,None,None,None,1,1.81649917352,,['return'],[0.9671830196621158],2017_Feb_20_1032,60.0351840761,famFaceGrey,001,19,
81,./greyInner/HughLaurie(DrHouse)2_1_cut.png,0,61,61,80,,,None,None,1,1.68307948731,None,None,None,None,None,None,1,2.84924141307,Doctor House,"['lshift', 'd', 'o', 'c', 't', 'o', 'r', 'space', 'lshift', 'h', 'o', 'u', 's', 'e', 'return']","[1.249969766869981, 1.4831895776060264, 1.9663817214186565, 2.4993355126853203, 2.9489135480034747, 3.0324586736369383, 3.1492262403680797, 3.3489592906489634, 3.5988251261214828, 3.8655438867972407, 4.13216128228305, 4.3152377222213545, 4.432037366545046, 4.531805734254704, 5.048269077105033]",2017_Feb_20_1032,60.0351840761,famFaceGrey,001,19,
41,./greyInner/CobieSmulders(Robin)12_1_cut.png,0,62,62,40,,,None,None,2,2.71622173443,None,None,None,None,None,None,3,2.36627573705,,['return'],[0.8999618597426888],2017_Feb_20_1032,60.0351840761,famFaceGrey,001,19,
134,./greyInner/LeonardoDiCaprio4_1_cut.png,0,63,63,133,,,None,None,1,1.58315778871,None,None,None,None,None,None,1,1.93281605009,Leonardo Di Caprio,"['lshift', 'l', 'e', 'o', 'n', 'a', 'r', 'f', 'backspace', 'd', 'o', 'space', 'lshift', 'd', 'i', 'space', 'lshift', 'c', 'a', 'p', 'r', 'i', 'o', 'return']","[0.7665274178407344, 1.1166540120566424, 1.2497362420008358, 1.4497249506885055, 1.9329597576988817, 2.1162203230151135, 2.183490882425758, 2.432745960549255, 3.1489061060019594, 3.432262551239546, 3.515727803669506, 3.8654396346237263, 3.932366643025489, 4.082150712715702, 4.848431133099439, 5.08160411055087, 5.148260063301677, 5.314949665446875, 5.43152893671413, 5.714640950703142, 5.981143187633279, 6.131121968306616, 6.33110458225201, 7.230660018906747]",2017_Feb_20_1032,60.0351840761,famFaceGrey,001,19,
116,./greyInner/JudithRakers1_1_cut.png,0,64,64,115,,,None,None,2,2.68281613028,None,None,None,None,None,None,2,1.91651325558,,['return'],[0.8499593095748423],2017_Feb_20_1032,60.0351840761,famFaceGrey,001,19,
165,./greyInner/OmarEpps(DrEricForeman)9_1_cut.png,0,65,65,164,,,None,None,2,2.69923440412,None,None,None,None,None,None,2,1.71632502427,,['return'],[0.8504914768236631],2017_Feb_20_1032,60.0351840761,famFaceGrey,001,19,
179,./greyInner/Shakira7_1_cut.png,0,66,66,178,,,None,None,2,3.39902278824,None,None,None,None,None,None,1,2.18260329546,,['return'],[1.1334623494076368],2017_Feb_20_1032,60.0351840761,famFaceGrey,001,19,
106,./greyInner/JoachimLoew1_1_cut.png,0,67,67,105,,,None,None,1,1.49967425206,None,None,None,None,None,None,5,1.98255620555,Jogi Löw,"['lshift', 'j', 'o', 'g', 'i', 'space', 'lshift', 'l', u'\xf6', 'w', 'return']","[0.700027682961263, 0.8334723896932701, 1.0499605285231155, 1.4497605568149083, 1.5330987819816073, 1.7496594161684698, 2.049505989046338, 2.216112510228413, 2.7659702300697973, 2.9991637371804245, 3.7655654108602903]",2017_Feb_20_1032,60.0351840761,famFaceGrey,001,19,
136,./greyInner/LisaEdelstein(DrLisaCuddy)1_1_cut.png,0,68,68,135,,,None,None,2,7.14738691125,None,None,None,None,None,None,2,4.79840484551,,['return'],[0.7833899663219199],2017_Feb_20_1032,60.0351840761,famFaceGrey,001,19,
192,./greyInner/TomCruise4_1_cut.png,0,69,69,191,,,None,None,2,6.19803967421,None,None,None,None,None,None,1,5.7644513561,,['return'],[0.7333563008887722],2017_Feb_20_1032,60.0351840761,famFaceGrey,001,19,
128,./greyInner/KatjaBurkard4_1_cut.png,0,70,70,127,,,None,None,1,3.91538284125,None,None,None,None,None,None,3,7.76355767439,,['return'],[5.64786406543044],2017_Feb_20_1032,60.0351840761,famFaceGrey,001,19,
124,./greyInner/KaleyCuoco(Penny)5_2_cut.png,0,71,71,123,,,None,None,2,2.39957933446,None,None,None,None,None,None,1,1.84960324831,,['return'],[0.7506502929809358],2017_Feb_20_1032,60.0351840761,famFaceGrey,001,19,
214,./greyInner/notfamousface1_2_cut.png,0,72,72,213,,,None,None,2,3.28220838823,None,None,None,None,None,None,3,2.03285354879,,['return'],[0.6666705159777848],2017_Feb_20_1032,60.0351840761,famFaceGrey,001,19,
162,./greyInner/OmarEpps(DrEricForeman)2_2_cut.png,0,73,73,161,,,None,None,1,2.1161619418,None,None,None,None,None,None,2,1.59966940834,Tu Pac,"['lshift', 't', 'u', 'space', 'lshift', 'p', 'a', 'c', 'return']","[0.9167990669275241, 1.4332216712364243, 1.5660421480315563, 1.8328103081985319, 2.116229304740955, 2.299413525388445, 2.449327188550342, 2.6324190257328155, 3.048977671109242]",2017_Feb_20_1032,60.0351840761,famFaceGrey,001,19,
133,./greyInner/LeonardoDiCaprio3_1_cut.png,0,74,74,132,,,None,None,1,1.78306886963,None,None,None,None,None,None,1,0.950170027276,Leonardo Di Caprio,"['lshift', 'l', 'e', 'o', 'n', 'a', 'r', 'd', 'o', 'space', 'lshift', 'd', 'i', 'space', 'lshift', 'c', 'a', 'p', 'r', 'o', 'backspace', 'i', 'o', 'return']","[0.833558357640868, 1.1502908956417741, 1.2501176445684905, 1.400303004932539, 1.7161460313127463, 1.866230668038952, 1.9824657467461293, 2.215695822311318, 2.499688366195187, 2.7995262781241763, 2.9328067475862554, 3.09953131430575, 3.1991880519954066, 3.465996629928668, 3.5325585953351037, 3.732599590497557, 3.865888079357319, 3.9991191493281804, 4.248966059020859, 4.398968897888153, 4.965348181409354, 5.315393619318456, 5.548408775018288, 6.248189460522553]",2017_Feb_20_1032,60.0351840761,famFaceGrey,001,19,
155,./greyInner/NeilPatrickHarris(Barney)3_7_cut.png,0,75,75,154,,,None,None,1,2.28287367748,None,None,None,None,None,None,1,0.700279812833,Barny Stinson,"['lshift', 'b', 'a', 'r', 'n', 'y', 'space', 'lshift', 's', 't', 'i', 'n', 's', 'o', 'n', 'return']","[1.066702786035421, 1.3832091770136685, 1.5665393507042609, 1.683176682413432, 1.7830711150591014, 1.9166200739646229, 2.5821611379333262, 2.6655064201695495, 2.732171354646198, 3.048636044755767, 3.1819052870605447, 3.3318154216867697, 3.4821550752685653, 3.5990756521132425, 3.799044793469875, 4.581793528730486]",2017_Feb_20_1032,60.0351840761,famFaceGrey,001,19,
121,./greyInner/KaleyCuoco(Penny)10_1_cut.png,0,76,76,120,,,None,None,2,5.16472420809,None,None,None,None,None,None,2,1.43308822845,,['return'],[1.3000213957539017],2017_Feb_20_1032,60.0351840761,famFaceGrey,001,19,
176,./greyInner/Shakira1_1_cut.png,0,77,77,175,,,None,None,2,2.53291818514,None,None,None,None,None,None,1,2.81617583139,,['return'],[1.0163672704638884],2017_Feb_20_1032,60.0351840761,famFaceGrey,001,19,
173,./greyInner/SahraWagenknecht5_1_cut.png,0,78,78,172,,,None,None,1,8.69677790213,None,None,None,None,None,None,4,2.46603223606,Sahra Wagenknecht,"['lshift', 's', 'a', 'r', 'a', 'h', 'backspace', 'backspace', 'backspace', 'h', 'r', 'a', 'space', 'lshift', 'w', 'a', 'g', 'e', 'n', 'k', 'n', 'e', 'c', 'h', 't', 'return']","[0.5999196135553575, 0.8833527242377386, 0.9999913390502115, 1.299794607180047, 1.449831769069533, 1.7328953458945762, 4.015248724836056, 5.281264344698684, 6.047867144880001, 6.530940922379159, 6.647709130662406, 6.780974202880316, 8.580061659547027, 8.72998815374558, 8.879993558820388, 8.946730667878, 9.130010158974073, 9.296517560396751, 9.346629495154048, 10.046290210464576, 10.246140985507736, 10.313000951742652, 10.42937749263001, 10.52934249597729, 10.645994904154577, 11.778855798715085]",2017_Feb_20_1032,60.0351840761,famFaceGrey,001,19,
25,./greyInner/BenedictCumberbatch6_5_cut.png,0,79,79,24,,,None,None,1,1.86632850469,None,None,None,None,None,None,1,0.566687869955,Sherlock,"['lshift', 's', 'h', 'e', 'r', 'l', 'o', 'c', 'k', 'return']","[1.0001032898462654, 1.7334631192697998, 2.3496021255896267, 2.4829887718806276, 2.5495799278960476, 3.1493968931572454, 3.3991510986097637, 3.515839433689507, 3.7158072919428378, 4.432059179307544]",2017_Feb_20_1032,60.0351840761,famFaceGrey,001,19,
172,./greyInner/SahraWagenknecht2_2_cut.png,0,80,80,171,,,None,None,1,3.16583858363,None,None,None,None,None,None,4,1.73321868802,Sahra Wagenknecht,"['lshift', 's', 'a', 'h', 'r', 'a', 'space', 'lshift', 'w', 'a', 'g', 'e', 'n', 'k', 'n', 'e', 'c', 'h', 't', 'return']","[0.7003141358572975, 1.1001026162166454, 1.350002453936213, 2.332949043782719, 2.4163857471558003, 2.5328549922842285, 3.0827175237636766, 3.1658934363149456, 3.2992021340578503, 3.365763137137037, 3.899110841231959, 4.015336617437242, 4.098832022803435, 4.7819711744341475, 4.96532348166329, 5.098584383794332, 5.214830368882758, 5.381709870371196, 5.515097478990356, 7.347602729289974]",2017_Feb_20_1032,60.0351840761,famFaceGrey,001,19,
59,./greyInner/ElvisPresley5_2_cut.png,0,81,81,58,,,None,None,1,2.13296225975,None,None,None,None,None,None,2,1.2828707905,Elvis Presley,"['lshift', 'e', 'l', 'v', 'i', 's', 'space', 'lshift', 'p', 'r', 'e', 's', 'l', 'e', 'y', 'return']","[0.7500135527825478, 1.1833693083526668, 1.4165252846805743, 1.6662794901330926, 1.8329957166788517, 2.0162533950115176, 2.349408056158609, 2.8657097279465233, 3.0825337191627113, 3.3157153575639313, 3.3989746718543756, 3.632369626241598, 4.165380515621109, 4.248633093617173, 4.515174465210293, 5.1649218060583735]",2017_Feb_20_1032,60.0351840761,famFaceGrey,001,19,
91,./greyInner/JanHofer1_3_cut.png,0,82,82,90,,,None,None,1,4.7816892124,None,None,None,None,None,None,4,1.99953615802,,['return'],[0.8167031870052597],2017_Feb_20_1032,60.0351840761,famFaceGrey,001,19,
177,./greyInner/Shakira2_1_cut.png,0,83,83,176,,,None,None,2,1.48298780955,None,None,None,None,None,None,1,2.13252824993,,['return'],[0.9668786033153083],2017_Feb_20_1032,60.0351840761,famFaceGrey,001,19,
61,./greyInner/EmilyDeschanel15_1_cut.png,0,84,84,60,,,None,None,2,1.8828324257,None,None,None,None,None,None,3,2.44842163813,,['return'],[1.0499618116264173],2017_Feb_20_1032,60.0351840761,famFaceGrey,001,19,
219,./greyInner/notfamousface4_2_cut.png,0,85,85,218,,,None,None,2,3.09929137392,None,None,None,None,None,None,2,2.5660825658,,['return'],[0.7001784476433386],2017_Feb_20_1032,60.0351840761,famFaceGrey,001,19,
151,./greyInner/NeilPatrickHarris(Barney)1_1_cut.png,0,86,86,150,,,None,None,2,4.71492547894,None,None,None,None,None,None,1,6.61429775255,,['return'],[0.633680958196237],2017_Feb_20_1032,60.0351840761,famFaceGrey,001,19,
52,./greyInner/DannFlorek(DonaldDonCragen)10_1_cut.png,0,87,87,51,,,None,None,2,2.48269654502,None,None,None,None,None,None,3,2.01625147036,,['return'],[0.750077066414633],2017_Feb_20_1032,60.0351840761,famFaceGrey,001,19,
99,./greyInner/JasonSegel(Marshall)7_1_cut.png,0,88,88,98,,,None,None,2,2.4660928627,None,None,None,None,None,None,5,1.7331057749,,['return'],[0.9329587953707232],2017_Feb_20_1032,60.0351840761,famFaceGrey,001,19,
170,./greyInner/RobertSeanLeonard(Wilson)8_1_cut.png,0,89,89,169,,,None,None,2,5.04834478022,None,None,None,None,None,None,4,2.39948983798,,['return'],[0.8502393469516392],2017_Feb_20_1032,60.0351840761,famFaceGrey,001,19,
125,./greyInner/KaleyCuoco(Penny)7_1_cut.png,0,90,90,124,,,None,None,2,3.49875266284,None,None,None,None,None,None,2,5.59804852762,,['return'],[0.7333447529554178],2017_Feb_20_1032,60.0351840761,famFaceGrey,001,19,
84,./greyInner/HughLaurie(DrHouse)8_1_cut.png,0,91,91,83,,,None,None,2,4.74854856916,None,None,None,None,None,None,1,2.31618208653,,['return'],[0.8165768012931949],2017_Feb_20_1032,60.0351840761,famFaceGrey,001,19,
223,./greyInner/notfamousface8_9_cut.png,0,92,92,222,,,None,None,2,2.58277093295,None,None,None,None,None,None,1,3.71563728071,,['return'],[1.000079231651398],2017_Feb_20_1032,60.0351840761,famFaceGrey,001,19,
206,./greyInner/WillSmith1_1_cut.png,0,93,93,205,,,None,None,2,1.88285616312,None,None,None,None,None,None,2,1.81631312349,,['return'],[0.7001450869474866],2017_Feb_20_1032,60.0351840761,famFaceGrey,001,19,
143,./greyInner/MariskaHargitay(Liv)4_4_cut.png,0,94,94,142,,,None,None,2,2.51599436846,None,None,None,None,None,None,3,1.49966527033,,['return'],[0.9502146151289708],2017_Feb_20_1032,60.0351840761,famFaceGrey,001,19,
16,./greyInner/BastianSchweinsteiger1_1_cut.png,0,95,95,15,,,None,None,1,5.34815831318,None,None,None,None,None,None,5,3.41557290098,Bastian Schweinsteiger,"['lshift', 'b', 'a', 's', 't', 'i', 'a', 'n', 'space', 'lshift', 's', 'c', 'h', 'w', 'e', 'i', 'n', 's', 't', 'e', 'u', 'backspace', 'i', 'g', 'e', 'r', 'return']","[5.6479766577785995, 5.99797879093785, 6.231136050369969, 6.347664959818758, 6.963970769615116, 7.080775867129887, 7.214241424297143, 7.347413792273983, 7.5304703441061065, 7.5638281526426, 7.713994266451664, 7.897110161829005, 8.030364327665666, 8.163735576712497, 8.230169552527514, 8.330309057974773, 8.497037474005083, 8.763315167793735, 8.979798174207644, 9.096670634665315, 9.213367309918794, 10.163060984955337, 10.44630227163907, 10.662658892341824, 10.76264121758868, 10.862708548454066, 13.028371667659485]",2017_Feb_20_1032,60.0351840761,famFaceGrey,001,19,
28,./greyInner/Beyonce3_2_cut.png,0,96,96,27,,,None,None,2,2.58255472999,None,None,None,None,None,None,2,1.96632045322,,['return'],[0.8667224175214869],2017_Feb_20_1032,60.0351840761,famFaceGrey,001,19,
102,./greyInner/JimParsons(SheldonCooper)10_1_cut.png,0,97,97,101,,,None,None,1,3.84900532199,None,None,None,None,None,None,1,1.39986899511,Sheldon Cooper,"['lshift', 's', 'h', 'e', 'l', 'd', 'o', 'n', 'space', 'lshift', 'c', 'o', 'o', 'p', 'e', 'r', 'return']","[0.7670785108684868, 0.8836292330788638, 1.2668368062140871, 1.7498615049971704, 2.082710466693243, 2.266456365974591, 2.3329330049873533, 2.5660864151077476, 2.799460198284578, 2.9161417970699404, 3.1326790146149506, 3.4158898275863976, 3.5658009245398716, 3.73246967625073, 3.9324795561487917, 4.032137256165697, 5.231884420587448]",2017_Feb_20_1032,60.0351840761,famFaceGrey,001,19,
58,./greyInner/ElvisPresley4_10_cut.png,0,98,98,57,,,None,None,1,1.38336635721,None,None,None,None,None,None,2,1.01683977339,Elvis Presley,"['lshift', 'e', 'l', 'v', 'i', 's', 'space', 'lshift', 'p', 'r', 'e', 's', 'l', 'e', 'x', 'backspace', 'y', 'return']","[0.45039761778934917, 0.7831782542152723, 0.9336086873809109, 1.2832563631509402, 1.4168255309396045, 1.6332912154548467, 1.9497376213366806, 2.2996075948185535, 2.482879066516034, 2.7162490003820494, 2.832826988546003, 3.1160538403128157, 3.415905866381763, 3.5157496164320037, 3.7322541148332675, 4.481935343764235, 4.582032186013748, 4.7985771021803885]",2017_Feb_20_1032,60.0351840761,famFaceGrey,001,19,
34,./greyInner/BritneySpears7_1_cut.png,0,99,99,33,,,None,None,1,3.03229154938,None,None,None,None,None,None,2,1.93298991064,Britney Spears,"['lshift', 'b', 'r', 'i', 't', 'n', 'e', 'y', 'space', 'lshift', 's', 'p', 'e', 'a', 'r', 't', 'backspace', 's', 'return']","[0.6504604257143001, 0.8337691074184477, 1.0000731369091227, 1.6334817563501929, 1.7999683073385313, 2.033243612308979, 2.166598501783483, 2.6662971328087224, 2.7663278952186374, 2.99942709420975, 3.149493767484273, 3.432587818020693, 3.549173825583239, 3.8823794901009023, 4.132722960915089, 4.632163688101173, 4.782112957390382, 5.931514341409638]",2017_Feb_20_1032,60.0351840761,famFaceGrey,001,19,
18,./greyInner/BastianSchweinsteiger14_1_cut.png,0,100,100,17,,,None,None,1,3.33255224397,None,None,None,None,None,None,5,1.24978564149,Bastian Schweinsteiger,"['lshift', 'b', 'a', 's', 't', 'i', 'a', 'n', 'space', 'lshift', 's', 'c', 'h', 'w', 'e', 'i', 'n', 's', 't', 'e', 'i', 'g', 'e', 'r', 'return']","[0.6667840706522838, 0.866900768931373, 0.9999316747289413, 1.1168150415669515, 1.2166065051424084, 1.8331872199023564, 1.9662636758803274, 2.0497096817543934, 2.2327886879011203, 2.282860846444237, 2.3163273980162558, 2.5992129442056466, 2.8161091100037083, 3.082565475978299, 3.149007150415855, 3.232458930257053, 3.3986218183435994, 3.5823519996047253, 3.8987185322830555, 4.048956820673993, 4.1319136432730375, 4.465213295135072, 4.614981646805063, 4.748606950379326, 5.265061953056829]",2017_Feb_20_1032,60.0351840761,famFaceGrey,001,19,
195,./greyInner/TomCruise7_1_cut.png,0,101,101,194,,,None,None,2,2.39935222511,None,None,None,None,None,None,1,2.03255330253,,['return'],[1.1171579510246374],2017_Feb_20_1032,60.0351840761,famFaceGrey,001,19,
73,./greyInner/GuentherJauch4_1_cut.png,0,102,102,72,,,None,None,1,1.14998519619,None,None,None,None,None,None,3,1.26665107696,Günther Jauch,"['lshift', 'g', u'\xfc', 'n', 't', 'h', 'e', 'r', 'space', 'lshift', 'k', 'backspace', 'lshift', 'j', 'a', 'u', 'c', 'h', 'return']","[0.549878891051776, 0.8665482361975592, 1.09986684591604, 1.3663985942312138, 1.499675855933674, 1.5998083043104998, 1.6995975224544964, 1.816212720625117, 1.9163336210685884, 2.1828124413577825, 2.4160954449498604, 2.9158069070108468, 3.232264860826035, 3.4988530657028605, 3.5988276923280864, 4.132161923834246, 4.298553525150965, 4.431880827896748, 5.248145193445453]",2017_Feb_20_1032,60.0351840761,famFaceGrey,001,19,
210,./greyInner/WillSmith6_1_cut.png,0,103,103,209,,,None,None,1,1.73299222022,None,None,None,None,None,None,1,0.78338066382,Will Smith,"['lshift', 'w', 'i', 'l', 'l', 'space', 'lshift', 's', 'm', 'i', 't', 'h', 'return']","[0.6667908069466648, 0.8499814431124832, 1.0498578802289558, 1.2331752228828918, 1.3331383015747633, 1.5663087128186817, 1.6997344937717571, 1.8496022859771983, 2.0994591397238764, 2.2492922881292543, 2.382662254072784, 2.4990471351338783, 3.065752647764384]",2017_Feb_20_1032,60.0351840761,famFaceGrey,001,19,
175,./greyInner/SahraWagenknecht9_1_cut.png,0,104,104,174,,,None,None,1,1.84944927586,None,None,None,None,None,None,4,1.23323584953,Sahra Wagenknecht,"['lshift', 's', 'a', 'h', 'r', 'a', 'space', 'lshift', 'w', 'a', 'g', 'e', 'n', 'k', 'n', 'e', 'c', 'h', 't', 'return']","[0.4666025756378076, 0.8168148170243512, 0.999996150689185, 1.533267510114456, 1.6496029916843327, 1.8163128027117637, 2.0828544950809373, 2.1994677685961506, 2.3995052352229322, 2.449371776402586, 3.0490854518175183, 3.165761918188764, 3.2656499353151958, 3.499033341769973, 3.7321145773084936, 3.8987108336614256, 3.9821529902246766, 4.648472577348002, 4.748626838487326, 5.2481663646558445]",2017_Feb_20_1032,60.0351840761,famFaceGrey,001,19,
83,./greyInner/HughLaurie(DrHouse)5_3_cut.png,0,105,105,82,,,None,None,1,1.36661062711,None,None,None,None,None,None,1,0.583234454156,Dr House,"['lshift', 'd', 'r', 'period', 'space', 'lshift', 'h', 'o', 'u', 's', 'e', 'return']","[0.46684668611214875, 0.7173325814346754, 1.0002287132301717, 1.9331801307544083, 2.8490479851907367, 3.299112316800347, 3.415695116603274, 3.6155513448366037, 3.7987589821268557, 3.98194031579078, 4.081965304235382, 4.798272044282385]",2017_Feb_20_1032,60.0351840761,famFaceGrey,001,19,
63,./greyInner/EmilyDeschanel5_1_cut.png,0,106,106,62,,,None,None,2,4.2824524987,None,None,None,None,None,None,2,0.850190268236,,['return'],[1.1665763682458419],2017_Feb_20_1032,60.0351840761,famFaceGrey,001,19,
32,./greyInner/BritneySpears14_2_cut.png,0,107,107,31,,,None,None,1,2.08248592355,None,None,None,None,None,None,2,1.58303781852,Britney Spears,"['lshift', 'b', 'r', 'i', 't', 'n', 'e', 'y', 'space', 'lshift', 's', 'p', 'e', 'a', 'r', 's', 'return']","[0.5667103242694793, 0.8334268395137769, 1.033472004763098, 1.1998292830567152, 1.3996627361993887, 1.8662152707947826, 1.9997667959078171, 2.59940990062114, 2.782551458070884, 2.9324349682965476, 3.0157237939711194, 3.2990234618719114, 3.365583181846887, 3.515512242252953, 3.632242598978337, 3.7987394147958184, 4.248578882487891]",2017_Feb_20_1032,60.0351840761,famFaceGrey,001,19,
2,./greyInner/AlysonHannigan(Lily)12_2_cut.png,0,108,108,1,,,None,None,2,5.74858609995,None,None,None,None,None,None,1,1.03270278411,,['return'],[0.8003772966349061],2017_Feb_20_1032,60.0351840761,famFaceGrey,001,19,
92,./greyInner/JanHofer3_1_cut.png,0,109,109,91,,,None,None,2,26.1230252633,None,None,None,None,None,None,4,1.59975986715,,['return'],[0.7834672733188199],2017_Feb_20_1032,60.0351840761,famFaceGrey,001,19,
138,./greyInner/LisaEdelstein(DrLisaCuddy)2_2_cut.png,0,110,110,137,,,None,None,2,3.83237886459,None,None,None,None,None,None,3,1.83295594046,,['return'],[0.8333495325177864],2017_Feb_20_1032,60.0351840761,famFaceGrey,001,19,
201,./greyInner/Usher1_1_cut.png,0,111,111,200,,,None,None,2,5.04824405658,None,None,None,None,None,None,1,3.04889811868,,['return'],[0.9502524666868339],2017_Feb_20_1032,60.0351840761,famFaceGrey,001,19,
215,./greyInner/notfamousface13_1_cut.png,0,112,112,214,,,None,None,2,2.61583362764,None,None,None,None,None,None,5,1.36672995576,,['return'],[0.783503520996419],2017_Feb_20_1032,60.0351840761,famFaceGrey,001,19,
217,./greyInner/notfamousface2_cut.png,0,113,113,216,,,None,None,2,4.94863703916,None,None,None,None,None,None,5,2.06651128281,,['return'],[0.733561918252235],2017_Feb_20_1032,60.0351840761,famFaceGrey,001,19,
100,./greyInner/JasonSegel(Marshall)9_1_cut.png,0,114,114,99,,,None,None,2,1.91624893623,None,None,None,None,None,None,1,1.98313552686,,['return'],[0.7667580557254041],2017_Feb_20_1032,60.0351840761,famFaceGrey,001,19,
46,./greyInner/CristinMilioti(Tracy_Mutter)10_1_cut.png,0,115,115,45,,,None,None,2,3.48232027487,None,None,None,None,None,None,1,1.516418755,,['return'],[0.8167134518344028],2017_Feb_20_1032,60.0351840761,famFaceGrey,001,19,
146,./greyInner/MilaKunis1_3_cut.png,0,116,116,145,,,None,None,2,1.84964430762,None,None,None,None,None,None,3,1.66655279122,,['return'],[0.5837085609637143],2017_Feb_20_1032,60.0351840761,famFaceGrey,001,19,
87,./greyInner/Ice-T(OdafinFinTutuola)12_1_cut.png,0,117,117,86,,,None,None,2,2.56587662766,None,None,None,None,None,None,1,1.06674031682,,['return'],[0.6503856849258227],2017_Feb_20_1032,60.0351840761,famFaceGrey,001,19,
64,./greyInner/EmilyDeschanel6_12_cut.png,0,118,118,63,,,None,None,2,3.84905215528,None,None,None,None,None,None,1,1.16644035926,,['return'],[0.9670072344588334],2017_Feb_20_1032,60.0351840761,famFaceGrey,001,19,
189,./greyInner/TaylorSwift7_1_cut.png,0,119,119,188,,,None,None,2,3.11565992749,None,None,None,None,None,None,2,2.26607785039,,['return'],[0.7335692960987217],2017_Feb_20_1032,60.0351840761,famFaceGrey,001,19,
113,./greyInner/JoshRadnor(Ted)6_2_cut.png,0,120,120,112,,,None,None,2,4.28185617627,None,None,None,None,None,None,3,1.88297132167,,['return'],[0.7839474748680004],2017_Feb_20_1032,60.0351840761,famFaceGrey,001,19,
148,./greyInner/MilaKunis4_1_cut.png,0,121,121,147,,,None,None,2,3.49885916045,None,None,None,None,None,None,1,1.38315689054,,['return'],[0.7668058513381766],2017_Feb_20_1032,60.0351840761,famFaceGrey,001,19,
86,./greyInner/Ice-T(OdafinFinTutuola)10_1_cut.png,0,122,122,85,,,None,None,2,2.51604056019,None,None,None,None,None,None,1,1.6328363552,,['return'],[0.5504376827020678],2017_Feb_20_1032,60.0351840761,famFaceGrey,001,19,
107,./greyInner/JoachimLoew12_1_cut.png,0,123,123,106,,,None,None,1,6.98078391861,None,None,None,None,None,None,5,1.53312733104,Jogi Löw,"['lshift', 'j', 'o', 'g', 'i', 'space', 'lshift', 'l', u'\xf6', 'w', 'return']","[0.8672000528640638, 1.0671348711975952, 1.2666613417868575, 1.6001829705837736, 1.7332520487161673, 2.0667887539812, 2.316541034778311, 2.5996613889410582, 2.749749874978079, 2.916291278648714, 3.166361127604432]",2017_Feb_20_1032,60.0351840761,famFaceGrey,001,19,
198,./greyInner/UrsulavonderLeyen5_1_cut.png,0,124,124,197,,,None,None,1,1.9330463672,None,None,None,None,None,None,4,1.34950460971,Ursula van der Leyen,"['lshift', 'u', 'r', 's', 'u', 'l', 'a', 'space', 'v', 'a', 'n', 'space', 'd', 'e', 'r', 'space', 'lshift', 'l', 'e', 'y', 'e', 'm', 'backspace', 'n', 'return']","[0.7000713084862582, 0.8831233694554612, 1.4831870113976038, 1.8160378977499931, 2.6326721179320884, 2.848887597230714, 2.9825446576214745, 3.2156955015343556, 4.015258348113093, 4.581706598456549, 4.7152751246931075, 4.864808347615508, 4.9649488153900165, 5.081552786403336, 5.248023619372361, 5.331347088846087, 5.681283462942702, 5.864635770171844, 6.147858131075736, 6.480825459086191, 6.681002784013799, 6.864267519416899, 7.847143217786652, 8.013782458111564, 8.780086615913206]",2017_Feb_20_1032,60.0351840761,famFaceGrey,001,19,
220,./greyInner/notfamousface5_1_cut.png,0,125,125,219,,,None,None,2,2.29975226476,None,None,None,None,None,None,4,2.38297789758,,['return'],[0.8835625116880692],2017_Feb_20_1032,60.0351840761,famFaceGrey,001,19,
145,./greyInner/MariskaHargitay(Liv)8_8_cut.png,0,126,126,144,,,None,None,2,3.41589528078,None,None,None,None,None,None,1,0.767024299737,,['return'],[0.816835346683547],2017_Feb_20_1032,60.0351840761,famFaceGrey,001,19,
190,./greyInner/TaylorSwift8_1_cut.png,0,127,127,189,,,None,None,2,1.26647689563,None,None,None,None,None,None,2,2.28275434884,,['return'],[0.9836869406672122],2017_Feb_20_1032,60.0351840761,famFaceGrey,001,19,
23,./greyInner/BenedictCumberbatch3_9_cut.png,0,128,128,22,,,None,None,1,1.59985481682,None,None,None,None,None,None,1,0.933336669403,Sherlock,"['lshift', 's', 'h', 'e', 'r', 'l', 'o', 'c', 'k', 'return']","[0.7335160472966891, 0.9336083666057675, 1.2166921523139536, 1.4166369147005753, 1.4666423518519878, 1.6166214533013772, 1.7666310284621431, 1.8829199975243682, 2.0165728878273512, 2.6826352126636266]",2017_Feb_20_1032,60.0351840761,famFaceGrey,001,19,
68,./greyInner/EmmaWatson(HermioneGranger)3_1_cut.png,0,129,129,67,,,None,None,1,1.98276920076,None,None,None,None,None,None,1,0.733521500487,Emma Watson,"['lshift', 'e', 'm', 'm', 'a', 'space', 'lshift', 'w', 'a', 't', 's', 'o', 'n', 'return']","[0.5501367948900224, 0.7333623956310475, 0.9166085260312684, 1.0498549932453898, 1.1664746822789311, 1.31627928162834, 1.4497836526816172, 1.6494865500262677, 1.716200242442028, 2.0660981234286737, 2.2494462605709487, 2.4493807581275178, 3.048966764727993, 3.7487073532420254]",2017_Feb_20_1032,60.0351840761,famFaceGrey,001,19,
171,./greyInner/SahraWagenknecht12_1_cut.png,0,130,130,170,,,None,None,2,1.38314021019,None,None,None,None,None,None,4,4.04884422833,,['return'],[1.8498422263646717],2017_Feb_20_1032,60.0351840761,famFaceGrey,001,19,
33,./greyInner/BritneySpears5_1_cut.png,0,131,131,32,,,None,None,1,1.61640909964,None,None,None,None,None,None,2,1.38305969544,Britney Spears,"['lshift', 'b', 'r', 'i', 't', 'n', 'e', 'y', 'space', 'lshift', 's', 'p', 'e', 'a', 'r', 's', 'return']","[0.5668020661823903, 0.7667808308160602, 1.0166270989575423, 1.2999001424568633, 1.4497053833583777, 1.8828795797580824, 1.9663137169236506, 2.482658372685364, 2.6493078778403287, 2.8157341229562007, 2.9658396101167455, 3.182083959247393, 3.265579364613586, 3.465652758143733, 3.565478865518344, 3.748962690873668, 4.198800875462439]",2017_Feb_20_1032,60.0351840761,famFaceGrey,001,19,
55,./greyInner/DannFlorek(DonaldDonCragen)8_1_cut.png,0,132,132,54,,,None,None,2,2.28263694485,None,None,None,None,None,None,4,1.649758568,,['return'],[0.7164847706817454],2017_Feb_20_1032,60.0351840761,famFaceGrey,001,19,
36,./greyInner/CarenMiosga1_1_cut.png,0,133,133,35,,,None,None,2,28.5220438815,None,None,None,None,None,None,4,0.816479285414,,['return'],[0.8334585963293648],2017_Feb_20_1032,60.0351840761,famFaceGrey,001,19,
163,./greyInner/OmarEpps(DrEricForeman)3_1_cut.png,0,134,134,162,,,None,None,2,3.61590772688,None,None,None,None,None,None,1,1.21652438651,,['return'],[0.8334101591653962],2017_Feb_20_1032,60.0351840761,famFaceGrey,001,19,
191,./greyInner/TomCruise1_1_cut.png,0,135,135,190,,,None,None,2,3.14921854175,None,None,None,None,None,None,2,1.38301799457,,['return'],[0.8336853849032195],2017_Feb_20_1032,60.0351840761,famFaceGrey,001,19,
98,./greyInner/JasonSegel(Marshall)6_1_cut.png,0,136,136,97,,,None,None,2,1.53337849858,None,None,None,None,None,None,4,1.64952215615,,['return'],[1.6999609615704685],2017_Feb_20_1032,60.0351840761,famFaceGrey,001,19,
142,./greyInner/MariskaHargitay(Liv)14_1_cut.png,0,137,137,141,,,None,None,2,2.74913655142,None,None,None,None,None,None,3,0.883040609269,,['return'],[0.7171532676957213],2017_Feb_20_1032,60.0351840761,famFaceGrey,001,19,
204,./greyInner/Usher4_1_cut.png,0,138,138,203,,,None,None,1,8.16369227196,None,None,None,None,None,None,1,0.667035558973,Will Smith,"['lshift', 'w', 'i', 'l', 'l', 'space', 'lshift', 's', 'm', 'i', 't', 'h', 'return']","[0.5004393026201797, 0.7837428198317866, 0.9169764560092517, 1.117023225138837, 1.233457505691149, 1.6167863321225013, 1.716568493196064, 1.8835156784034552, 2.5162885199752054, 2.682769296996412, 3.0995265026667767, 3.2161237373857148, 3.949067841219403]",2017_Feb_20_1032,60.0351840761,famFaceGrey,001,19,
7,./greyInner/AngelaMerkel3_1_cut.png,0,139,139,6,,,None,None,1,1.39967043482,None,None,None,None,None,None,4,1.36642265243,Angela Merkel,"['lshift', 'a', 'n', 'g', 'e', 'l', 'a', 'space', 'lshift', 'm', 'e', 'r', 'k', 'e', 'l', 'return']","[0.4500781249753345, 0.6167398196148497, 0.7665976677662911, 0.9499300868883438, 1.083219858852317, 1.5496617257549588, 1.6662387515916635, 1.782839194069311, 1.9495512505291117, 2.0495781636282118, 2.2326712839148968, 2.3494058107271485, 2.4993364750125693, 2.599280627925509, 2.7159452255873475, 3.149112364917528]",2017_Feb_20_1032,60.0351840761,famFaceGrey,001,19,
39,./greyInner/CarenMiosga6_2_cut.png,0,140,140,38,,,None,None,2,7.83055942358,None,None,None,None,None,None,2,0.500142584896,,['return'],[0.6835433292881135],2017_Feb_20_1032,60.0351840761,famFaceGrey,001,19,
57,./greyInner/ElvisPresley2_1_cut.png,0,141,141,56,,,None,None,1,1.84957694468,None,None,None,None,None,None,2,1.86647542006,Elvis Presley,"['lshift', 'e', 'l', 'v', 'i', 's', 'space', 'lshift', 'p', 'r', 'e', 's', 'l', 'e', 'y', 'return']","[0.4502106054296746, 0.8003734473240911, 1.0335262158932892, 1.2501077005144907, 1.3999636240114341, 1.5665707867447054, 1.7999259649177475, 2.0830270725255104, 2.3330083873279364, 2.499555885740847, 2.5995863273756186, 2.865993293858992, 3.13272199858784, 3.265835985348531, 3.5157727122987126, 3.9156667279348767]",2017_Feb_20_1032,60.0351840761,famFaceGrey,001,19,
120,./greyInner/JudithRakers8_1_cut.png,0,142,142,119,,,None,None,2,3.23171056004,None,None,None,None,None,None,5,1.00063417399,,['return'],[0.7999811383751876],2017_Feb_20_1032,60.0351840761,famFaceGrey,001,19,
15,./greyInner/BarackObama5_2_cut.png,0,143,143,14,,,None,None,1,3.51555875476,None,None,None,None,None,None,4,1.29968522259,Barack Obama,"['lshift', 'b', 'a', 'r', 'a', 'c', 'k', 'space', 'lshift', 'o', 'b', 'a', 'm', 'a', 'return']","[0.5500607709973337, 0.7333829252902433, 0.9499628060320902, 0.9998944647222743, 1.1832179021184857, 1.3995081222064982, 1.716103688891053, 1.9162441245880473, 2.182698886682374, 2.349512308332123, 2.5659366127538306, 2.649361126641452, 2.7658608454812565, 2.86601510662058, 3.2156951807583027]",2017_Feb_20_1032,60.0351840761,famFaceGrey,001,19,
126,./greyInner/KatjaBurkard1_1_cut.png,0,144,144,125,,,None,None,1,4.69829517223,None,None,None,None,None,None,3,2.56532874239,Arbeitet bei RTL,"['lshift', 'a', 'r', 'b', 'e', 'i', 't', 'e', 't', 'space', 'b', 'e', 'i', 'space', 'lshift', 'r', 't', 'l', 'backspace', 'backspace', 'lshift', 't', 'l', 'backspace', 'lshift', 'l', 'return']","[1.2163575830300033, 1.3336881114992138, 1.6326573622400247, 1.9992843489253573, 2.115749744742061, 2.2826517005451024, 2.4330378666345496, 2.5493993310537917, 2.6329714018638697, 2.766206321145546, 2.932778840080573, 2.9993520326443104, 3.116039084620752, 3.3160916277165597, 3.4825839526711206, 3.7492475398894385, 3.982482747868744, 4.2155562847856345, 4.78221207714887, 4.932048112537814, 5.698401990606726, 5.864953979882557, 6.664663741831646, 7.430870383753245, 7.564184213911176, 7.680916495291967, 11.629463396419851]",2017_Feb_20_1032,60.0351840761,famFaceGrey,001,19,
37,./greyInner/CarenMiosga13_1_cut.png,0,145,145,36,,,None,None,2,5.39796230306,None,None,None,None,None,None,5,1.81650302283,,['return'],[0.9500818138976683],2017_Feb_20_1032,60.0351840761,famFaceGrey,001,19,
211,./greyInner/notfamousface10_4_cut.png,0,146,146,210,,,None,None,2,2.36617116411,None,None,None,None,None,None,1,1.98260207651,,['return'],[0.7666987121810962],2017_Feb_20_1032,60.0351840761,famFaceGrey,001,19,
193,./greyInner/TomCruise5_1_cut.png,0,147,147,192,,,None,None,1,3.01573149259,None,None,None,None,None,None,1,1.99971867952,Tom Hanks,"['lshift', 't', 'o', 'm', 'space', 'lshift', 'lshift', 'h', 'a', 'n', 'k', 's', 'return']","[0.6833252016640472, 0.9166386789675016, 1.4495594303152757, 1.616251598667077, 1.7829299736549729, 1.8329889803853803, 8.996562886033644, 9.1632877735301, 9.279834646429663, 9.363130849950721, 9.463115420629038, 9.563109935360444, 10.579397974172025]",2017_Feb_20_1032,60.0351840761,famFaceGrey,001,19,
200,./greyInner/UrsulavonderLeyen8_2_cut.png,0,148,148,199,,,None,None,1,10.1129259543,None,None,None,None,None,None,4,1.71616976873,Von der Leyen,"['lshift', 'v', 'o', 'n', 'space', 'd', 'e', 'r', 'space', 'lshift', 'l', 'backspace', 'backspace', 'backspace', 'backspace', 'backspace', 'backspace', 'backspace', 'backspace', 'a', 'backspace', 'o', 'n', 'space', 'd', 'e', 'r', 'space', 'lshift', 'l', 'e', 'y', 'e', 'n', 'return']","[0.6333621069334185, 0.8998078873028135, 1.0667287688847864, 1.3166526647974024, 1.4997727302616113, 1.716488299217417, 1.8327743812951667, 1.9996894889109171, 2.283012894229614, 2.7159150726511143, 2.9159599171243826, 4.731807594755082, 4.898405134211316, 5.048287682108821, 5.181686517884373, 5.331514854651687, 5.481490748341457, 5.614739140210986, 5.99794126015513, 6.1478462623672385, 6.947781850562933, 7.3141294414235745, 7.48078568287292, 7.664045606637046, 7.730707012578932, 7.863873927365603, 7.947072935782671, 8.063758063103705, 8.397020504959073, 8.54705670452131, 9.063378585192368, 9.313297027914814, 9.51324884737187, 9.646612718572214, 10.295949466244565]",2017_Feb_20_1032,60.0351840761,famFaceGrey,001,19,
218,./greyInner/notfamousface3_3_cut.png,0,149,149,217,,,None,None,2,1.58297366333,None,None,None,None,None,None,5,0.950204671075,,['return'],[0.7337848575161843],2017_Feb_20_1032,60.0351840761,famFaceGrey,001,19,
94,./greyInner/JanHofer7_1_cut.png,0,150,150,93,,,None,None,2,1.31649708848,None,None,None,None,None,None,4,1.4497194975,,['return'],[1.266684116876604],2017_Feb_20_1032,60.0351840761,famFaceGrey,001,19,
207,./greyInner/WillSmith14_1_cut.png,0,151,151,206,,,None,None,2,10.0459697553,None,None,None,None,None,None,2,0.566885147145,,['return'],[0.5502853141406376],2017_Feb_20_1032,60.0351840761,famFaceGrey,001,19,
51,./greyInner/DannFlorek(DonaldDonCragen)1_1_cut.png,0,152,152,50,,,None,None,2,1.9328917532,None,None,None,None,None,None,4,3.71542107774,,['return'],[0.6504896163232843],2017_Feb_20_1032,60.0351840761,famFaceGrey,001,19,
90,./greyInner/Ice-T(OdafinFinTutuola)7_1_cut.png,0,153,153,89,,,None,None,2,2.29963774775,None,None,None,None,None,None,1,1.08362403651,,['return'],[0.5667850650588662],2017_Feb_20_1032,60.0351840761,famFaceGrey,001,19,
111,./greyInner/JoshRadnor(Ted)1_2_cut.png,0,154,154,110,,,None,None,2,4.88189415614,None,None,None,None,None,None,1,1.13316691479,,['return'],[0.8502037408243268],2017_Feb_20_1032,60.0351840761,famFaceGrey,001,19,
11,./greyInner/BarackObama1_3_cut.png,0,155,155,10,,,None,None,1,2.49962549412,None,None,None,None,None,None,4,1.18325382902,Barack Obama,"['lshift', 'lshift', 'b', 'a', 'r', 'a', 'c', 'k', 'space', 'lshift', 'o', 'b', 'a', 'm', 'a', 'return']","[0.6002070287777315, 0.7336202994702035, 0.8832584161173145, 1.0833241110258314, 1.2328377666171946, 1.3666779900568145, 1.5998467974213781, 1.732822208984544, 1.9828497155194782, 2.266153553507138, 2.3828354730694628, 2.616165309945245, 2.7327035218950186, 2.8826794155847892, 2.949063671132535, 3.515772070746607]",2017_Feb_20_1032,60.0351840761,famFaceGrey,001,19,
62,./greyInner/EmilyDeschanel3_1_cut.png,0,156,156,61,,,None,None,2,3.28224752289,None,None,None,None,None,None,1,0.783430063311,,['return'],[3.732240642245415],2017_Feb_20_1032,60.0351840761,famFaceGrey,001,19,
194,./greyInner/TomCruise6_1_cut.png,0,157,157,193,,,None,None,1,3.76545249774,None,None,None,None,None,None,1,0.633327142357,Tom Hanks,"['lshift', 't', 'o', 'm', 'space', 'lshift', 'h', 'a', 'n', 'j', 'k', 'backspace', 'backspace', 'k', 's', 'return']","[0.7168767588545961, 1.016602078435426, 1.1170383016069536, 1.2834029577461479, 1.433449422137528, 1.6000136008988193, 2.3497294736289405, 2.4830404168033056, 2.6662435632297274, 2.8330306812540584, 3.4325169265430304, 3.615842609370702, 4.282192028654208, 4.365595050555385, 4.682018360571419]",2017_Feb_20_1032,60.0351840761,famFaceGrey,001,19,
8,./greyInner/AngelaMerkel4_1_cut.png,0,158,158,7,,,None,None,1,1.98298476218,None,None,None,None,None,None,4,1.3499363741,Angela Merkel,"['lshift', 'a', 'n', 'g', 'e', 'l', 'a', 'space', 'lshift', 'm', 'e', 'r', 'k', 'l', 'e', 'backspace', 'backspace', 'e', 'l', 'return']","[0.4169676346718916, 0.5834416753996265, 0.7000709877102054, 0.8835150368522591, 0.9831018453915021, 1.266664228769514, 1.6499035587194157, 1.8164908333465064, 1.9996355985558694, 2.1495765276704333, 2.7159327153258346, 2.8493886492151432, 2.982553960122459, 3.1157885586280827, 3.1823659212795974, 3.7990492843327957, 3.9154213343572337, 4.298763954153401, 4.448693656110663, 4.81523499562627]",2017_Feb_20_1032,60.0351840761,famFaceGrey,001,19,
203,./greyInner/Usher2_1_cut.png,0,159,159,202,,,None,None,1,7.06409199083,None,None,None,None,None,None,1,1.03295010234,Will Smith,"['lshift', 'w', 'i', 'l', 'l', 'space', 'lshift', 's', 'm', 'i', 't', 'h', 'return']","[10.413445835863968, 10.629828439416087, 10.763224708984126, 10.946521521979776, 11.06308860376248, 11.413044865966185, 11.54625091541493, 11.646331077316972, 11.896207498393778, 12.01268155516027, 12.196058562135477, 12.295984430820681, 12.995420282212763]",2017_Feb_20_1032,60.0351840761,famFaceGrey,001,19,
17,./greyInner/BastianSchweinsteiger12_1_cut.png,0,160,160,16,,,None,None,2,2.3991206249,None,None,None,None,None,None,1,0.783120193774,,['return'],[0.800356446200567],2017_Feb_20_1032,60.0351840761,famFaceGrey,001,19,
43,./greyInner/CobieSmulders(Robin)3_4_cut.png,0,161,161,42,,,None,None,2,3.21584819087,None,None,None,None,None,None,5,1.33313894313,,['return'],[0.8500574670051719],2017_Feb_20_1032,60.0351840761,famFaceGrey,001,19,
180,./greyInner/Shakira9_1_cut.png,0,162,162,179,,,None,None,2,1.76622235994,None,None,None,None,None,None,2,0.900153683742,,['return'],[0.6165694876026464],2017_Feb_20_1032,60.0351840761,famFaceGrey,001,19,
182,./greyInner/SigmarGabriel11_3_cut.png,0,163,163,181,,,None,None,2,2.56621280082,None,None,None,None,None,None,1,0.483517410594,,['return'],[0.4671000990874745],2017_Feb_20_1032,60.0351840761,famFaceGrey,001,19,
197,./greyInner/UrsulavonderLeyen4_1_cut.png,0,164,164,196,,,None,None,1,1.99953166716,None,None,None,None,None,None,4,1.89961061011,Ursula von der Leyen,"['lshift', 'u', 'r', 's', 'u', 'l', 'a', 'space', 'v', 'o', 'n', 'space', 'd', 'e', 'r', 'space', 'lshift', 'l', 'e', 'y', 'e', 'n', 'return']","[1.7831391195531978, 1.933180772306514, 3.199337212797218, 3.515860284123846, 4.2819517674915915, 4.532079035337119, 4.698706406953534, 5.331799382891404, 5.848251498585341, 5.89824987866632, 6.064920555032586, 6.248031638770954, 6.314770993260026, 6.414756205490448, 6.564568182685434, 6.66471057511626, 7.04776096805017, 7.180899654556924, 7.447496841159591, 7.6974666080286624, 7.864033352997467, 8.497102591516523, 9.13017856633087]",2017_Feb_20_1032,60.0351840761,famFaceGrey,001,19,
161,./greyInner/OmarEpps(DrEricForeman)1_5_cut.png,0,165,165,160,,,None,None,2,8.26365502988,None,None,None,None,None,None,2,1.06672908966,,['return'],[0.6668049210875324],2017_Feb_20_1032,60.0351840761,famFaceGrey,001,19,
208,./greyInner/WillSmith4_1_cut.png,0,166,166,207,,,None,None,1,1.78327480777,None,None,None,None,None,None,1,0.883056006513,Will Smith,"['lshift', 'w', 'i', 'l', 'l', 'space', 'lshift', 's', 'm', 'i', 't', 'h', 'return']","[0.5335340749034003, 0.7167436368481503, 0.9500038653495722, 1.1332044455693904, 1.2498744964223079, 1.4665496476118278, 1.6663526270422153, 1.7330352041944934, 1.8829450180455751, 1.9996651099409064, 2.515860284123846, 2.6326708348287866, 3.232414021628756]",2017_Feb_20_1032,60.0351840761,famFaceGrey,001,19,
1,./greyInner/AlysonHannigan(Lily)1_1_cut.png,0,167,167,0,,,None,None,2,2.26606245315,None,None,None,None,None,None,1,0.900087283128,,['return'],[0.6832087600050727],2017_Feb_20_1032,60.0351840761,famFaceGrey,001,19,
4,./greyInner/AlysonHannigan(Lily)5_4_cut.png,0,168,168,3,,,None,None,2,1.78317665034,None,None,None,None,None,None,1,0.566945132241,,['return'],[0.7834258932252851],2017_Feb_20_1032,60.0351840761,famFaceGrey,001,19,
88,./greyInner/Ice-T(OdafinFinTutuola)5_1_cut.png,0,169,169,87,,,None,None,2,1.53277319442,None,None,None,None,None,None,1,2.4993486645,,['return'],[0.6502618654212711],2017_Feb_20_1032,60.0351840761,famFaceGrey,001,19,
112,./greyInner/JoshRadnor(Ted)3_1_cut.png,0,170,170,111,,,None,None,2,3.68212485818,None,None,None,None,None,None,1,0.81666116536,,['return'],[0.45050186996286357],2017_Feb_20_1032,60.0351840761,famFaceGrey,001,19,
103,./greyInner/JimParsons(SheldonCooper)6_1_cut.png,0,171,171,102,,,None,None,1,1.89966321736,None,None,None,None,None,None,1,0.71667274537,Sheldon Cooper,"['lshift', 's', 'h', 'e', 'l', 'd', 'o', 'n', 'space', 'lshift', 'c', 'o', 'o', 'p', 'e', 'r', 'return']","[0.5165752936463832, 0.699793837317884, 1.049876485232744, 1.1663771664007072, 1.8992651344487967, 1.9993597312668498, 2.049447287054136, 2.266025884692681, 2.449292865527241, 2.6158852725684483, 2.8157501617515663, 3.282339585576665, 3.698646101081067, 3.865351100470434, 3.9985516967281, 4.098655596048957, 5.1482032859648825]",2017_Feb_20_1032,60.0351840761,famFaceGrey,001,19,
93,./greyInner/JanHofer5_1_cut.png,0,172,172,92,,,None,None,2,4.01559131352,None,None,None,None,None,None,4,1.41641525854,,['return'],[0.6837069250068453],2017_Feb_20_1032,60.0351840761,famFaceGrey,001,19,
40,./greyInner/CarenMiosga9_1_cut.png,0,173,173,39,,,None,None,2,10.2127100401,None,None,None,None,None,None,5,1.68279207209,,['return'],[0.9002486334138666],2017_Feb_20_1032,60.0351840761,famFaceGrey,001,19,
166,./greyInner/RobertSeanLeonard(Wilson)1_1_cut.png,0,174,174,165,,,None,None,2,3.21605348746,None,None,None,None,None,None,1,0.833635985412,,['return'],[0.7335080278980968],2017_Feb_20_1032,60.0351840761,famFaceGrey,001,19,
54,./greyInner/DannFlorek(DonaldDonCragen)5_1_cut.png,0,175,175,53,,,None,None,2,5.9645504117,None,None,None,None,None,None,4,1.76629806306,,['return'],[0.6666637796834038],2017_Feb_20_1032,60.0351840761,famFaceGrey,001,19,
71,./greyInner/GuentherJauch2_1_cut.png,0,176,176,70,,,None,None,2,6.71406772414,None,None,None,None,None,None,3,1.43302054473,,['return'],[0.6336058966307974],2017_Feb_20_1032,60.0351840761,famFaceGrey,001,19,
19,./greyInner/BastianSchweinsteiger3_1_cut.png,0,177,177,18,,,None,None,1,1.93295398373,None,None,None,None,None,None,5,2.48262212501,Bastian Schweinsteiger,"['lshift', 'b', 'a', 's', 't', 'i', 'a', 'n', 'space', 'lshift', 's', 'c', 'h', 'w', 'e', 'i', 'n', 's', 't', 'e', 'i', 'g', 'e', 'r', 'return']","[1.1167412631066327, 1.5834166548784196, 1.7332305567297226, 1.8498903427525875, 2.5830400639497384, 2.7495362382160238, 2.899479412762048, 2.9994530770591155, 3.182291822042316, 3.2492390393272217, 3.3992065928432567, 3.59910740892974, 3.7324379194351422, 3.832394903383829, 3.915240737514978, 3.98226045015781, 4.099132269063375, 4.248927245134837, 4.532273746319333, 4.665323898671886, 4.715353073242113, 4.8819724254608445, 4.998690913476821, 5.1150337728931845, 5.798412544135317]",2017_Feb_20_1032,60.0351840761,famFaceGrey,001,19,
3,./greyInner/AlysonHannigan(Lily)14_2_cut.png,0,178,178,2,,,None,None,2,1.46636776767,None,None,None,None,None,None,2,0.783393174081,,['return'],[1.0331724000543545],2017_Feb_20_1032,60.0351840761,famFaceGrey,001,19,
213,./greyInner/notfamousface12_2_cut.png,0,179,179,212,,,None,None,2,1.79967672203,None,None,None,None,None,None,2,1.7830772098,,['return'],[0.5169162784477521],2017_Feb_20_1032,60.0351840761,famFaceGrey,001,19,
178,./greyInner/Shakira3_1_cut.png,0,180,180,177,,,None,None,2,1.76664674648,None,None,None,None,None,None,2,0.816259233134,,['return'],[0.5007876652680352],2017_Feb_20_1032,60.0351840761,famFaceGrey,001,19,
79,./greyInner/GeorgeClooney3_1_cut.png,0,181,181,78,,,None,None,2,1.30045283936,None,None,None,None,None,None,1,1.41643386354,,['return'],[0.7170631296630745],2017_Feb_20_1032,60.0351840761,famFaceGrey,001,19,
158,./greyInner/NicoleKidman5_1_cut.png,0,182,182,157,,,None,None,1,16.5437568826,None,None,None,None,None,None,1,7.04747611903,Kylie Minouge,"['lshift', 'k', 'y', 'l', 'i', 'e', 'space', 'lshift', 'm', 'i', 'n', 'o', 'u', 'g', 'e', 'return']","[31.154308293243957, 31.304242806840193, 36.001939090427186, 36.23544888259312, 36.40198739928019, 36.51867669668809, 36.701992756237814, 36.96839779806578, 37.16831272829222, 37.33486022670513, 37.48478607935158, 37.6846067014576, 39.30082269399827, 39.500808515702374, 39.63376596381477, 40.11696163616216]",2017_Feb_20_1032,60.0351840761,famFaceGrey,001,19,
104,./greyInner/JimParsons(SheldonCooper)8_1_cut.png,0,183,183,103,,,None,None,1,1.99981491229,None,None,None,None,None,None,1,1.21691284614,Sheldon Cooper,"['lshift', 's', 'h', 'e', 'l', 'd', 'o', 'n', 'space', 'lshift', 'c', 'o', 'o', 'p', 'e', 'r', 'return']","[0.6501576132477567, 0.8499352513808844, 1.066546247387123, 1.2165699366887566, 1.7331532497328226, 2.3158507250018374, 2.449552052468789, 2.6326474181869344, 3.282327396092114, 3.4489278225310045, 3.632338510977206, 3.8988622398946973, 4.048700199939958, 4.165493428744412, 4.298733801217168, 4.381887580229886, 4.581878213572963]",2017_Feb_20_1032,60.0351840761,famFaceGrey,001,19,
127,./greyInner/KatjaBurkard10_1_cut.png,0,184,184,126,,,None,None,1,3.61551766337,None,None,None,None,None,None,3,1.39973138225,Arbeitet bei RTL,"['lshift', 'a', 'r', 'b', 'e', 'i', 't', 'e', 's', 'space', 'b', 'backspace', 'backspace', 'backspace', 'backspace', 'e', 't', 'space', 'e', 'backspace', 'b', 'e', 'i', 'space', 'lshift', 'r', 't', 'l', 'backspace', 'backspace', 'lshift', 't', 'l', 'backspace', 'lshift', 'l', 'return']","[10.32966076984303, 10.479507711613223, 10.7629039330659, 10.929470036481689, 11.01284932096587, 11.162748549210846, 11.329355711945027, 11.429251106917945, 11.64580308015502, 11.795813617643944, 11.945768660898466, 12.345363713378902, 12.462152772097397, 12.628877338817802, 12.828755379813629, 13.711702322513702, 13.828483682610567, 14.044973104542805, 14.344715425248069, 14.744609761660286, 14.961186755419476, 15.061235802057126, 15.194468796683395, 15.410841135405462, 15.494489550885191, 15.677521723747304, 15.910696946630196, 16.060634347209998, 16.577234019826392, 16.74373500573074, 16.84361275802803, 17.343352769145895, 17.57676889474442, 18.293194642657, 18.459635322689792, 18.57626784275999, 19.042892551936347]",2017_Feb_20_1032,60.0351840761,famFaceGrey,001,19,
174,./greyInner/SahraWagenknecht6_2_cut.png,0,185,185,173,,,None,None,2,2.7326714443,None,None,None,None,None,None,4,1.53279436564,,['return'],[0.7503083458514084],2017_Feb_20_1032,60.0351840761,famFaceGrey,001,19,
95,./greyInner/JanHofer9_2_cut.png,0,186,186,94,,,None,None,2,1.31614231031,None,None,None,None,None,None,3,4.03284424629,,['return'],[0.6505313171928719],2017_Feb_20_1032,60.0351840761,famFaceGrey,001,19,
76,./greyInner/GeorgeClooney11_1_cut.png,0,187,187,75,,,None,None,1,2.4493185276,None,None,None,None,None,None,1,0.866613674485,George Clooney,"['lshift', 'g', 'e', 'o', 'r', 'g', 'e', 'space', 'lshift', 'c', 'l', 'o', 'o', 'n', 'e', 'y', 'backspace', 'backspace', 'backspace', 'backspace', 'n', 'backspace', 'o', 'n', 'e', 'y', 'return']","[0.8503330135199576, 1.0336638287617461, 1.5669079222352593, 1.7500898974512893, 2.382950310848173, 2.499794222248056, 2.5998637985449022, 3.0830036558827487, 3.182655581934341, 3.4325887803488513, 3.649243081104032, 3.865994256186241, 3.9825776975412737, 4.415572580202934, 4.815327379090377, 4.998913211188665, 6.581627046029098, 6.748042705539774, 6.881157975403767, 7.047915261267008, 8.947112391220799, 9.596891168108414, 10.263170337465453, 10.446752320252017, 10.546407133286266, 10.813093816370383, 11.629406298307003]",2017_Feb_20_1032,60.0351840761,famFaceGrey,001,19,
118,./greyInner/JudithRakers4_3_cut.png,0,188,188,117,,,None,None,2,2.51584616998,None,None,None,None,None,None,5,0.933330895436,,['return'],[0.7842162850874956],2017_Feb_20_1032,60.0351840761,famFaceGrey,001,19,
184,./greyInner/SigmarGabriel4_5_cut.png,0,189,189,183,,,None,None,1,4.93210809764,None,None,None,None,None,None,4,1.93308646419,Außenminister,"['lshift', 'a', 'u', '0', 'e', 'backspace', 'backspace', u'\xdf', 'e', 'n', 'm', 'i', 'n', 'i', 's', 't', 'e', 'r', 'return']","[23.52415330394433, 23.72402717485329, 23.95735669095302, 24.22393431022465, 24.357460494040424, 24.657193833018937, 24.840351108489813, 25.306978704649737, 25.40670922080062, 25.573533869606763, 25.856701057053215, 26.173166067938837, 26.373220214914, 26.489453689740913, 26.639510418962345, 26.856205779035008, 26.989526024711267, 27.107127608830524, 90.3800925181904]",2017_Feb_20_1032,60.0351840761,famFaceGrey,001,19,
141,./greyInner/MariskaHargitay(Liv)13_1_cut.png,0,190,190,140,,,None,None,2,1.64969056351,None,None,None,None,None,None,3,1.73304290282,,['return'],[0.7334012095179787],2017_Feb_20_1032,60.0351840761,famFaceGrey,001,19,
69,./greyInner/EmmaWatson(HermioneGranger)4_1_cut.png,0,191,191,68,,,None,None,1,1.33406470243,None,None,None,None,None,None,1,0.717090074841,Emma Watson,"['lshift', 'e', 'm', 'm', 'a', 'space', 'lshift', 'w', 'a', 'z', 'backspace', 't', 's', 'o', 'n', 'return']","[0.7163442708297225, 1.0000093025018941, 1.1673757418348032, 1.3166209079818145, 1.4165506259787435, 1.5497749596543144, 1.6993527704298685, 1.9326088288444225, 2.2995087958361182, 2.5494580330469034, 3.1492705074451806, 3.248984343248594, 3.4657117809128977, 3.5323003707208045, 3.765584978192237, 4.331946298262665]",2017_Feb_20_1032,60.0351840761,famFaceGrey,001,19,
48,./greyInner/CristinMilioti(Tracy_Mutter)4_2_cut.png,0,192,192,47,,,None,None,2,1.5495917966,None,None,None,None,None,None,1,1.96683305314,,['return'],[0.9169196786724569],2017_Feb_20_1032,60.0351840761,famFaceGrey,001,19,
149,./greyInner/MilaKunis5_2_cut.png,0,193,193,148,,,None,None,2,1.51651274234,None,None,None,None,None,None,2,1.06660110007,,['return'],[0.46700707407126174],2017_Feb_20_1032,60.0351840761,famFaceGrey,001,19,
27,./greyInner/Beyonce11_2_cut.png,0,194,194,26,,,None,None,2,1.76636285979,None,None,None,None,None,None,2,1.43290987704,,['return'],[0.5005287991016303],2017_Feb_20_1032,60.0351840761,famFaceGrey,001,19,
181,./greyInner/SigmarGabriel1_2_cut.png,0,195,195,180,,,None,None,1,3.04914383304,None,None,None,None,None,None,4,0.900051677,Sigmar Gabriel,"['lshift', 's', 'i', 'g', 'm', 'a', 'r', 'space', 'lshift', 'g', 'a', 'b', 'r', 'i', 'e', 'k', 'backspace', 'l', 'return']","[86.88157305944151, 87.08142832534759, 87.2146372617799, 87.8809985497719, 88.11424562646062, 88.24747862108688, 88.29756040290704, 88.71405521387533, 88.86396534850246, 89.03055711399156, 89.1306465783955, 89.21385553086657, 89.44697942960283, 89.5969983072655, 89.69692353439859, 89.79698637440106, 90.57994329323265, 90.7632314452785, 91.31309429753401]",2017_Feb_20_1032,60.0351840761,famFaceGrey,001,19,
31,./greyInner/BritneySpears1_1_cut.png,0,196,196,30,,,None,None,1,1.98305308745,None,None,None,None,None,None,2,0.91625342709,Britney Spears,"['lshift', 'b', 'r', 'i', 't', 'n', 'e', 'y', 'space', 'lshift', 's', 'p', 'e', 'a', 'r', 's', 'return']","[0.5672030360792633, 0.7335798817039176, 0.9337973036217591, 1.0836506609102798, 1.5835045474796061, 1.7499779466552354, 1.833349211740824, 2.083292033433281, 2.683040352648277, 2.816106543796195, 2.9330024208957184, 3.1495582434436074, 3.232745703928231, 3.6991603048782054, 3.865923364707669, 4.015674394478992, 4.3157179237714445]",2017_Feb_20_1032,60.0351840761,famFaceGrey,001,19,
66,./greyInner/EmmaWatson(HermioneGranger)11_2_cut.png,0,197,197,65,,,None,None,1,1.93286769501,None,None,None,None,None,None,1,0.866385602806,Emma Watson,"['lshift', 'e', 'm', 'm', 'a', 'space', 'lshift', 'w', 'a', 't', 's', 'o', 'n', 'return']","[0.43351774740858673, 0.6670403706111756, 0.8337020652516003, 0.9503349060978508, 1.0504314275713114, 1.2002180634690376, 1.3001102506832467, 1.583385539614028, 1.749938811993161, 2.016621645766463, 2.21651732943792, 2.2832467398739027, 2.4663741831836887, 3.132699544273237]",2017_Feb_20_1032,60.0351840761,famFaceGrey,001,19,
129,./greyInner/KatjaBurkard5_3_cut.png,0,198,198,128,,,None,None,1,2.04920478046,None,None,None,None,None,None,3,1.38290860998,Arbeitet bei RTL,"['lshift', 'a', 'r', 'b', 'e', 'i', 't', 'e', 't', 'space', 'b', 'e', 'i', 'space', 'lshift', 'r', 't', 'backspace', 'lshift', 't', 'lshift', 'l', 'return']","[0.9332490975766632, 4.065423531671513, 4.331917749204877, 4.9982578659864885, 5.115026074270645, 5.631398316760169, 5.864474740660626, 5.981188417037629, 6.047847256772002, 6.247708296644305, 6.864154927069649, 6.9806228890938655, 7.0972069720000945, 7.314006905022325, 7.363872804648963, 7.513819828506712, 7.730480224004168, 8.396948009601147, 8.613538155172137, 8.813491257733403, 9.29646110383419, 9.462925521284888, 9.862984415743085]",2017_Feb_20_1032,60.0351840761,famFaceGrey,001,19,
115,./greyInner/JoshRadnor(Ted)9_1_cut.png,0,199,199,114,,,None,None,2,2.48260127457,None,None,None,None,None,None,2,2.54935570553,,['return'],[1.1667191135293251],2017_Feb_20_1032,60.0351840761,famFaceGrey,001,19,
78,./greyInner/GeorgeClooney16_1_cut.png,0,200,200,77,,,None,None,2,2.76588554523,None,None,None,None,None,None,2,2.33284511239,,['return'],[1.1999059485006],2017_Feb_20_1032,60.0351840761,famFaceGrey,001,19,
222,./greyInner/notfamousface7_cut.png,0,201,201,221,,,None,None,2,1.91639264384,None,None,None,None,None,None,2,1.48348148369,,['return'],[0.583618422930158],2017_Feb_20_1032,60.0351840761,famFaceGrey,001,19,
147,./greyInner/MilaKunis10_1_cut.png,0,202,202,146,,,None,None,2,1.61629394109,None,None,None,None,None,None,2,1.84934021205,,['return'],[0.7168276801394313],2017_Feb_20_1032,60.0351840761,famFaceGrey,001,19,
35,./greyInner/BritneySpears8_5_cut.png,0,203,203,34,,,None,None,1,1.23303279838,None,None,None,None,None,None,2,0.74967577574,Britney Spears,"['lshift', 'b', 'r', 'i', 't', 'n', 'e', 'y', 'space', 'lshift', 's', 'p', 'e', 'a', 'r', 't', 's', 'backspace', 'backspace', 's', 'return']","[0.550229178355039, 0.716755826332701, 0.9333796533755958, 1.4331507797578524, 1.6494442076045743, 1.916365057109033, 2.0496683016608586, 2.566138701582531, 2.7494329483697584, 2.882479572187549, 2.999336314624088, 3.265727563087239, 3.3824120488561675, 3.6153909568774907, 3.8487679478130303, 3.9988063928067277, 4.415102322705934, 4.548580390133793, 4.648584207367094, 4.948440403522909]",2017_Feb_20_1032,60.0351840761,famFaceGrey,001,19,
169,./greyInner/RobertSeanLeonard(Wilson)2_6_cut.png,0,204,204,168,,,None,None,1,16.7768333065,None,None,None,None,None,None,1,3.89903385501,Sherlock,"['lshift', 's', 'h', 'e', 'r', 'l', 'o', 'c', 'k', 'return']","[1.000238657283262, 1.2166735473101653, 1.3835094232736083, 1.5166673563344375, 1.6167558584111248, 2.0165193182483563, 2.149931305836617, 2.2497509976928995, 2.382846700225855, 2.9827457841220166]",2017_Feb_20_1032,60.0351840761,famFaceGrey,001,19,
130,./greyInner/KatjaBurkard7_1_cut.png,0,205,205,129,,,None,None,2,1.43316457312,None,None,None,None,None,None,3,1.483101685,,['return'],[0.5336312700055714],2017_Feb_20_1032,60.0351840761,famFaceGrey,001,19,
101,./greyInner/JimParsons(SheldonCooper)1_1_cut.png,0,206,206,100,,,None,None,1,1.73284241787,None,None,None,None,None,None,1,0.566816180322,Sheldon Cooper,"['lshift', 's', 'h', 'e', 'l', 'd', 'o', 'n', 'space', 'lshift', 'c', 'o', 'o', 'p', 'e', 'r', 'return']","[0.5503581302737075, 0.8335910767837049, 0.9501722727072774, 1.0669343862482492, 1.2334007283534447, 1.3667742228317366, 1.4332835809882454, 1.6332873661440317, 1.8166464096675554, 1.899777413589618, 2.1664108478717026, 2.399587033082753, 2.5497136914536895, 2.682845962441206, 2.8327811175895476, 2.9159464445356207, 3.115543165051349]",2017_Feb_20_1032,60.0351840761,famFaceGrey,001,19,
105,./greyInner/JimParsons(SheldonCooper)9_3_cut.png,0,207,207,104,,,None,None,1,3.21589694881,None,None,None,None,None,None,1,0.799527561227,Sheldon Cooper,"['lshift', 's', 'h', 'e', u'\xf6', 'backspace', 'l', 'd', 'o', 'n', 'space', 'lshift', 'c', 'o', 'o', 'p', 'e', 'r', 'return']","[0.7003224760310331, 0.8835156784043647, 1.00021748607287, 1.116785530182824, 1.3668361325844671, 1.9663967978858636, 2.2830536327710433, 2.4326664081208946, 2.4994686346908566, 2.6996270338395334, 3.099482235589676, 3.1824650410380855, 3.3492669147544802, 3.5991783004074023, 3.715528858444486, 3.8824333804550406, 4.015684017756939, 4.098694089158016, 4.58206875446831]",2017_Feb_20_1032,60.0351840761,famFaceGrey,001,19,
144,./greyInner/MariskaHargitay(Liv)6_5_cut.png,0,208,208,143,,,None,None,2,1.79987849008,None,None,None,None,None,None,3,1.10030021418,,['return'],[0.7167112384804568],2017_Feb_20_1032,60.0351840761,famFaceGrey,001,19,
131,./greyInner/LeonardoDiCaprio1_1_cut.png,0,209,209,130,,,None,None,1,1.283167829,None,None,None,None,None,None,1,0.516840896106,Leonardo Di Caprio,"['lshift', 'l', 'e', 'o', 'n', 'a', 'r', 'd', 'o', 'space', 'lshift', 'd', 'i', 'space', 'lshift', 'c', 'a', 'p', 'r', 'i', 'o', 'return']","[0.5833938797877636, 0.7167907909088171, 0.8665604256830193, 0.9500320936313074, 1.1832272046212893, 1.2499027247031336, 2.416116936936305, 2.682634571111521, 2.8658890416854774, 3.0658289924331257, 3.149173633118153, 3.2990674081729594, 3.3657483814449733, 3.5989287367428915, 3.7319615671958672, 3.9488885274813583, 4.04856900258892, 4.248805671061746, 4.448660295415721, 5.41476967807921, 5.581503547300599, 5.948026923364523]",2017_Feb_20_1032,60.0351840761,famFaceGrey,001,19,
152,./greyInner/NeilPatrickHarris(Barney)11_2_cut.png,0,210,210,151,,,None,None,1,3.38218910959,None,None,None,None,None,None,1,1.04983318048,Barney Stinson,"['lshift', 'b', 'a', 'r', 'n', 'e', 'x', 'backspace', 'y', 'space', 'lshift', 's', 't', 'i', 'n', 's', 'o', 'n', 'return']","[0.6667539177160506, 0.8668151217616469, 0.9998181200544423, 1.1830632881265046, 1.4163074778316513, 1.5498968545034586, 1.7995618842505792, 2.5327141716552433, 3.4126256118397578, 3.565785848071755, 3.665601049065117, 3.7822682129344685, 4.115400740543009, 4.531981519457986, 4.681795742084432, 4.798553364762483, 4.931731827482508, 5.098357915995621, 5.414921084312482]",2017_Feb_20_1032,60.0351840761,famFaceGrey,001,19,
96,./greyInner/JasonSegel(Marshall)11_1_cut.png,0,211,211,95,,,None,None,2,3.16569391369,None,None,None,None,None,None,1,1.08319515911,,['return'],[0.6840219269579393],2017_Feb_20_1032,60.0351840761,famFaceGrey,001,19,
153,./greyInner/NeilPatrickHarris(Barney)13_4_cut.png,0,212,212,152,,,None,None,1,3.29898657264,None,None,None,None,None,None,1,0.516880351544,Barney Stinson,"['lshift', 'b', 'a', 'r', 'n', 'e', 'y', 'space', 'lshift', 's', 't', 'i', 'n', 's', 'o', 'n', 'return']","[1.0164234062485775, 1.1499431745460242, 1.283084748035435, 1.3998722028736665, 1.483117723799296, 1.5830955581832313, 1.8829482258042844, 2.2993493702042542, 2.4160575933910877, 2.5159962931129485, 2.815918889884415, 2.9655384015286472, 3.3490340314374407, 3.4656216428793414, 3.5487500805948002, 3.7321014254957845, 4.048833642721547]",2017_Feb_20_1032,60.0351840761,famFaceGrey,001,19,
26,./greyInner/Beyonce1_1_cut.png,0,213,213,25,,,None,None,2,2.58258616603,None,None,None,None,None,None,2,1.48305998413,,['return'],[1.0003775532559303],2017_Feb_20_1032,60.0351840761,famFaceGrey,001,19,
50,./greyInner/CristinMilioti(Tracy_Mutter)9_1_cut.png,0,214,214,49,,,None,None,2,2.61557091217,None,None,None,None,None,None,3,1.11650709669,,['return'],[0.7831997462017171],2017_Feb_20_1032,60.0351840761,famFaceGrey,001,19,
135,./greyInner/LeonardoDiCaprio7_1_cut.png,0,215,215,134,,,None,None,1,1.53323158321,None,None,None,None,None,None,1,0.533470240495,Leonardo Di Caprio,"['lshift', 'l', 'e', 'o', 'n', 'a', 'r', 'd', 'p', 'o', 'backspace', 'backspace', 'o', 'space', 'lshift', 'd', 'i', 'space', 'lshift', 'c', 'a', 'p', 'r', 'i', 'o', 'return']","[0.6167350079758762, 0.7833720028702373, 0.900001635956869, 0.9996449010577635, 1.1501186389732538, 1.283245135994548, 1.3831803071816466, 1.56621472547522, 1.6666955364989917, 2.1661381883413924, 2.2826911559832297, 2.899238189271273, 3.0823489522335876, 3.1824708150052174, 3.299018650232938, 3.3990946420481123, 3.582233954066396, 3.7321322199841234, 3.948729422625547, 4.065452722280497, 4.398650046624425, 4.648277866364879, 4.898308580659432, 5.048273247191901, 5.431429816955642]",2017_Feb_20_1032,60.0351840761,famFaceGrey,001,19,
42,./greyInner/CobieSmulders(Robin)2_1_cut.png,0,216,216,41,,,None,None,2,1.81649628654,None,None,None,None,None,None,3,1.50006624023,,['return'],[0.5504768173641423],2017_Feb_20_1032,60.0351840761,famFaceGrey,001,19,
139,./greyInner/LisaEdelstein(DrLisaCuddy)6_3_cut.png,0,217,217,138,,,None,None,2,3.73241771055,None,None,None,None,None,None,1,1.16653787514,,['return'],[0.8666354872475495],2017_Feb_20_1032,60.0351840761,famFaceGrey,001,19,
10,./greyInner/AngelaMerkel6_1_cut.png,0,218,218,9,,,None,None,1,1.1167040531,None,None,None,None,None,None,4,0.833525959272,Angela Merkel,"['lshift', 'a', 'n', 'g', 'e', 'l', 'a', 'space', 'lshift', 'm', 'e', 'r', 'k', 'e', 'l', 'return']","[0.3669259498410611, 0.5333518741808803, 0.7334611946143923, 0.8999958619906465, 1.0165590944625365, 1.2165327266820896, 1.3664435028595108, 1.5497249186109912, 1.6496764493695082, 1.7496061673655277, 1.9161854225949355, 2.016278094757581, 2.5327892332197735, 2.5993107808617424, 2.6990855640888185, 3.049045996379391]",2017_Feb_20_1032,60.0351840761,famFaceGrey,001,19,
77,./greyInner/GeorgeClooney15_1_cut.png,0,219,219,76,,,None,None,2,1.8663297878,None,None,None,None,None,None,1,2.13300171519,,['return'],[0.666539318627656],2017_Feb_20_1032,60.0351840761,famFaceGrey,001,19,
56,./greyInner/ElvisPresley1_1_cut.png,0,220,220,55,,,None,None,1,1.19990370307,None,None,None,None,None,None,2,1.41690540414,Elvis Presley,"['lshift', 'e', 'l', 'v', 'i', 's', 'space', 'lshift', 'p', 'r', 'e', 's', 'l', 'e', 'y', 'return']","[0.5169217316379218, 0.750197357383513, 0.9334014661380934, 1.1500891275882168, 1.3165840187512003, 1.399699625430003, 1.583222264671349, 1.832957865120079, 2.099722175977149, 2.299530608598616, 2.3829464615364486, 2.6994300774249496, 3.299118732318675, 3.6823362495069887, 3.9322181237748737, 4.448660936966917]",2017_Feb_20_1032,60.0351840761,famFaceGrey,001,19,
221,./greyInner/notfamousface6_8_cut.png,0,221,221,220,,,None,None,2,2.81591632368,None,None,None,None,None,None,1,1.24978852848,,['return'],[0.8503073514457355],2017_Feb_20_1032,60.0351840761,famFaceGrey,001,19,
196,./greyInner/UrsulavonderLeyen1_1_cut.png,0,222,222,195,,,None,None,1,1.46628244127,None,None,None,None,None,None,4,1.63301566894,Von der Leyen,"['lshift', 'v', 'o', 'n', 'space', 'd', 'e', 'r', 'lshift', 'l', 'backspace', 'space', 'lshift', 'l', 'e', 'y', 'y', 'e', 'm', 'backspace', 'backspace', 'backspace', 'e', 'm', 'backspace', 'n', 'return']","[0.4673307369730537, 0.7506538215156979, 0.9174335616935423, 1.1004541866223008, 1.2838616673097931, 1.3839549810245444, 1.4500531044532181, 1.633739339413296, 2.6166798345175266, 2.68309584688177, 3.2830084033666935, 3.766156280102223, 3.932571298060793, 3.9993504287649557, 4.182695037371559, 4.699050278737559, 4.865896098755002, 4.893223640799988, 5.048912232821749, 5.4321454680293755, 5.565340611096872, 5.7320975761849695, 5.848619107787272, 6.031967886480743, 6.648260223689249, 6.781576620054693, 6.981602859524173]",2017_Feb_20_1032,60.0351840761,famFaceGrey,001,19,
119,./greyInner/JudithRakers7_1_cut.png,0,223,223,118,,,None,None,2,2.64932904905,None,None,None,None,None,None,5,1.28317039521,,['return'],[0.733343469852116],2017_Feb_20_1032,60.0351840761,famFaceGrey,001,19,
