num,pic,trials.thisRepN,trials.thisTrialN,trials.thisN,trials.thisIndex,key_resp_2.keys,key_resp_2.rt,ratingBekannt.response,ratingBekannt.rt,key_resp_5.keys,ratingK1.response,ratingK1.rt,ratingK2.response,ratingK2.rt,ratingK3.response,ratingK3.rt,key_resp_6.keys,inputText,key_resp_4.keys,key_resp_4.rt,date,frameRate,expName,session,participant,
,,,,,,space,48.5952706082,,,,,,,,,,,,,,2017_Jan_24_1251,60.0261674756,famFaceGrey,001,1,
76,./greyInner/GeorgeClooney11_1_cut.png,0,0,0,75,,,1.ja,7.535,None,dummy,3.894,None,None,None,None,None,George Kluny,"['lshift', 'g', 'e', 'o', 'r', 'g', 'e', 'space', 'lshift', 'c', 'l', 'u', 'n', 'y', 'backspace', 'backspace', 'backspace', 'backspace', 'backspace', 'lshift', 'k', 'l', 'u', 'n', 'y', 'return']","[5.364688537811162, 5.464659956676769, 6.281163621059022, 6.547622553242036, 6.647577612535315, 6.880801593357319, 6.9805590546857275, 7.214038693915427, 7.830490456755797, 7.897232698229345, 8.71353683999223, 9.096335103053207, 11.678897852436421, 11.878643092202765, 12.345319767078763, 12.545207110575575, 12.71187425840617, 12.895170429848804, 13.04507735671723, 14.561052478618876, 14.861053986265688, 15.077537955008665, 15.310782786265918, 15.477316812090066, 15.644110666407869, 18.426210151210398]",2017_Jan_24_1251,60.0261674756,famFaceGrey,001,1,
72,./greyInner/GuentherJauch3_1_cut.png,0,1,1,71,,,1.ja,3.243,None,None,None,host,2.717,None,None,None,Günther Jauch,"['lshift', 'g', u'\xfc', 'n', 't', 'h', 'e', 'r', 'space', 'lshift', 'j', 'a', 'u', 'c', 'h', 'return']","[3.498758757583346, 3.599014063138384, 3.9486797023582767, 4.215333024747451, 4.331919994636337, 4.481902945397451, 4.581796094938909, 4.681468229871825, 4.848349335241437, 4.998171898041619, 5.114779718365753, 5.298267713807945, 5.464538382602768, 5.581526963942451, 5.698112009176839, 8.063686530074847]",2017_Jan_24_1251,60.0261674756,famFaceGrey,001,1,
166,./greyInner/RobertSeanLeonard(Wilson)1_1_cut.png,0,2,2,165,,,2.nein,4.599,None,None,None,music,7.584,None,None,None,,['return'],[5.365009955281494],2017_Jan_24_1251,60.0261674756,famFaceGrey,001,1,
127,./greyInner/KatjaBurkard10_1_cut.png,0,3,3,126,,,1.ja,19.875,None,None,None,host,1.427,None,None,None,Katja Burkhard,"['lshift', 'k', 'a', 't', 'j', 'a', 'space', 'lshift', 'b', 'u', 'r', 'k', 'h', 'a', 'r', 'd', 'return']","[1.499854528121432, 1.6662175803812715, 1.9162540686411376, 2.1827017736668495, 2.5326875472546817, 2.6825216579873086, 2.8157658797717886, 2.9658524411534017, 3.0491046983734122, 3.249056838605611, 4.0819091684497835, 4.315332992669937, 4.631761755876141, 4.998315926428404, 5.181639684600668, 5.39816824119589, 6.997396261869653]",2017_Jan_24_1251,60.0261674756,famFaceGrey,001,1,
137,./greyInner/LisaEdelstein(DrLisaCuddy)10_1_cut.png,0,4,4,136,,,2.nein,3.267,None,None,None,music,14.323,None,None,None,,['return'],[2.3828162265144783],2017_Jan_24_1251,60.0261674756,famFaceGrey,001,1,
14,./greyInner/BarackObama4_1_cut.png,0,5,5,13,,,1.ja,2.192,None,None,None,None,None,polit,2.346,None,Barack Obama,"['lshift', 'b', 'a', 'r', 'a', 'c', 'k', 'space', 'lshift', 'o', 'b', 'a', 'm', 'a', 'return']","[1.3331671714076947, 1.4165920060713688, 1.6830236723017151, 1.8662569716634607, 2.032975122865537, 2.299491794712594, 2.4328697800538066, 2.5827359683789837, 2.6660263979338197, 2.7992472030746285, 2.9491820374478266, 3.1158523930371302, 3.2490205909271026, 3.36578334602018, 4.881905383293997]",2017_Jan_24_1251,60.0261674756,famFaceGrey,001,1,
93,./greyInner/JanHofer5_1_cut.png,0,6,6,92,,,2.nein,5.655,None,None,None,host,20.62,None,None,None,,['return'],[1.7671718566616619],2017_Jan_24_1251,60.0261674756,famFaceGrey,001,1,
148,./greyInner/MilaKunis4_1_cut.png,0,7,7,147,,,2.nein,6.21,None,None,None,None,None,sport,7.26,None,,['return'],[1.633250476914327],2017_Jan_24_1251,60.0261674756,famFaceGrey,001,1,
194,./greyInner/TomCruise6_1_cut.png,0,8,8,193,,,2.nein,16.613,None,act,1.879,None,None,None,None,None,Hugh Grant,"['lshift', 'h', 'u', 'g', 'h', 'space', 'lshift', 'g', 'a', 'n', 't', 'backspace', 'backspace', 'backspace', 'r', 'a', 'n', 't', 'return']","[7.847567604327196, 7.980809580678397, 8.19730638045803, 8.363967754321493, 8.497193371102185, 8.647159320738865, 8.746901384822195, 8.863690122763728, 9.180152567441837, 9.34699838746019, 9.480185831906056, 10.362830603691691, 10.529688933969737, 10.896005088789025, 11.4793672117612, 11.61244142230862, 11.745920452063729, 11.862393225726919, 13.195103291449414]",2017_Jan_24_1251,60.0261674756,famFaceGrey,001,1,
141,./greyInner/MariskaHargitay(Liv)13_1_cut.png,0,9,9,140,,,2.nein,4.53,None,None,None,host,5.994,None,None,None,,['return'],[1.5498862688964437],2017_Jan_24_1251,60.0261674756,famFaceGrey,001,1,
68,./greyInner/EmmaWatson(HermioneGranger)3_1_cut.png,0,10,10,67,,,1.ja,3.084,None,act,0.793,None,None,None,None,None,Emma Watson,"['lshift', 'e', 'm', 'm', 'a', 'space', 'lshift', 'w', 'a', 't', 's', 'o', 'n', 'return']","[1.2999726378147898, 1.4499340965885494, 1.933016535036586, 2.084287401108668, 2.266305601293425, 2.416134258835882, 2.5992729293047887, 2.7494637428590067, 2.9493295943702833, 3.182514761307175, 3.3323527213506168, 3.5990406875389453, 3.782384975369496, 4.515348325758168]",2017_Jan_24_1251,60.0261674756,famFaceGrey,001,1,
103,./greyInner/JimParsons(SheldonCooper)6_1_cut.png,0,11,11,102,,,2.nein,4.585,None,act,11.091,None,None,None,None,None,,['return'],[1.416230812388676],2017_Jan_24_1251,60.0261674756,famFaceGrey,001,1,
40,./greyInner/CarenMiosga9_1_cut.png,0,12,12,39,,,2.nein,4.804,None,None,None,None,None,polit,0.946,None,,['return'],[1.0167053682798723],2017_Jan_24_1251,60.0261674756,famFaceGrey,001,1,
21,./greyInner/BenedictCumberbatch16_1_cut.png,0,13,13,20,,,2.nein,8.412,None,None,None,music,1.644,None,None,None,,['return'],[1.1834835045792715],2017_Jan_24_1251,60.0261674756,famFaceGrey,001,1,
90,./greyInner/Ice-T(OdafinFinTutuola)7_1_cut.png,0,14,14,89,,,2.nein,2.801,None,None,None,None,None,sport,1.842,None,,['return'],[2.1328647438713233],2017_Jan_24_1251,60.0261674756,famFaceGrey,001,1,
160,./greyInner/NicoleKidman8_2_cut.png,0,15,15,159,,,1.ja,6.647,None,None,None,music,1.843,None,None,None,Nena,"['lshift', 'n', 'e', 'n', 'a', 'return']","[1.0833180162844656, 1.2165449161675497, 1.5164261328445718, 1.7164485230041464, 1.849155124347817, 2.316033567276463]",2017_Jan_24_1251,60.0261674756,famFaceGrey,001,1,
75,./greyInner/GuentherJauch9_1_cut.png,0,16,16,74,,,1.ja,6.997,None,None,None,host,1.471,None,None,None,Günther Jauch,"['lshift', 'g', u'\xfc', 'n', 't', 'h', 'e', 'r', 'space', 'lshift', 'j', 'a', 'u', 'c', 'h', 'return']","[1.1833590435235237, 1.3667087845442438, 1.7664581302415172, 2.1496820629472495, 2.38303050482682, 2.5328999009125255, 2.63296145780987, 2.732734637158501, 2.9492968752256274, 3.065980398667307, 3.2325907691592874, 3.431903923763457, 3.6158037954846804, 3.7657030237296567, 3.882142115920942, 4.148743472611386]",2017_Jan_24_1251,60.0261674756,famFaceGrey,001,1,
139,./greyInner/LisaEdelstein(DrLisaCuddy)6_3_cut.png,0,17,17,138,,,2.nein,4.852,None,None,None,None,None,sport,0.875,None,,['return'],[0.7333896615837148],2017_Jan_24_1251,60.0261674756,famFaceGrey,001,1,
146,./greyInner/MilaKunis1_3_cut.png,0,18,18,145,,,1.ja,6.235,None,None,None,music,2.555,None,None,None,Rihanna,"['lshift', 'r', 'i', 'h', 'a', 'n', 'n', 'a', 'return']","[1.216799291471034, 1.3501365382708173, 1.6833649778782274, 1.8831974686945614, 2.0331063202156656, 2.116482076164175, 2.232743779273733, 2.349580633603182, 2.7158669562631985]",2017_Jan_24_1251,60.0261674756,famFaceGrey,001,1,
136,./greyInner/LisaEdelstein(DrLisaCuddy)1_1_cut.png,0,19,19,135,,,2.nein,2.222,None,None,None,None,None,polit,1.347,None,,['return'],[1.4330956063004123],2017_Jan_24_1251,60.0261674756,famFaceGrey,001,1,
66,./greyInner/EmmaWatson(HermioneGranger)11_2_cut.png,0,20,20,65,,,2.nein,9.752,None,None,None,None,None,sport,4.01,None,,['return'],[0.45030138501533656],2017_Jan_24_1251,60.0261674756,famFaceGrey,001,1,
213,./greyInner/notfamousface12_2_cut.png,0,21,21,212,,,2.nein,7.658,None,None,None,music,0.852,None,None,None,,['return'],[0.5503712820864166],2017_Jan_24_1251,60.0261674756,famFaceGrey,001,1,
85,./greyInner/HughLaurie(DrHouse)9_2_cut.png,0,22,22,84,,,2.nein,5.729,None,act,8.636,None,None,None,None,None,,['return'],[0.5004271131347195],2017_Jan_24_1251,60.0261674756,famFaceGrey,001,1,
184,./greyInner/SigmarGabriel4_5_cut.png,0,23,23,183,,,1.ja,2.617,None,None,None,None,None,polit,1.291,None,Sigmar Gabriel,"['lshift', 's', 'i', 'g', 'm', 'backspace', 'm', 'a', 'r', 'space', 'lshift', 'g', 'a', 'b', 'r', 'i', 'e', 'l', 'return']","[1.266414023551988, 1.6824966374661017, 2.0661125583446847, 2.3660264941645437, 2.632501465142923, 3.1323527855056454, 3.948573846304498, 4.065208611806156, 4.21512965281363, 4.365005143641611, 4.498413923471162, 4.614730800036341, 4.831568905392487, 4.948088833116344, 5.131509465614727, 5.281336519279648, 5.381291257795965, 5.581382935553847, 10.412599628989483]",2017_Jan_24_1251,60.0261674756,famFaceGrey,001,1,
89,./greyInner/Ice-T(OdafinFinTutuola)6_1_cut.png,0,24,24,88,,,2.nein,3.042,None,None,None,None,None,sport,3.205,None,,['return'],[1.1665183078039263],2017_Jan_24_1251,60.0261674756,famFaceGrey,001,1,
24,./greyInner/BenedictCumberbatch4_1_cut.png,0,25,25,23,,,2.nein,2.611,None,None,None,music,2.586,None,None,None,,['return'],[0.5000463521209895],2017_Jan_24_1251,60.0261674756,famFaceGrey,001,1,
99,./greyInner/JasonSegel(Marshall)7_1_cut.png,0,26,26,98,,,2.nein,3.821,None,None,None,None,None,sport,6.693,None,,['return'],[0.41747991381453176],2017_Jan_24_1251,60.0261674756,famFaceGrey,001,1,
96,./greyInner/JasonSegel(Marshall)11_1_cut.png,0,27,27,95,,,2.nein,6.548,None,dummy,3.113,None,None,None,None,None,,['return'],[0.8500837706305902],2017_Jan_24_1251,60.0261674756,famFaceGrey,001,1,
185,./greyInner/SigmarGabriel8_2_cut.png,0,28,28,184,,,2.nein,2.568,None,None,None,None,None,polit,0.812,None,,['return'],[0.6835574434280716],2017_Jan_24_1251,60.0261674756,famFaceGrey,001,1,
58,./greyInner/ElvisPresley4_10_cut.png,0,29,29,57,,,1.ja,3.572,None,None,None,music,1.059,None,None,None,Elvis Presley,"['lshift', 'e', 'l', 'v', 'i', 's', 'space', 'lshift', 'p', 'r', 'e', 's', 'l', 'e', 'y', 'return']","[1.1335386940772878, 1.2500236572250287, 1.6828937580539787, 2.0497658175409015, 2.299708318458215, 2.4661230156416423, 2.616193859003033, 2.7827461690540076, 2.8493892907681584, 3.099400437731674, 3.215805206898949, 3.4325711376750405, 3.5825454274836375, 3.7155230844800826, 4.032795809127492, 5.464991959752297]",2017_Jan_24_1251,60.0261674756,famFaceGrey,001,1,
150,./greyInner/MilaKunis7_3_cut.png,0,30,30,149,,,1.ja,9.99,None,act,18.667,None,None,None,None,None,,['return'],[0.5176636863361637],2017_Jan_24_1251,60.0261674756,famFaceGrey,001,1,
64,./greyInner/EmilyDeschanel6_12_cut.png,0,31,31,63,,,1.ja,8.361,None,act,0.509,None,None,None,None,None,,['return'],[0.35018657931323105],2017_Jan_24_1251,60.0261674756,famFaceGrey,001,1,
91,./greyInner/JanHofer1_3_cut.png,0,32,32,90,,,2.nein,3.272,None,None,None,None,None,polit,0.861,None,,['return'],[0.5167677591962274],2017_Jan_24_1251,60.0261674756,famFaceGrey,001,1,
98,./greyInner/JasonSegel(Marshall)6_1_cut.png,0,33,33,97,,,2.nein,3.544,None,act,17.753,None,None,None,None,None,,['return'],[0.5003379374302312],2017_Jan_24_1251,60.0261674756,famFaceGrey,001,1,
23,./greyInner/BenedictCumberbatch3_9_cut.png,0,34,34,22,,,2.nein,8.852,None,None,None,music,3.722,None,None,None,,['return'],[0.7335439548023714],2017_Jan_24_1251,60.0261674756,famFaceGrey,001,1,
73,./greyInner/GuentherJauch4_1_cut.png,0,35,35,72,,,1.ja,4.038,None,None,None,host,1.095,None,None,None,Günther Jauch,"['lshift', 'g', u'\xfc', 'n', 't', 'h', 'e', 'r', 'space', 'lshift', 'j', 'a', 'u', 'c', 'h', 'return']","[1.4831004018997191, 1.5997056560172496, 2.0661792797363887, 2.349293859932004, 2.5326128064662043, 2.6990361645985104, 2.815856017805345, 2.9159198201341496, 3.098850307031171, 3.215705445589265, 3.349053277994244, 3.5489479993375426, 3.7155744086267077, 3.8654883925628383, 3.965297178037872, 5.197963008762599]",2017_Jan_24_1251,60.0261674756,famFaceGrey,001,1,
154,./greyInner/NeilPatrickHarris(Barney)2_2_cut.png,0,36,36,153,,,2.nein,1.874,None,None,None,music,1.547,None,None,None,,['return'],[0.6666400422654988],2017_Jan_24_1251,60.0261674756,famFaceGrey,001,1,
56,./greyInner/ElvisPresley1_1_cut.png,0,37,37,55,,,1.ja,2.537,None,None,None,music,1.324,None,None,None,Elvis Presley,"['lshift', 'e', 'l', 'v', 'i', 's', 'space', 'lshift', 'p', 'r', 'e', 's', 'l', 'e', 'y', 'return']","[1.116095541181494, 1.232522764665191, 1.6989765002763306, 2.116177659816458, 2.2828887539490097, 2.4493291132039303, 2.632416780301355, 2.815927550833294, 2.9491441858881444, 3.24909533171558, 3.465338076966873, 3.7654595548065117, 3.9654514712547098, 4.115249334308828, 4.381868012898849, 4.69840680224479]",2017_Jan_24_1251,60.0261674756,famFaceGrey,001,1,
135,./greyInner/LeonardoDiCaprio7_1_cut.png,0,38,38,134,,,1.ja,2.234,None,act,1.753,None,None,None,None,None,Leonardo di Caprio,"['lshift', 'l', 'e', 'o', 'n', 'a', 'r', 'd', 'o', 'space', 'd', 'i', 'space', 'lshift', 'c', 'a', 'p', 'r', 'i', 'o', 'return']","[0.9832083429973864, 1.0832541818763275, 1.3332653288380243, 1.5164367184497678, 1.783113778255938, 1.8991028218333668, 2.083001410452198, 2.282818504023453, 2.3990660929903243, 2.5827860094232165, 3.115783746990928, 3.3822818138341972, 3.5988398818135465, 3.7489081589683337, 3.8488561611920886, 4.065470685733089, 4.248680889229945, 4.38178204495307, 4.5981431565178355, 4.781679589124906, 6.764298666759714]",2017_Jan_24_1251,60.0261674756,famFaceGrey,001,1,
4,./greyInner/AlysonHannigan(Lily)5_4_cut.png,0,39,39,3,,,1.ja,11.618,None,act,1.851,None,None,None,None,None,,['return'],[3.9488465058366273],2017_Jan_24_1251,60.0261674756,famFaceGrey,001,1,
82,./greyInner/HughLaurie(DrHouse)4_1_cut.png,0,40,40,81,,,1.ja,1.881,None,act,0.844,None,None,None,None,None,,['return'],[1.5831802430257085],2017_Jan_24_1251,60.0261674756,famFaceGrey,001,1,
191,./greyInner/TomCruise1_1_cut.png,0,41,41,190,,,2.nein,6.763,None,None,None,None,None,sport,1.063,None,,['return'],[0.48384652668573835],2017_Jan_24_1251,60.0261674756,famFaceGrey,001,1,
161,./greyInner/OmarEpps(DrEricForeman)1_5_cut.png,0,42,42,160,,,2.nein,1.982,None,None,None,None,None,sport,0.817,None,,['return'],[0.4002215278487711],2017_Jan_24_1251,60.0261674756,famFaceGrey,001,1,
208,./greyInner/WillSmith4_1_cut.png,0,43,43,207,,,1.ja,3.723,None,act,33.745,None,None,None,None,None,Man in black,"['lshift', 'm', 'a', 'n', 'space', 'i', 'n', 'space', 'b', 'l', 'a', 'c', 'k', 'return']","[1.832945675636438, 1.966163914570643, 2.232345696358607, 2.366154483757782, 2.5159106459432223, 2.7157594963318843, 2.8492135055657855, 3.0324057456109585, 3.165870661225199, 3.3822356221025984, 3.532250971229587, 3.715560936037946, 3.8655294518812298, 5.43140864574525]",2017_Jan_24_1251,60.0261674756,famFaceGrey,001,1,
152,./greyInner/NeilPatrickHarris(Barney)11_2_cut.png,0,44,44,151,,,2.nein,2.801,None,None,None,host,2.545,None,None,None,,['return'],[0.6835224788537744],2017_Jan_24_1251,60.0261674756,famFaceGrey,001,1,
113,./greyInner/JoshRadnor(Ted)6_2_cut.png,0,45,45,112,,,1.ja,3.617,None,dummy,0.73,None,None,None,None,None,,['return'],[0.4339418131730781],2017_Jan_24_1251,60.0261674756,famFaceGrey,001,1,
209,./greyInner/WillSmith5_1_cut.png,0,46,46,208,,,1.ja,3.767,None,act,3.228,None,None,None,None,None,Man in black,"['lshift', 'm', 'a', 'n', 'space', 'i', 'n', 'space', 'b', 'l', 'a', 'c', 'k', 'return']","[1.6166445491671766, 1.7000466087411041, 1.9833642400935787, 2.1333160755893914, 2.3164752757147653, 2.4996790636942023, 2.6164328370614385, 2.7996616455602634, 2.966201445351544, 3.199553415766786, 3.3160688526259037, 3.5327096807923226, 3.6992507636878145, 5.332056003626349]",2017_Jan_24_1251,60.0261674756,famFaceGrey,001,1,
130,./greyInner/KatjaBurkard7_1_cut.png,0,47,47,129,,,2.nein,5.113,None,None,None,host,1.626,None,None,None,,['return'],[0.7165765125937469],2017_Jan_24_1251,60.0261674756,famFaceGrey,001,1,
26,./greyInner/Beyonce1_1_cut.png,0,48,48,25,,,2.nein,10.279,None,None,None,music,1.07,None,None,None,,['return'],[0.35055964170715015],2017_Jan_24_1251,60.0261674756,famFaceGrey,001,1,
94,./greyInner/JanHofer7_1_cut.png,0,49,49,93,,,2.nein,5.769,None,None,None,None,None,polit,0.776,None,,['return'],[0.48371115924965125],2017_Jan_24_1251,60.0261674756,famFaceGrey,001,1,
13,./greyInner/BarackObama2_1_cut.png,0,50,50,12,,,1.ja,2.183,None,None,None,None,None,polit,2.25,None,Barack Obama,"['lshift', 'b', 'a', 'r', 'a', 'c', 'k', 'space', 'lshift', 'o', 'b', 'a', 'm', 'a', 'return']","[1.200071148099596, 1.2834202796475438, 1.5498756832930667, 1.783301111392575, 1.9497145254717907, 2.1662873491441133, 2.316359796384859, 2.4661239779688913, 2.566220499442352, 2.6494390751904575, 2.800688449277004, 2.932661115319206, 3.049439588432506, 3.1825782749383507, 5.631401524520697]",2017_Jan_24_1251,60.0261674756,famFaceGrey,001,1,
156,./greyInner/NicoleKidman14_1_cut.png,0,51,51,155,,,1.ja,11.085,None,act,1.878,None,None,None,None,None,,"['lshift', 'n', 'i', 'c', 'o', 'l', 'e', 'space', 'lshift', 'r', 'backspace', 'backspace', 'backspace', 'backspace', 'backspace', 'backspace', 'backspace', 'backspace', 'return']","[1.2833984668832272, 1.3667280311001377, 1.566595486490769, 1.849817847394661, 1.9831685667832062, 2.1664477371014073, 2.2496977488899574, 2.366227941442048, 2.532729568900322, 2.6825652835123037, 27.63934746479572, 27.905948179934057, 28.13899541322462, 28.355739531236395, 28.555444674013415, 28.755458403222292, 29.038499525731822, 29.455041490760777, 33.28702932950364]",2017_Jan_24_1251,60.0261674756,famFaceGrey,001,1,
163,./greyInner/OmarEpps(DrEricForeman)3_1_cut.png,0,52,52,162,,,1.ja,2.698,None,None,None,None,None,sport,0.773,None,,['return'],[1.9832538931768795],2017_Jan_24_1251,60.0261674756,famFaceGrey,001,1,
36,./greyInner/CarenMiosga1_1_cut.png,0,53,53,35,,,2.nein,1.734,None,None,None,None,None,polit,0.644,None,,['return'],[0.4501069948073564],2017_Jan_24_1251,60.0261674756,famFaceGrey,001,1,
83,./greyInner/HughLaurie(DrHouse)5_3_cut.png,0,54,54,82,,,1.ja,2.152,None,act,2.161,None,None,None,None,None,,['return'],[0.7673187720301939],2017_Jan_24_1251,60.0261674756,famFaceGrey,001,1,
151,./greyInner/NeilPatrickHarris(Barney)1_1_cut.png,0,55,55,150,,,2.nein,2.442,None,None,None,None,None,sport,0.929,None,,['return'],[2.2666722481662873],2017_Jan_24_1251,60.0261674756,famFaceGrey,001,1,
54,./greyInner/DannFlorek(DonaldDonCragen)5_1_cut.png,0,56,56,53,,,2.nein,2.154,None,None,None,None,None,polit,0.778,None,,['return'],[0.4174645165694528],2017_Jan_24_1251,60.0261674756,famFaceGrey,001,1,
193,./greyInner/TomCruise5_1_cut.png,0,57,57,192,,,1.ja,2.456,None,act,0.895,None,None,None,None,None,Hugh Grant,"['lshift', 'h', 'u', 'g', 'h', 'space', 'lshift', 'g', 'r', 'a', 'n', 't', 'return']","[1.149786956673779, 1.2332977592850511, 1.4664036945687258, 1.583379765648715, 1.7161944684758055, 1.8665241780036013, 1.9493087439350347, 2.0497000584782654, 2.23298083267764, 2.3662738124003226, 2.4993813836426853, 2.6163032435906644, 3.7321960543922614]",2017_Jan_24_1251,60.0261674756,famFaceGrey,001,1,
195,./greyInner/TomCruise7_1_cut.png,0,58,58,194,,,2.nein,9.3,None,dummy,1.063,None,None,None,None,None,,['return'],[1.3494597010812868],2017_Jan_24_1251,60.0261674756,famFaceGrey,001,1,
198,./greyInner/UrsulavonderLeyen5_1_cut.png,0,59,59,197,,,2.nein,3.703,None,None,None,None,None,polit,1.292,None,Ursula von der Leyen,"['lshift', 'u', 'r', 's', 'u', 'l', 'a', 'space', 'v', 'o', 'n', 'space', 'd', 'e', 'r', 'space', 'lshift', 'l', 'e', 'y', 'e', 'n', 'return']","[3.616182952619056, 3.7488741567194666, 4.115246126550119, 4.515299247041185, 4.665221891929832, 4.8649514136741345, 4.998439745932046, 5.13157939476514, 5.314812052576599, 5.381570653622475, 5.498145113251667, 5.631384844171407, 5.731376471920157, 5.897983313878285, 5.981098920556178, 6.081161439782591, 6.247875741673852, 6.331005141717469, 6.531182145869025, 6.964303093465787, 7.230782234530125, 7.414035422001689, 8.996589189659062]",2017_Jan_24_1251,60.0261674756,famFaceGrey,001,1,
222,./greyInner/notfamousface7_cut.png,0,60,60,221,,,2.nein,2.242,None,None,None,music,0.693,None,None,None,,['return'],[0.43386001531507645],2017_Jan_24_1251,60.0261674756,famFaceGrey,001,1,
110,./greyInner/JoachimLoew8_1_cut.png,0,61,61,109,,,1.ja,1.891,None,None,None,None,None,sport,2.774,None,Jögi Löw,"['lshift', 'j', u'\xf6', 'g', 'i', 'space', 'lshift', 'l', u'\xf6', 'w', 'return']","[1.016646024736474, 1.1166533705054462, 2.1162969884608174, 2.599271325423615, 2.7493784164653334, 2.9492189266784408, 3.0991816685545928, 3.215869682859193, 3.4491097024783812, 3.6490496532260295, 5.165088609535815]",2017_Jan_24_1251,60.0261674756,famFaceGrey,001,1,
214,./greyInner/notfamousface1_2_cut.png,0,62,62,213,,,2.nein,4.281,None,None,None,music,0.827,None,None,None,,['return'],[1.5998512882833893],2017_Jan_24_1251,60.0261674756,famFaceGrey,001,1,
167,./greyInner/RobertSeanLeonard(Wilson)10_1_cut.png,0,63,63,166,,,2.nein,3.584,None,dummy,1.022,None,None,None,None,None,,['return'],[0.5669602087091334],2017_Jan_24_1251,60.0261674756,famFaceGrey,001,1,
223,./greyInner/notfamousface8_9_cut.png,0,64,64,222,,,2.nein,2.372,None,None,None,music,0.765,None,None,None,,['return'],[0.367299333011033],2017_Jan_24_1251,60.0261674756,famFaceGrey,001,1,
138,./greyInner/LisaEdelstein(DrLisaCuddy)2_2_cut.png,0,65,65,137,,,2.nein,1.891,None,dummy,3.058,None,None,None,None,None,,['return'],[0.3841086326901859],2017_Jan_24_1251,60.0261674756,famFaceGrey,001,1,
8,./greyInner/AngelaMerkel4_1_cut.png,0,66,66,7,,,1.ja,1.823,None,None,None,None,None,polit,1.494,None,Angela Merkel,"['lshift', 'a', 'n', 'g', 'e', 'l', 'a', 'space', 'lshift', 'm', 'e', 'r', 'k', 'e', 'l', 'return']","[0.9331278442805342, 1.1167370930197649, 1.2167030586952023, 1.4330635287078621, 1.549821792938019, 1.6497672289551701, 1.816316010472292, 1.9495743463958206, 2.0828955543984193, 2.18259687994032, 2.366166994019295, 2.4827430575278413, 2.632639719564395, 2.715996870510935, 2.8493081344604434, 3.948759254786637]",2017_Jan_24_1251,60.0261674756,famFaceGrey,001,1,
49,./greyInner/CristinMilioti(Tracy_Mutter)8_1_cut.png,0,67,67,48,,,2.nein,3.716,None,dummy,0.622,None,None,None,None,None,,['return'],[0.5335090543812839],2017_Jan_24_1251,60.0261674756,famFaceGrey,001,1,
79,./greyInner/GeorgeClooney3_1_cut.png,0,68,68,78,,,1.ja,2.756,None,act,1.445,None,None,None,None,None,George Cloony,"['lshift', 'g', 'e', 'o', 'r', 'g', 'e', 'space', 'lshift', 'k', 'l', 'backspace', 'backspace', 'lshift', 'c', 'l', 'o', 'o', 'n', 'y', 'return']","[0.9998630286827392, 1.100182810196202, 1.3832460662433732, 1.5665768814869807, 1.9327929542196216, 2.166241798962801, 2.2661564404897945, 2.6493867887147644, 3.3823960100598924, 3.482375769099235, 3.7323718395946344, 5.7981341106369655, 5.964835902266714, 6.397926055376956, 6.514633957787737, 6.830911956312775, 7.0476980959701905, 7.197706708802798, 7.414121710722611, 7.530684943194501, 8.71349481834477]",2017_Jan_24_1251,60.0261674756,famFaceGrey,001,1,
25,./greyInner/BenedictCumberbatch6_5_cut.png,0,69,69,24,,,2.nein,2.279,None,None,None,music,1.092,None,None,None,,['return'],[0.4009326880604931],2017_Jan_24_1251,60.0261674756,famFaceGrey,001,1,
212,./greyInner/notfamousface11_1_cut.png,0,70,70,211,,,2.nein,3.079,None,None,None,host,1.119,None,None,None,,['return'],[0.3837342871920555],2017_Jan_24_1251,60.0261674756,famFaceGrey,001,1,
35,./greyInner/BritneySpears8_5_cut.png,0,71,71,34,,,1.ja,2.56,None,None,None,music,1.003,None,None,None,Britney Spears,"['lshift', 'b', 'r', 'i', 't', 'n', 'e', 'y', 'space', 'lshift', 's', 'p', 'e', 'a', 'r', 's', 'return']","[0.8985196512148832, 1.0152285159529129, 1.2817397346098005, 1.4650740783872607, 2.1648313472505833, 2.4643889010258135, 2.5980000904601184, 2.8478983242985123, 2.9643390203709714, 3.1476104920675425, 3.2476281026647484, 3.547422709845705, 3.7305912124720635, 3.8640336737735197, 3.9638684420970094, 4.1305914049389685, 6.146320331323295]",2017_Jan_24_1251,60.0261674756,famFaceGrey,001,1,
37,./greyInner/CarenMiosga13_1_cut.png,0,72,72,36,,,2.nein,3.35,None,None,None,None,None,polit,1.143,None,,['return'],[0.40028760768836946],2017_Jan_24_1251,60.0261674756,famFaceGrey,001,1,
199,./greyInner/UrsulavonderLeyen7_1_cut.png,0,73,73,198,,,2.nein,12.895,None,None,None,None,None,polit,1.429,None,,['return'],[0.40035368752614886],2017_Jan_24_1251,60.0261674756,famFaceGrey,001,1,
200,./greyInner/UrsulavonderLeyen8_2_cut.png,0,74,74,199,,,2.nein,15.39,None,None,None,None,None,polit,0.842,None,,['return'],[0.3503995745213615],2017_Jan_24_1251,60.0261674756,famFaceGrey,001,1,
5,./greyInner/AlysonHannigan(Lily)8_3_cut.png,0,75,75,4,,,1.ja,4.082,None,None,None,music,2.555,None,None,None,,['return'],[0.2507020982920949],2017_Jan_24_1251,60.0261674756,famFaceGrey,001,1,
224,./greyInner/notfamousface9_1_cut.png,0,76,76,223,,,2.nein,2.117,None,None,None,None,None,sport,0.761,None,,['return'],[0.4169118196623458],2017_Jan_24_1251,60.0261674756,famFaceGrey,001,1,
144,./greyInner/MariskaHargitay(Liv)6_5_cut.png,0,77,77,143,,,2.nein,2.993,None,dummy,0.931,None,None,None,None,None,,['return'],[0.4171225694408349],2017_Jan_24_1251,60.0261674756,famFaceGrey,001,1,
177,./greyInner/Shakira2_1_cut.png,0,78,78,176,,,2.nein,2.387,None,act,1.863,None,None,None,None,None,,['return'],[0.31722974067633913],2017_Jan_24_1251,60.0261674756,famFaceGrey,001,1,
92,./greyInner/JanHofer3_1_cut.png,0,79,79,91,,,2.nein,2.649,None,None,None,None,None,polit,0.697,None,,['return'],[0.4003722925317561],2017_Jan_24_1251,60.0261674756,famFaceGrey,001,1,
183,./greyInner/SigmarGabriel3_3_cut.png,0,80,80,182,,,1.ja,4.701,None,None,None,None,None,polit,2.584,None,Sigmar Gabriel,"['lshift', 's', 'i', 'g', 'm', 'a', 'r', 'space', 'lshift', 'g', 'a', 'b', 'r', 'i', 'e', 'k', 'l', 'backspace', 'backspace', 'l', 'return']","[1.0666610851658334, 1.2000900738785276, 1.566607034423214, 2.0164448982359318, 2.2663428112991824, 2.3996742841336527, 2.533019229555066, 2.6826955185370025, 2.8159868943803303, 2.9494874161209736, 3.1159665892646444, 3.2492531534680893, 3.3825400384484965, 3.5324498522986687, 3.649179567471947, 3.7991281952090503, 5.3817448349473125, 5.498156340408968, 5.764742620631296, 7.497519920987543]",2017_Jan_24_1251,60.0261674756,famFaceGrey,001,1,
197,./greyInner/UrsulavonderLeyen4_1_cut.png,0,81,81,196,,,1.ja,2.256,None,None,None,None,None,polit,1.296,None,Ursula von der Leyen,"['lshift', 'u', 'r', 's', 'u', 'l', 'a', 'space', 'v', 'o', 'n', 'space', 'd', 'e', 'r', 'space', 'lshift', 'l', 'e', 'x', 'backspace', 'y', 'e', 'n', 'return']","[1.266810181812616, 1.3836271480358846, 1.6500437377962953, 1.9664869359203294, 2.099982966798052, 2.3331610766654194, 2.4495565433317097, 2.5997749436155573, 2.7496308671125007, 2.83319973016296, 2.949442507491767, 3.149435386267214, 3.177712745806275, 3.3327671638380707, 3.449273618971347, 3.5824713282472658, 3.6990592604634003, 3.832573575569768, 3.9988673402312997, 4.349143095250838, 4.732205998445352, 4.8821385873870895, 5.115279808022024, 5.26520886842809, 7.447742234737234]",2017_Jan_24_1251,60.0261674756,famFaceGrey,001,1,
95,./greyInner/JanHofer9_2_cut.png,0,82,82,94,,,2.nein,1.586,None,None,None,host,1.295,None,None,None,,['return'],[0.5169502806948003],2017_Jan_24_1251,60.0261674756,famFaceGrey,001,1,
108,./greyInner/JoachimLoew15_1_cut.png,0,83,83,107,,,1.ja,1.835,None,None,None,None,None,sport,1.061,None,Jögi Löw,"['lshift', 'j', u'\xf6', 'g', 'i', 'space', 'lshift', 'l', u'\xf6', 'w', 'return']","[1.0337286254962237, 1.1172452020746277, 1.5837515449366038, 1.93365712454397, 2.0834646108778543, 2.266616112381598, 2.3831235298439424, 2.533104235171777, 2.7493957383630914, 2.8997559216022637, 4.682508506175509]",2017_Jan_24_1251,60.0261674756,famFaceGrey,001,1,
55,./greyInner/DannFlorek(DonaldDonCragen)8_1_cut.png,0,84,84,54,,,2.nein,3.525,None,None,None,host,3.699,None,None,None,,['return'],[0.41696859700095956],2017_Jan_24_1251,60.0261674756,famFaceGrey,001,1,
174,./greyInner/SahraWagenknecht6_2_cut.png,0,85,85,173,,,2.nein,2.857,None,None,None,host,0.707,None,None,None,,['return'],[0.4505846301508427],2017_Jan_24_1251,60.0261674756,famFaceGrey,001,1,
175,./greyInner/SahraWagenknecht9_1_cut.png,0,86,86,174,,,2.nein,2.082,None,None,None,music,3.974,None,None,None,,['return'],[0.31722172127774684],2017_Jan_24_1251,60.0261674756,famFaceGrey,001,1,
203,./greyInner/Usher2_1_cut.png,0,87,87,202,,,1.ja,1.904,None,None,None,music,3.262,None,None,None,Usher,"['lshift', 'u', 's', 'h', 'e', 'r', 'return']","[1.3999507929747779, 1.533094611895649, 1.9164292122932238, 2.049605108806645, 2.166393525973035, 2.2829564376679627, 3.2824197795562213]",2017_Jan_24_1251,60.0261674756,famFaceGrey,001,1,
131,./greyInner/LeonardoDiCaprio1_1_cut.png,0,88,88,130,,,1.ja,1.454,None,act,1.337,None,None,None,None,None,Leonardo di Caprio,"['lshift', 'l', 'e', 'o', 'n', 'a', 'r', 'd', 'o', 'space', 'd', 'i', 'space', 'lshift', 'c', 'a', 'p', 'r', 'i', 'o', 'return']","[0.7500886143479875, 0.8668603511669062, 1.0999290764448233, 1.2999915635937214, 2.0997478380504617, 2.2162488399935683, 2.3828755700596957, 2.6160870406201866, 2.732646744558224, 2.915683408282348, 3.0491037360443443, 3.149037303352088, 3.2991328464595426, 3.4489948646987614, 3.5489922664128244, 3.748929650953869, 4.481969987564298, 4.681888125549449, 4.8983788305849885, 5.0650321850516775, 6.164659090580244]",2017_Jan_24_1251,60.0261674756,famFaceGrey,001,1,
123,./greyInner/KaleyCuoco(Penny)3_1_cut.png,0,89,89,122,,,2.nein,3.498,None,act,1.745,None,None,None,None,None,,['return'],[0.8509158633642073],2017_Jan_24_1251,60.0261674756,famFaceGrey,001,1,
116,./greyInner/JudithRakers1_1_cut.png,0,90,90,115,,,2.nein,2.402,None,dummy,0.927,None,None,None,None,None,,['return'],[0.5502618974987854],2017_Jan_24_1251,60.0261674756,famFaceGrey,001,1,
62,./greyInner/EmilyDeschanel3_1_cut.png,0,91,91,61,,,1.ja,7.081,None,act,1.452,None,None,None,None,None,,['return'],[1.0334232468230766],2017_Jan_24_1251,60.0261674756,famFaceGrey,001,1,
142,./greyInner/MariskaHargitay(Liv)14_1_cut.png,0,92,92,141,,,2.nein,1.9,None,None,None,host,0.995,None,None,None,,['return'],[0.5344142840222048],2017_Jan_24_1251,60.0261674756,famFaceGrey,001,1,
12,./greyInner/BarackObama11_2_cut.png,0,93,93,11,,,1.ja,1.191,None,None,None,None,None,polit,0.635,None,Barack Obama,"['lshift', 'b', 'a', 'r', 'a', 'c', 'k', 'space', 'lshift', 'o', 'b', 'a', 'm', 'a', 'return']","[0.8835368496147566, 0.9834729831309232, 1.2498010387371323, 1.4666105950364, 1.6492972922351328, 1.9997286235739011, 2.116425940379486, 2.2997426414822257, 2.4160938410714152, 2.4995379222909833, 2.6325717150702985, 2.7994460841455293, 2.8827557602544402, 3.0160699111875147, 4.182460870952127]",2017_Jan_24_1251,60.0261674756,famFaceGrey,001,1,
186,./greyInner/TaylorSwift1_2_cut.png,0,94,94,185,,,2.nein,2.285,None,None,None,music,0.7,None,None,None,,['return'],[0.4505070023769804],2017_Jan_24_1251,60.0261674756,famFaceGrey,001,1,
32,./greyInner/BritneySpears14_2_cut.png,0,95,95,31,,,1.ja,2.336,None,None,None,music,1.411,None,None,None,Britney Spears,"['lshift', 'b', 'r', 'i', 't', 'n', 'e', 'y', 'space', 'lshift', 's', 'p', 'e', 'a', 'r', 's', 'return']","[0.866678471220439, 0.9499499749945244, 1.2165715405681112, 1.3831726085591072, 1.6497588887796155, 1.8661864009609417, 1.999518836120842, 2.3160075844243693, 2.4661050521881407, 2.6491744350569206, 2.7657668581377948, 3.115806522078856, 3.365386225432303, 3.49896565805102, 3.6490118016663473, 3.798755132815131, 5.231510075089318]",2017_Jan_24_1251,60.0261674756,famFaceGrey,001,1,
41,./greyInner/CobieSmulders(Robin)12_1_cut.png,0,96,96,40,,,2.nein,2.416,None,None,None,host,3.642,None,None,None,,['return'],[0.6170224231991597],2017_Jan_24_1251,60.0261674756,famFaceGrey,001,1,
216,./greyInner/notfamousface14_6_cut.png,0,97,97,215,,,2.nein,2.769,None,None,None,None,None,sport,1.69,None,,['return'],[0.35032002209482016],2017_Jan_24_1251,60.0261674756,famFaceGrey,001,1,
28,./greyInner/Beyonce3_2_cut.png,0,98,98,27,,,2.nein,2.755,None,None,None,music,1.011,None,None,None,,['return'],[0.3007668789887248],2017_Jan_24_1251,60.0261674756,famFaceGrey,001,1,
215,./greyInner/notfamousface13_1_cut.png,0,99,99,214,,,2.nein,2.952,None,None,None,None,None,sport,1.913,None,,['return'],[0.4010042210902611],2017_Jan_24_1251,60.0261674756,famFaceGrey,001,1,
117,./greyInner/JudithRakers2_1_cut.png,0,100,100,116,,,2.nein,1.77,None,None,None,None,None,polit,0.799,None,,['return'],[0.36693364846360055],2017_Jan_24_1251,60.0261674756,famFaceGrey,001,1,
133,./greyInner/LeonardoDiCaprio3_1_cut.png,0,101,101,132,,,1.ja,1.029,None,dummy,1.148,None,None,None,None,None,Leonardo di Caprio,"['lshift', 'l', 'e', 'o', 'n', 'a', 'r', 'd', 'o', 'space', 'd', 'i', 'space', 'lshift', 'c', 'a', 'p', 'r', 'i', 'o', 'return']","[1.0170601464469655, 1.116770132939564, 1.3834552121443267, 1.5999391808854853, 2.0331874765233806, 2.166469549863905, 2.3997734038912313, 2.6329932146272768, 2.766236794857832, 2.9662781107963383, 3.082857382063594, 3.1994674478210072, 3.366067232707792, 3.5159058343051584, 3.6156889577068796, 3.8324048474369192, 4.01586076528838, 4.198515705669706, 4.515508072165176, 4.682191258792955, 6.548054959179353]",2017_Jan_24_1251,60.0261674756,famFaceGrey,001,1,
51,./greyInner/DannFlorek(DonaldDonCragen)1_1_cut.png,0,102,102,50,,,2.nein,1.983,None,None,None,None,None,polit,1.409,None,,['return'],[0.43420901951321866],2017_Jan_24_1251,60.0261674756,famFaceGrey,001,1,
126,./greyInner/KatjaBurkard1_1_cut.png,0,103,103,125,,,1.ja,14.396,None,None,None,host,0.876,None,None,None,,['return'],[0.3168855481144419],2017_Jan_24_1251,60.0261674756,famFaceGrey,001,1,
162,./greyInner/OmarEpps(DrEricForeman)2_2_cut.png,0,104,104,161,,,1.ja,3.017,None,None,None,music,0.937,None,None,None,Jeason Derulo,"['lshift', 'j', 'e', 'a', 's', 'o', 'n', 'space', 'lshift', 'd', 'e', 'r', 'u', 'l', 'o', 'return']","[3.0325263573558914, 3.1324467728500167, 3.3989535006439837, 3.6322903945892904, 3.865489996442193, 3.981898935697245, 4.148636012678253, 4.331629050879201, 4.915042177221039, 5.048417596355648, 5.2482369353583636, 5.51473692685795, 5.664661817176238, 5.897995824139798, 6.081400097067672, 8.563526623278449]",2017_Jan_24_1251,60.0261674756,famFaceGrey,001,1,
205,./greyInner/Usher7_1_cut.png,0,105,105,204,,,2.nein,5.332,None,act,0.895,None,None,None,None,None,,['return'],[0.3170366335725703],2017_Jan_24_1251,60.0261674756,famFaceGrey,001,1,
190,./greyInner/TaylorSwift8_1_cut.png,0,106,106,189,,,2.nein,7.002,None,dummy,0.729,None,None,None,None,None,,['return'],[0.4842863104695425],2017_Jan_24_1251,60.0261674756,famFaceGrey,001,1,
176,./greyInner/Shakira1_1_cut.png,0,107,107,175,,,2.nein,2.347,None,None,None,host,4.908,None,None,None,,['return'],[0.3503764786564716],2017_Jan_24_1251,60.0261674756,famFaceGrey,001,1,
104,./greyInner/JimParsons(SheldonCooper)8_1_cut.png,0,108,108,103,,,2.nein,2.315,None,None,None,None,None,sport,0.908,None,,['return'],[0.2837141103882459],2017_Jan_24_1251,60.0261674756,famFaceGrey,001,1,
84,./greyInner/HughLaurie(DrHouse)8_1_cut.png,0,109,109,83,,,2.nein,1.614,None,None,None,music,0.675,None,None,None,,['return'],[0.2006665082026302],2017_Jan_24_1251,60.0261674756,famFaceGrey,001,1,
119,./greyInner/JudithRakers7_1_cut.png,0,110,110,118,,,2.nein,2.949,None,dummy,0.812,None,None,None,None,None,,['return'],[0.31731923715597077],2017_Jan_24_1251,60.0261674756,famFaceGrey,001,1,
80,./greyInner/GeorgeClooney4_2_cut.png,0,111,111,79,,,1.ja,1.742,None,act,1.367,None,None,None,None,None,George Cloony,"['lshift', 'g', 'e', 'o', 'r', 'g', 'e', 'space', 'lshift', 'c', 'o', 'o', 'n', 'y', 'backspace', 'backspace', 'backspace', 'backspace', 'l', 'o', 'o', 'n', 'y', 'return']","[1.1666530336897267, 1.3665753417626547, 1.6829155708164762, 2.232656848998886, 2.5827500825198513, 2.782689712492356, 2.899237547719167, 3.0491563432951807, 3.215801357588134, 3.332635004158874, 3.6655683299213706, 3.798949202246149, 4.665104808720571, 4.9817292452371476, 5.431558127322205, 5.614758065990827, 5.781520484268185, 5.898088528379958, 6.3644774672557105, 6.647730622647941, 6.797545486826493, 7.0641490889483975, 7.2974843790143495, 8.51355133906327]",2017_Jan_24_1251,60.0261674756,famFaceGrey,001,1,
86,./greyInner/Ice-T(OdafinFinTutuola)10_1_cut.png,0,112,112,85,,,1.ja,1.927,None,None,None,music,3.945,None,None,None,Man in black,"['lshift', 'm', 'a', 'n', 'space', 'i', 'n', 'space', 'b', 'l', 'a', 'c', 'k', 'return']","[1.4165137367472198, 1.5330910833599773, 1.7331022463604313, 1.8664180011746794, 2.033133586168333, 2.2495771371450246, 2.3661942599701433, 2.5495433594405768, 2.6991619087566505, 2.8326864886930707, 2.999254195989124, 3.2158536440620082, 3.3158821610413725, 4.565493941985551]",2017_Jan_24_1251,60.0261674756,famFaceGrey,001,1,
2,./greyInner/AlysonHannigan(Lily)12_2_cut.png,0,113,113,1,,,2.nein,2.746,None,act,1.132,None,None,None,None,None,,['return'],[0.2839787505199638],2017_Jan_24_1251,60.0261674756,famFaceGrey,001,1,
61,./greyInner/EmilyDeschanel15_1_cut.png,0,114,114,60,,,1.ja,5.133,None,dummy,4.143,None,None,None,None,None,,['return'],[0.5833595567637531],2017_Jan_24_1251,60.0261674756,famFaceGrey,001,1,
114,./greyInner/JoshRadnor(Ted)7_1_cut.png,0,115,115,113,,,2.nein,3.579,None,dummy,0.726,None,None,None,None,None,,['return'],[0.5166910937532521],2017_Jan_24_1251,60.0261674756,famFaceGrey,001,1,
134,./greyInner/LeonardoDiCaprio4_1_cut.png,0,116,116,133,,,1.ja,1.279,None,act,0.678,None,None,None,None,None,Leonardo di Caprio,"['lshift', 'l', 'e', 'o', 'n', 'a', 'r', 'd', 'o', 'space', 'd', 'i', 'space', 'lshift', 'c', 'a', 'p', 'r', 'i', 'o', 'return']","[0.9166287349144113, 1.0000862887209223, 1.283297743244475, 1.5496533855803136, 1.9495271923351538, 2.116143978346372, 2.3493079740710527, 2.565878552311915, 2.699192382469846, 2.8825985800522176, 3.0156631673216907, 3.1158254478596064, 3.299061634204918, 3.4822881972741015, 3.6156629748566047, 3.8488125356652745, 4.165483163915269, 4.381987983091676, 4.598637472208793, 4.748346801110529, 5.81474485002218]",2017_Jan_24_1251,60.0261674756,famFaceGrey,001,1,
172,./greyInner/SahraWagenknecht2_2_cut.png,0,117,117,171,,,2.nein,2.737,None,None,None,host,1.77,None,None,None,,['return'],[0.333654430027309],2017_Jan_24_1251,60.0261674756,famFaceGrey,001,1,
179,./greyInner/Shakira7_1_cut.png,0,118,118,178,,,1.ja,14.004,None,None,None,music,0.596,None,None,None,Beyonce,"['lshift', 'b', 'e', 'y', 'o', 'n', 'c', 'e', 'return']","[1.3499366948726674, 1.4665608747673105, 1.716553416728857, 2.066496527118943, 2.282946814390016, 2.466205775826893, 2.58246395039896, 2.7161906191649905, 3.765635660785847]",2017_Jan_24_1251,60.0261674756,famFaceGrey,001,1,
67,./greyInner/EmmaWatson(HermioneGranger)16_1_cut.png,0,119,119,66,,,1.ja,2.654,None,act,0.882,None,None,None,None,None,Emma Watson,"['lshift', 'e', 'm', 'm', 'a', 'space', 'lshift', 'w', 'a', 't', 's', 'o', 'n', 'return']","[1.133118477622702, 1.233338177049518, 1.6995824459863798, 1.8497305963446706, 1.9662181256990152, 2.0996259432013176, 2.2661679884240584, 2.416105068226898, 2.6328838300378266, 2.766064858966274, 2.932808672239844, 3.1158312218249193, 3.265820908878595, 4.881846681299066]",2017_Jan_24_1251,60.0261674756,famFaceGrey,001,1,
202,./greyInner/Usher11_1_cut.png,0,120,120,201,,,1.ja,2.421,None,act,1.195,None,None,None,None,None,Jeason Derulo,"['lshift', 'j', 'e', 'a', 's', 'o', 'n', 'space', 'lshift', 'd', 'e', 'r', 'u', 'l', 'o', 'return']","[5.6484167623384565, 5.8484754001765396, 6.098364331513949, 6.281707015466964, 6.598117815221485, 6.714758033913313, 6.881348516299113, 7.064474355729544, 7.2645621841766115, 7.397948830468522, 7.58115261844614, 7.797745330224643, 7.897692690896292, 8.147522920242409, 8.314134894613744, 9.096825248658206]",2017_Jan_24_1251,60.0261674756,famFaceGrey,001,1,
120,./greyInner/JudithRakers8_1_cut.png,0,121,121,119,,,2.nein,2.069,None,None,None,host,0.941,None,None,None,,['return'],[0.650041492364835],2017_Jan_24_1251,60.0261674756,famFaceGrey,001,1,
153,./greyInner/NeilPatrickHarris(Barney)13_4_cut.png,0,122,122,152,,,2.nein,1.177,None,None,None,host,1.541,None,None,None,,['return'],[0.3504685413445259],2017_Jan_24_1251,60.0261674756,famFaceGrey,001,1,
182,./greyInner/SigmarGabriel11_3_cut.png,0,123,123,181,,,1.ja,1.557,None,None,None,None,None,polit,0.732,None,Sigmar Gabriel,"['lshift', 's', 'i', 'g', 'm', 'a', 'r', 'space', 'lshift', 'g', 'a', 'b', 'r', 'i', 'e', 'l', 'return']","[0.9665703376595047, 1.1001966035619262, 1.4665935939137853, 1.7164937524084962, 1.966416044442667, 2.1164891332355182, 2.215842737681669, 2.366391857938652, 2.4994615776213323, 2.599512869690443, 2.7827343003446003, 2.8994803750902065, 3.049268614868197, 3.199016116102939, 3.3326112667418784, 3.4489377665850043, 4.565410540248195]",2017_Jan_24_1251,60.0261674756,famFaceGrey,001,1,
77,./greyInner/GeorgeClooney15_1_cut.png,0,124,124,76,,,1.ja,1.604,None,act,0.626,None,None,None,None,None,George Cloony,"['lshift', 'g', 'e', 'o', 'r', 'g', 'e', 'space', 'lshift', 'c', 'o', 'o', 'backspace', 'backspace', 'l', 'o', 'o', 'n', 'y', 'return']","[1.3330812034619157, 1.499762786208521, 1.7329216495199944, 1.9332911192232132, 2.1993179662422335, 2.416143882113829, 2.515998217768356, 2.6491657741080417, 2.79907847494178, 2.915570495159045, 3.2490157792890386, 3.3985631163504877, 3.932080190130364, 4.0986828620007145, 4.531848076676397, 4.748498848895906, 4.914979946694075, 5.0648679477817495, 5.231514886729201, 6.147798145979323]",2017_Jan_24_1251,60.0261674756,famFaceGrey,001,1,
173,./greyInner/SahraWagenknecht5_1_cut.png,0,125,125,172,,,2.nein,2.723,None,None,None,music,0.912,None,None,None,,['return'],[0.851955177338823],2017_Jan_24_1251,60.0261674756,famFaceGrey,001,1,
201,./greyInner/Usher1_1_cut.png,0,126,126,200,,,1.ja,3.708,None,None,None,music,1.918,None,None,None,Jeason Derulo,"['lshift', 'j', 'e', 'a', 's', 'o', 'n', 'space', 'lshift', 'd', 'e', 'r', 'u', 'l', 'o', 'return']","[1.2332259054783208, 1.3497426254416496, 1.6496726000586932, 1.899509886474334, 2.132725206347459, 2.2493801807322598, 2.382705879597779, 2.5493964440702257, 2.6325890369698755, 2.815989460586934, 2.9825042398570076, 3.1824332842224976, 3.332415593431506, 3.6322400327717332, 3.815361381339244, 4.915119484217939]",2017_Jan_24_1251,60.0261674756,famFaceGrey,001,1,
128,./greyInner/KatjaBurkard4_1_cut.png,0,127,127,127,,,1.ja,2.092,None,None,None,host,2.768,None,None,None,Katja Burkhard,"['lshift', 'k', 'a', 't', 'j', 'a', 'space', 'lshift', 'b', 'u', 'r', 'k', 'h', 'a', 'r', 'd', 'return']","[1.0665626069585414, 1.183306115497544, 1.4165146990744688, 1.632921040045403, 1.8830056446931849, 2.0828724585317104, 2.23290352568074, 2.39937692485546, 2.4839976121438667, 2.699354695085276, 2.815918889884415, 3.115773802936019, 3.3490645051497268, 3.4489797882306448, 3.5654974705212226, 3.782070935745651, 4.83187845415523]",2017_Jan_24_1251,60.0261674756,famFaceGrey,001,1,
207,./greyInner/WillSmith14_1_cut.png,0,128,128,206,,,1.ja,2.182,None,None,None,music,0.725,None,None,None,,['return'],[6.997600916905867],2017_Jan_24_1251,60.0261674756,famFaceGrey,001,1,
206,./greyInner/WillSmith1_1_cut.png,0,129,129,205,,,2.nein,4.582,None,None,None,music,0.896,None,None,None,,['return'],[0.36705586408970703],2017_Jan_24_1251,60.0261674756,famFaceGrey,001,1,
107,./greyInner/JoachimLoew12_1_cut.png,0,130,130,106,,,2.nein,7.855,None,None,None,None,None,sport,1.062,None,,['return'],[0.317346503110457],2017_Jan_24_1251,60.0261674756,famFaceGrey,001,1,
34,./greyInner/BritneySpears7_1_cut.png,0,131,131,33,,,1.ja,2.312,None,None,None,music,1.114,None,None,None,Britney Spears,"['lshift', 'b', 'r', 'i', 't', 'n', 'e', 'y', 'space', 'lshift', 's', 'p', 'e', 'a', 'r', 's', 'return']","[1.2498671185767307, 1.3500098317817901, 1.616548316391345, 1.76640006980233, 1.999610578035572, 2.216106415486138, 2.3494468700464495, 2.6490252742569282, 2.765907999542833, 2.9658107402847236, 3.082593704259125, 3.4157695366175176, 3.6490650504692894, 3.7989508061273227, 3.9155506070528645, 4.248510877992885, 5.4815882642215]",2017_Jan_24_1251,60.0261674756,famFaceGrey,001,1,
218,./greyInner/notfamousface3_3_cut.png,0,132,132,217,,,2.nein,2.935,None,dummy,1.668,None,None,None,None,None,,['return'],[0.5006006529074511],2017_Jan_24_1251,60.0261674756,famFaceGrey,001,1,
18,./greyInner/BastianSchweinsteiger14_1_cut.png,0,133,133,17,,,1.ja,4.257,None,None,None,None,None,sport,1.213,None,Schweinsteiger,"['lshift', 's', 'c', 'h', 'w', 'e', 'i', 'n', 's', 't', 'e', 'i', 'g', 'e', 'r', 'return']","[2.9493026491909404, 3.066058988766599, 3.399256954662633, 3.5325566706796963, 3.7990441519177693, 3.8992215089238016, 3.9656920531924698, 4.098928576353501, 4.231836304199533, 4.348779976910009, 4.448662220071128, 4.582039563860235, 4.682060061441007, 4.781956739518137, 4.8817501277480915, 6.430953143941224]",2017_Jan_24_1251,60.0261674756,famFaceGrey,001,1,
33,./greyInner/BritneySpears5_1_cut.png,0,134,134,32,,,1.ja,1.627,None,None,None,music,0.628,None,None,None,Britney Spears,"['lshift', 'b', 'r', 'i', 't', 'n', 'e', 'backspace', 'e', 'y', 'space', 'lshift', 's', 'p', 'e', 'a', 'r', 's', 'return']","[0.9499233505939628, 1.0831701385850465, 1.2997262819080788, 1.4497281584481243, 1.683059278428118, 1.9162717113176768, 2.082557135803654, 2.599255607403393, 3.3654859867438063, 3.7653636428076425, 4.248431646341487, 4.59847163105951, 4.665243063140224, 5.048266831674482, 5.214973114167151, 5.33155495164101, 5.481521863604939, 5.631361427529555, 6.780826325180897]",2017_Jan_24_1251,60.0261674756,famFaceGrey,001,1,
189,./greyInner/TaylorSwift7_1_cut.png,0,135,135,188,,,1.ja,4.003,None,act,2.246,None,None,None,None,None,,['return'],[0.4841826998490433],2017_Jan_24_1251,60.0261674756,famFaceGrey,001,1,
181,./greyInner/SigmarGabriel1_2_cut.png,0,136,136,180,,,1.ja,1.432,None,None,None,None,None,polit,0.73,None,Sigmar Gabriel,"['lshift', 's', 'i', 'g', 'm', 'a', 'r', 'space', 'lshift', 'g', 'a', 'b', 'r', 'i', 'e', 'l', 'return']","[0.9833267093108589, 1.2666934193784982, 1.5996398969546135, 1.8993722736049676, 2.2162045729182864, 2.7157296641707944, 2.882547897457698, 3.082462186133853, 3.2156733679967147, 3.315632276600809, 3.4989294103725115, 3.5988860735451453, 3.7155760125060624, 3.8655454906765954, 3.965437357113842, 4.098739639339328, 5.3315475737963425]",2017_Jan_24_1251,60.0261674756,famFaceGrey,001,1,
47,./greyInner/CristinMilioti(Tracy_Mutter)2_1_cut.png,0,137,137,46,,,2.nein,1.715,None,None,None,music,0.929,None,None,None,,['return'],[0.450195528959739],2017_Jan_24_1251,60.0261674756,famFaceGrey,001,1,
165,./greyInner/OmarEpps(DrEricForeman)9_1_cut.png,0,138,138,164,,,1.ja,1.781,None,None,None,music,0.763,None,None,None,,['return'],[1.2165282358182594],2017_Jan_24_1251,60.0261674756,famFaceGrey,001,1,
53,./greyInner/DannFlorek(DonaldDonCragen)2_1_cut.png,0,139,139,52,,,2.nein,1.154,None,None,None,None,None,polit,0.696,None,,['return'],[0.3504508986698056],2017_Jan_24_1251,60.0261674756,famFaceGrey,001,1,
211,./greyInner/notfamousface10_4_cut.png,0,140,140,210,,,2.nein,1.291,None,None,None,host,1.123,None,None,None,,['return'],[0.26726536284149915],2017_Jan_24_1251,60.0261674756,famFaceGrey,001,1,
48,./greyInner/CristinMilioti(Tracy_Mutter)4_2_cut.png,0,141,141,47,,,2.nein,2.201,None,dummy,2.528,None,None,None,None,None,,['return'],[0.35038417727992055],2017_Jan_24_1251,60.0261674756,famFaceGrey,001,1,
170,./greyInner/RobertSeanLeonard(Wilson)8_1_cut.png,0,142,142,169,,,2.nein,1.734,None,None,None,None,None,sport,1.029,None,,['return'],[0.28431428212934406],2017_Jan_24_1251,60.0261674756,famFaceGrey,001,1,
158,./greyInner/NicoleKidman5_1_cut.png,0,143,143,157,,,1.ja,5.426,None,dummy,1.392,None,None,None,None,None,,['return'],[32.587166204590176],2017_Jan_24_1251,60.0261674756,famFaceGrey,001,1,
169,./greyInner/RobertSeanLeonard(Wilson)2_6_cut.png,0,144,144,168,,,2.nein,1.731,None,act,1.808,None,None,None,None,None,,['return'],[0.3337750417740608],2017_Jan_24_1251,60.0261674756,famFaceGrey,001,1,
143,./greyInner/MariskaHargitay(Liv)4_4_cut.png,0,145,145,142,,,2.nein,1.657,None,None,None,None,None,sport,2.362,None,,['return'],[0.3339822630168783],2017_Jan_24_1251,60.0261674756,famFaceGrey,001,1,
45,./greyInner/CobieSmulders(Robin)5_1_cut.png,0,146,146,44,,,2.nein,1.753,None,None,None,None,None,sport,0.697,None,,['return'],[0.3004060060793563],2017_Jan_24_1251,60.0261674756,famFaceGrey,001,1,
29,./greyInner/Beyonce5_3_cut.png,0,147,147,28,,,2.nein,1.655,None,None,None,music,0.826,None,None,None,Beyonce,"['lshift', 'b', 'e', 'y', 'o', 'n', 'c', 'e', 'return']","[4.99824150641507, 5.1648595755305, 5.3982356041397, 5.847929118786851, 6.1644778521877015, 6.3309785173169075, 6.514243894271203, 6.647565743827727, 7.7303467812234885]",2017_Jan_24_1251,60.0261674756,famFaceGrey,001,1,
46,./greyInner/CristinMilioti(Tracy_Mutter)10_1_cut.png,0,148,148,45,,,2.nein,1.568,None,None,None,None,None,sport,2.81,None,,['return'],[0.4335976206129999],2017_Jan_24_1251,60.0261674756,famFaceGrey,001,1,
15,./greyInner/BarackObama5_2_cut.png,0,149,149,14,,,1.ja,2.706,None,None,None,None,None,polit,1.428,None,Barack Obama,"['lshift', 'b', 'a', 'r', 'a', 'c', 'k', 'space', 'lshift', 'lshift', 'o', 'b', 'a', 'm', 'a', 'return']","[1.0499525091254327, 1.1664628135713428, 1.3663957072494668, 1.5997383751619054, 1.7830201116885291, 1.9995502721631055, 2.132643087712495, 2.316087457629692, 2.4159097156934877, 3.5655138300935505, 3.665436170243993, 4.365250537219254, 4.548356488543504, 4.7484953203602345, 4.881707785327308, 7.130730621685871]",2017_Jan_24_1251,60.0261674756,famFaceGrey,001,1,
140,./greyInner/LisaEdelstein(DrLisaCuddy)9_1_cut.png,0,150,150,139,,,2.nein,1.683,None,dummy,0.796,None,None,None,None,None,,['return'],[0.40026130406295124],2017_Jan_24_1251,60.0261674756,famFaceGrey,001,1,
111,./greyInner/JoshRadnor(Ted)1_2_cut.png,0,151,151,110,,,2.nein,1.037,None,None,None,host,0.777,None,None,None,,['return'],[0.21722816887267982],2017_Jan_24_1251,60.0261674756,famFaceGrey,001,1,
196,./greyInner/UrsulavonderLeyen1_1_cut.png,0,152,152,195,,,1.ja,4.688,None,None,None,None,None,polit,0.744,None,Ursula von der Leyen,"['lshift', 'u', 'r', 's', 'u', 'l', 'a', 'space', 'v', 'o', 'n', 'space', 'd', 'e', 'r', 'space', 'lshift', 'l', 'e', 'y', 'e', 'n', 'return']","[0.9165642589541676, 1.066722674142511, 1.3665480758099875, 1.6329749303986318, 1.7830140169444348, 2.016133104041728, 2.1325972167560394, 2.2661933297204087, 2.416030648213564, 2.4995359976328473, 2.6159911286213173, 2.7826146509269165, 2.832510703490698, 2.965847950290481, 3.065847276660861, 3.1989593387643254, 3.3655491795998387, 3.4323703319478227, 3.832221042835954, 4.049103415269201, 4.282031319919042, 4.415180592030083, 5.481691554066856]",2017_Jan_24_1251,60.0261674756,famFaceGrey,001,1,
149,./greyInner/MilaKunis5_2_cut.png,0,153,153,148,,,1.ja,3.261,None,act,0.911,None,None,None,None,None,,['return'],[3.7654409498045425],2017_Jan_24_1251,60.0261674756,famFaceGrey,001,1,
217,./greyInner/notfamousface2_cut.png,0,154,154,216,,,2.nein,1.794,None,dummy,3.309,None,None,None,None,None,,['return'],[0.2672756276697328],2017_Jan_24_1251,60.0261674756,famFaceGrey,001,1,
147,./greyInner/MilaKunis10_1_cut.png,0,155,155,146,,,2.nein,1.637,None,None,None,None,None,sport,3.145,None,,['return'],[0.25053433248649526],2017_Jan_24_1251,60.0261674756,famFaceGrey,001,1,
71,./greyInner/GuentherJauch2_1_cut.png,0,156,156,70,,,1.ja,2.405,None,None,None,host,1.162,None,None,None,Günther Jauch,"['lshift', 'g', u'\xfc', 'n', 't', 'h', 'e', 'r', 'space', 'lshift', 'j', 'a', 'u', 'c', 'h', 'return']","[0.9505203145781707, 1.1170819271319488, 1.4837018567468476, 1.7335535780784994, 1.8834236157144915, 2.05008017793989, 2.149961779548903, 2.2498786665091757, 2.4165653816708073, 2.5495914758284925, 2.666538677074641, 2.8497110290136334, 2.966315641579058, 3.09961952768208, 3.232936244823577, 4.19911780206894]",2017_Jan_24_1251,60.0261674756,famFaceGrey,001,1,
27,./greyInner/Beyonce11_2_cut.png,0,157,157,26,,,2.nein,1.458,None,None,None,music,0.878,None,None,None,,['return'],[0.3002125782004441],2017_Jan_24_1251,60.0261674756,famFaceGrey,001,1,
178,./greyInner/Shakira3_1_cut.png,0,158,158,177,,,2.nein,7.083,None,act,0.647,None,None,None,None,None,,['return'],[0.21714155937479518],2017_Jan_24_1251,60.0261674756,famFaceGrey,001,1,
192,./greyInner/TomCruise4_1_cut.png,0,159,159,191,,,1.ja,3.335,None,act,1.708,None,None,None,None,None,Hugh Grant,"['lshift', 'h', 'u', 'g', 'h', 'space', 'lshift', 'g', 'r', 'a', 'n', 't', 'return']","[0.9830158774457232, 1.0998700536765682, 1.38288262712922, 1.5163231637743593, 1.6329903276437108, 1.7993152075705439, 1.8494402941396402, 1.9828561310387158, 2.1495005037795636, 2.2826690224464983, 2.3994661005617672, 2.5325810496506165, 3.7989912238917896]",2017_Jan_24_1251,60.0261674756,famFaceGrey,001,1,
81,./greyInner/HughLaurie(DrHouse)2_1_cut.png,0,160,160,80,,,1.ja,1.431,None,dummy,0.519,None,None,None,None,None,,['return'],[1.0167454652710148],2017_Jan_24_1251,60.0261674756,famFaceGrey,001,1,
187,./greyInner/TaylorSwift2_1_cut.png,0,161,161,186,,,1.ja,1.733,None,act,1.677,None,None,None,None,None,,['return'],[0.2503784353903029],2017_Jan_24_1251,60.0261674756,famFaceGrey,001,1,
52,./greyInner/DannFlorek(DonaldDonCragen)10_1_cut.png,0,162,162,51,,,2.nein,1.159,None,None,None,None,None,polit,0.753,None,,['return'],[0.28393640809917997],2017_Jan_24_1251,60.0261674756,famFaceGrey,001,1,
74,./greyInner/GuentherJauch7_1_cut.png,0,163,163,73,,,1.ja,1.215,None,None,None,host,1.079,None,None,None,Günther Jauch,"['lshift', 'g', u'\xfc', 'n', 't', 'h', 'e', 'r', 'space', 'lshift', 'j', 'a', 'u', 'c', 'h', 'return']","[1.18342704801762, 1.2834039200733969, 1.6999308086342353, 1.9164866311821243, 2.0661808836157434, 2.216402170883157, 2.332953855420783, 2.4330221486143273, 2.566104699335483, 2.732757091473104, 2.849434520172508, 3.0160096053132293, 3.1658729066566593, 3.315863556037584, 3.415769857392661, 5.331732019947594]",2017_Jan_24_1251,60.0261674756,famFaceGrey,001,1,
38,./greyInner/CarenMiosga2_11_cut.png,0,164,164,37,,,2.nein,2.057,None,None,None,host,0.926,None,None,None,,['return'],[0.383768610216066],2017_Jan_24_1251,60.0261674756,famFaceGrey,001,1,
164,./greyInner/OmarEpps(DrEricForeman)5_2_cut.png,0,165,165,163,,,1.ja,1.196,None,None,None,music,0.6,None,None,None,,['return'],[2.6161614606335206],2017_Jan_24_1251,60.0261674756,famFaceGrey,001,1,
42,./greyInner/CobieSmulders(Robin)2_1_cut.png,0,166,166,41,,,2.nein,1.597,None,None,None,host,2.694,None,None,None,,['return'],[0.31716269850767276],2017_Jan_24_1251,60.0261674756,famFaceGrey,001,1,
50,./greyInner/CristinMilioti(Tracy_Mutter)9_1_cut.png,0,167,167,49,,,2.nein,2.275,None,None,None,music,1.201,None,None,None,,['return'],[0.2002203089014074],2017_Jan_24_1251,60.0261674756,famFaceGrey,001,1,
102,./greyInner/JimParsons(SheldonCooper)10_1_cut.png,0,168,168,101,,,2.nein,1.534,None,None,None,host,0.73,None,None,None,,['return'],[0.21722528189093282],2017_Jan_24_1251,60.0261674756,famFaceGrey,001,1,
88,./greyInner/Ice-T(OdafinFinTutuola)5_1_cut.png,0,169,169,87,,,2.nein,2.066,None,None,None,music,4.179,None,None,None,,['return'],[0.3000913249052246],2017_Jan_24_1251,60.0261674756,famFaceGrey,001,1,
188,./greyInner/TaylorSwift3_1_cut.png,0,170,170,187,,,1.ja,1.567,None,act,2.295,None,None,None,None,None,,['return'],[1.2170472512552806],2017_Jan_24_1251,60.0261674756,famFaceGrey,001,1,
115,./greyInner/JoshRadnor(Ted)9_1_cut.png,0,171,171,114,,,2.nein,1.755,None,None,None,None,None,sport,1.845,None,,['return'],[0.3003899672839907],2017_Jan_24_1251,60.0261674756,famFaceGrey,001,1,
10,./greyInner/AngelaMerkel6_1_cut.png,0,172,172,9,,,1.ja,1.281,None,None,None,None,None,polit,0.776,None,Angela Merkel,"['lshift', 'a', 'n', 'g', 'e', 'l', 'a', 'space', 'lshift', 'm', 'a', 'r', 'k', 'e', 'r', 'l', 'backspace', 'backspace', 'backspace', 'backspace', 'backspace', 'backspace', 'e', 'r', 'k', 'e', 'l', 'return']","[1.0000705707007, 1.1333048484302708, 1.5997820006850816, 1.8497498428987456, 1.9663903823675355, 2.0994536865327973, 2.2993500117554504, 2.449600168856705, 2.582721854238116, 2.69955485925675, 2.865980783597479, 3.1326068400321674, 3.3324348399855808, 3.449267845004215, 3.5990515939192846, 3.815617360520264, 4.182187569867892, 4.332118554930275, 5.081795934549518, 5.249791736234329, 5.415041375281362, 5.614933530418057, 6.164764305081917, 6.314362645514848, 6.547877890872769, 6.664603115183127, 6.780971636671893, 8.56388877929021]",2017_Jan_24_1251,60.0261674756,famFaceGrey,001,1,
100,./greyInner/JasonSegel(Marshall)9_1_cut.png,0,173,173,99,,,2.nein,1.7,None,None,None,None,None,sport,0.946,None,,['return'],[0.2838052107490512],2017_Jan_24_1251,60.0261674756,famFaceGrey,001,1,
204,./greyInner/Usher4_1_cut.png,0,174,174,203,,,1.ja,1.521,None,None,None,music,0.678,None,None,None,Jeason Derulo,"['lshift', 'j', 'e', 'a', 's', 'o', 'n', 'space', 'lshift', 'd', 'e', 'r', 'u', 'l', 'p', 'backspace', 'o', 'return']","[2.2994417536701803, 2.4326221410447033, 2.6825078646252223, 2.899153183652743, 3.0991592142399895, 3.1991720131991315, 3.3820928768182057, 4.181787883075231, 4.43179935081389, 4.548507894776776, 4.848537630705323, 5.098312045040075, 5.248270616830268, 5.564810368505277, 5.781275732244467, 7.797198407284668, 8.313524458042593, 11.26238732344973]",2017_Jan_24_1251,60.0261674756,famFaceGrey,001,1,
43,./greyInner/CobieSmulders(Robin)3_4_cut.png,0,175,175,42,,,2.nein,1.844,None,None,None,host,1.259,None,None,None,,['return'],[0.3836563386448688],2017_Jan_24_1251,60.0261674756,famFaceGrey,001,1,
129,./greyInner/KatjaBurkard5_3_cut.png,0,176,176,128,,,1.ja,1.105,None,None,None,host,0.788,None,None,None,Katja Burkhard,"['lshift', 'k', 'a', 't', 'j', 'a', 'space', 'lshift', 'b', 'u', 'r', 'k', 'h', 'a', 'r', 'd', 'return']","[0.8003253309379943, 0.9169004321174725, 1.1335428641632461, 1.4332117271842435, 1.7331121904153406, 1.8832119036105723, 2.0497475333140756, 2.183028002777064, 2.249543776450082, 2.482935843854648, 2.582846315295683, 2.782682655422832, 3.1159521543486335, 3.2826786457226262, 3.432139694063153, 3.665753417628366, 5.048406048423203]",2017_Jan_24_1251,60.0261674756,famFaceGrey,001,1,
101,./greyInner/JimParsons(SheldonCooper)1_1_cut.png,0,177,177,100,,,2.nein,2.187,None,None,None,None,None,sport,0.846,None,,['return'],[0.35073895544337574],2017_Jan_24_1251,60.0261674756,famFaceGrey,001,1,
210,./greyInner/WillSmith6_1_cut.png,0,178,178,209,,,1.ja,1.284,None,None,None,music,1.478,None,None,None,Man in Black,"['lshift', 'm', 'a', 'n', 'space', 'i', 'n', 'space', 'lshift', 'b', 'l', 'a', 'c', 'k', 'return']","[8.56368797356481, 8.746873477317422, 8.946390966180843, 9.096770716751053, 9.24666128404715, 9.429804766152301, 9.56327288952707, 9.729797933625377, 9.846499099741777, 9.946343812120176, 10.31303944485262, 10.462936106890993, 10.662420876609758, 10.779262221803947, 11.81218377508958]",2017_Jan_24_1251,60.0261674756,famFaceGrey,001,1,
124,./greyInner/KaleyCuoco(Penny)5_2_cut.png,0,179,179,123,,,2.nein,1.266,None,act,1.653,None,None,None,None,None,,['return'],[0.8335455266042118],2017_Jan_24_1251,60.0261674756,famFaceGrey,001,1,
122,./greyInner/KaleyCuoco(Penny)14_2_cut.png,0,180,180,121,,,2.nein,1.021,None,None,None,None,None,sport,3.109,None,,['return'],[0.38425939737135195],2017_Jan_24_1251,60.0261674756,famFaceGrey,001,1,
121,./greyInner/KaleyCuoco(Penny)10_1_cut.png,0,181,181,120,,,2.nein,3.528,None,dummy,0.76,None,None,None,None,None,,['return'],[0.40045505271882575],2017_Jan_24_1251,60.0261674756,famFaceGrey,001,1,
155,./greyInner/NeilPatrickHarris(Barney)3_7_cut.png,0,182,182,154,,,2.nein,2.446,None,None,None,None,None,sport,0.999,None,,['return'],[0.3839719821480685],2017_Jan_24_1251,60.0261674756,famFaceGrey,001,1,
132,./greyInner/LeonardoDiCaprio2_1_cut.png,0,183,183,131,,,1.ja,1.41,None,dummy,1.16,None,None,None,None,None,Leonardo di Caprio,"['lshift', 'l', 'e', 'o', 'n', 'a', 'r', 'd', 'o', 'space', 'd', 'i', 'space', 'lshift', 'c', 'a', 'p', 'r', 'i', 'o', 'return']","[1.0830832083101996, 1.1665831045393134, 1.4332040285607945, 1.6663442868684797, 2.032898778195886, 2.316028434859618, 2.499289320952812, 2.7159898134395917, 2.8825289716787665, 3.065681756286722, 3.1990385704175424, 3.2822670902187383, 3.4490048087518517, 3.59885014664178, 3.7155163481838827, 3.948791011602225, 4.165350041908823, 4.331899464978051, 4.498320577678896, 4.665048031381957, 5.847909230678852]",2017_Jan_24_1251,60.0261674756,famFaceGrey,001,1,
180,./greyInner/Shakira9_1_cut.png,0,184,184,179,,,2.nein,2.337,None,None,None,music,1.227,None,None,None,,['return'],[0.30028411123021215],2017_Jan_24_1251,60.0261674756,famFaceGrey,001,1,
3,./greyInner/AlysonHannigan(Lily)14_2_cut.png,0,185,185,2,,,2.nein,1.714,None,None,None,host,0.762,None,None,None,,['return'],[0.2673291972496372],2017_Jan_24_1251,60.0261674756,famFaceGrey,001,1,
11,./greyInner/BarackObama1_3_cut.png,0,186,186,10,,,1.ja,1.246,None,None,None,None,None,polit,0.496,None,Barack Obama,"['lshift', 'b', 'a', 'r', 'a', 'c', 'k', 'space', 'lshift', 'o', 'b', 'a', 'm', 'a', 'return']","[0.8161601133760996, 0.9497485277188389, 1.18334877869529, 1.3823988970452774, 1.6158634598068602, 1.866509422312447, 2.016343533045074, 2.2162895785368164, 2.3827944137519808, 2.4660524449391232, 2.649372674575716, 2.799073663303716, 2.91582166270382, 3.032612966853776, 3.8985789947601006]",2017_Jan_24_1251,60.0261674756,famFaceGrey,001,1,
63,./greyInner/EmilyDeschanel5_1_cut.png,0,187,187,62,,,1.ja,1.958,None,act,0.794,None,None,None,None,None,,['return'],[0.5671068033043412],2017_Jan_24_1251,60.0261674756,famFaceGrey,001,1,
109,./greyInner/JoachimLoew4_1_cut.png,0,188,188,108,,,1.ja,1.078,None,None,None,None,None,sport,0.944,None,Jogi Löw,"['lshift', 'j', 'o', 'g', 'i', 'space', 'lshift', 'l', u'\xf6', 'w', 'return']","[0.8999692375891755, 0.9997677582341566, 3.9322033680819004, 4.448669597915796, 4.664922928774104, 4.948213614949054, 5.381501045247205, 5.614863922042787, 5.830959431148585, 6.181094686315191, 7.579859570718327]",2017_Jan_24_1251,60.0261674756,famFaceGrey,001,1,
20,./greyInner/BastianSchweinsteiger6_2_cut.png,0,189,189,19,,,1.ja,3.468,None,None,None,None,None,sport,0.827,None,Schweinsteiger,"['lshift', 's', 'c', 'h', 'w', 'e', 'i', 'n', 's', 't', 'e', 'i', 'g', 'e', 'r', 'return']","[0.900483762163276, 1.0670126555723982, 1.433488556800512, 1.5500816214334918, 1.7666999952853075, 1.8666191276770405, 1.983227268776318, 2.1331896898773266, 2.2331123508047312, 2.3330818450140214, 2.4997781834536, 2.7161867698541755, 2.8829588114112994, 3.0328416800839477, 3.1160750115250266, 4.698799752746709]",2017_Jan_24_1251,60.0261674756,famFaceGrey,001,1,
65,./greyInner/EmilyDeschanel8_3_cut.png,0,190,190,64,,,1.ja,2.49,None,dummy,0.57,None,None,None,None,None,,['return'],[0.3004640665203624],2017_Jan_24_1251,60.0261674756,famFaceGrey,001,1,
118,./greyInner/JudithRakers4_3_cut.png,0,191,191,117,,,2.nein,1.29,None,None,None,host,0.913,None,None,None,,['return'],[0.2672534941302729],2017_Jan_24_1251,60.0261674756,famFaceGrey,001,1,
168,./greyInner/RobertSeanLeonard(Wilson)11_2_cut.png,0,192,192,167,,,2.nein,1.276,None,None,None,None,None,sport,0.829,None,,['return'],[0.267219812660187],2017_Jan_24_1251,60.0261674756,famFaceGrey,001,1,
112,./greyInner/JoshRadnor(Ted)3_1_cut.png,0,193,193,111,,,2.nein,1.338,None,None,None,None,None,sport,0.801,None,,['return'],[0.21716818377717573],2017_Jan_24_1251,60.0261674756,famFaceGrey,001,1,
59,./greyInner/ElvisPresley5_2_cut.png,0,194,194,58,,,1.ja,1.377,None,None,None,music,0.533,None,None,None,Elvis Presley,"['lshift', 'e', 'l', 'v', 'i', 's', 'space', 'lshift', 'p', 'r', 'e', 's', 'l', 'e', 'y', 'return']","[0.9498524591163005, 1.1831611247816909, 1.8829430933892581, 2.5159308548263652, 2.765814332973605, 2.9491711310656683, 3.132430734052832, 3.2488371071012807, 3.3655296122688014, 3.5822121413038985, 3.715331260478706, 3.9485411271616613, 4.13161917097932, 4.248468535570282, 4.498294274053478, 5.548144776435947]",2017_Jan_24_1251,60.0261674756,famFaceGrey,001,1,
60,./greyInner/ElvisPresley6_1_cut.png,0,195,195,59,,,1.ja,1.291,None,None,None,music,0.695,None,None,None,Elvis Presley,"['lshift', 'e', 'l', 'v', 'i', 's', 'space', 'lshift', 'p', 'r', 'e', 's', 'l', 'e', 'y', 'return']","[0.9171275414664706, 1.0169443463400967, 1.3502266763025546, 1.6833710726186837, 1.916701871823534, 2.4332409177914087, 4.0491957987323985, 4.232246897374353, 4.349087921791579, 4.565610062867563, 4.748821228693487, 4.948754443146754, 5.115518144528323, 5.248679926900877, 5.448513059267498, 6.631369126151185]",2017_Jan_24_1251,60.0261674756,famFaceGrey,001,1,
7,./greyInner/AngelaMerkel3_1_cut.png,0,196,196,6,,,1.ja,1.328,None,None,None,None,None,polit,1.386,None,Angela Merkel,"['lshift', 'a', 'n', 'e', 'backspace', 'g', 'e', 'l', 'a', 'space', 'lshift', 'm', 'e', 'r', 'k', 'e', 'l', 'return']","[0.7668873284219444, 0.8831990725720971, 1.266498066843269, 1.566050488205292, 2.1829202220669686, 2.965865272190058, 3.099030262321321, 3.2156130621242482, 3.3989515759876667, 3.51531432351112, 3.648702252905423, 3.764952408080717, 3.9321068145309255, 4.015289142600523, 4.181516506647313, 4.281984807410481, 4.397711135512509, 8.03033609938393]",2017_Jan_24_1251,60.0261674756,famFaceGrey,001,1,
87,./greyInner/Ice-T(OdafinFinTutuola)12_1_cut.png,0,197,197,86,,,2.nein,3.077,None,dummy,0.513,None,None,None,None,None,,['return'],[0.3335925202754879],2017_Jan_24_1251,60.0261674756,famFaceGrey,001,1,
19,./greyInner/BastianSchweinsteiger3_1_cut.png,0,198,198,18,,,1.ja,2.152,None,None,None,None,None,sport,1.279,None,Schweinsteiger,"['lshift', 's', 'c', 'h', 'w', 'e', 'i', 'n', 's', 't', 'e', 'i', 'g', 'e', 'r', 'return']","[0.9163656986620481, 1.016844264255269, 1.31676397404226, 1.450034178675196, 1.7825732708333817, 1.899196809179557, 2.0489998046487017, 2.1657686544840544, 2.2823716631701245, 2.3827979422876524, 2.499561980484941, 2.616183273397837, 2.6995105921814684, 2.8162249101114867, 2.9325312010732887, 3.765713930111815]",2017_Jan_24_1251,60.0261674756,famFaceGrey,001,1,
57,./greyInner/ElvisPresley2_1_cut.png,0,199,199,56,,,1.ja,4.135,None,None,None,music,0.883,None,None,None,,['return'],[0.30063215310292435],2017_Jan_24_1251,60.0261674756,famFaceGrey,001,1,
17,./greyInner/BastianSchweinsteiger12_1_cut.png,0,200,200,16,,,1.ja,35.577,None,None,None,None,None,sport,2.596,None,Schweinsteiger,"['lshift', 's', 'c', 'h', 'w', 'e', 'i', 'n', 's', 't', 'e', 'i', 'g', 'e', 'r', 'return']","[0.9831820393719681, 1.1164698866796243, 1.4498298444141255, 1.6004861038272793, 1.7664440161024686, 1.8830383638378407, 1.9497036190914514, 2.099554730948512, 2.182764966522882, 2.2827812940176955, 2.3829256111021095, 2.5160867519225576, 2.5825300302403775, 2.7161412196746824, 2.8160420678377704, 3.6323417187377345]",2017_Jan_24_1251,60.0261674756,famFaceGrey,001,1,
157,./greyInner/NicoleKidman3_1_cut.png,0,201,201,156,,,1.ja,1.469,None,act,0.53,None,None,None,None,None,,['return'],[0.8002348721274757],2017_Jan_24_1251,60.0261674756,famFaceGrey,001,1,
105,./greyInner/JimParsons(SheldonCooper)9_3_cut.png,0,202,202,104,,,2.nein,1.668,None,None,None,None,None,sport,1.17,None,,['return'],[0.1505263451672363],2017_Jan_24_1251,60.0261674756,famFaceGrey,001,1,
221,./greyInner/notfamousface6_8_cut.png,0,203,203,220,,,2.nein,1.644,None,None,None,None,None,sport,0.812,None,,['return'],[0.25071268389547186],2017_Jan_24_1251,60.0261674756,famFaceGrey,001,1,
171,./greyInner/SahraWagenknecht12_1_cut.png,0,204,204,170,,,2.nein,1.288,None,None,None,host,0.697,None,None,None,,['return'],[0.23366376460762694],2017_Jan_24_1251,60.0261674756,famFaceGrey,001,1,
106,./greyInner/JoachimLoew1_1_cut.png,0,205,205,105,,,1.ja,1.038,None,None,None,None,None,sport,0.771,None,Jogi Löw,"['lshift', 'j', 'o', 'g', 'i', 'space', 'lshift', 'l', u'\xf6', 'w', 'return']","[0.98337322181942, 1.083531973821664, 1.5666240355476475, 1.9830749002157972, 2.149649664581375, 2.349579671275933, 2.4660254997615993, 2.5829358117771335, 2.799519221054652, 2.9325976016880304, 4.115444045291952]",2017_Jan_24_1251,60.0261674756,famFaceGrey,001,1,
44,./greyInner/CobieSmulders(Robin)4_7_cut.png,0,206,206,43,,,2.nein,1.698,None,None,None,host,1.651,None,None,None,,['return'],[0.2504313634162827],2017_Jan_24_1251,60.0261674756,famFaceGrey,001,1,
69,./greyInner/EmmaWatson(HermioneGranger)4_1_cut.png,0,207,207,68,,,1.ja,1.548,None,act,5.474,None,None,None,None,None,Emma Watson,"['lshift', 'e', 'm', 'm', 'a', 'space', 'lshift', 'w', 'a', 't', 's', 'o', 'n', 'return']","[1.0831133612482517, 1.2165311228018254, 1.6831872680195374, 1.8326662798117468, 1.999584595185297, 2.1327960978251213, 2.3326122290691274, 2.482869122462944, 2.6494130923420016, 3.049178797609784, 3.332270923492615, 3.465679061770061, 3.632332737011893, 4.798484397941138]",2017_Jan_24_1251,60.0261674756,famFaceGrey,001,1,
220,./greyInner/notfamousface5_1_cut.png,0,208,208,219,,,2.nein,2.041,None,None,None,None,None,polit,0.57,None,,['return'],[0.2673522931163461],2017_Jan_24_1251,60.0261674756,famFaceGrey,001,1,
97,./greyInner/JasonSegel(Marshall)14_1_cut.png,0,209,209,96,,,2.nein,4.277,None,None,None,music,4.353,None,None,None,,['return'],[0.2670183653845015],2017_Jan_24_1251,60.0261674756,famFaceGrey,001,1,
9,./greyInner/AngelaMerkel5_1_cut.png,0,210,210,8,,,1.ja,1.228,None,None,None,None,None,polit,1.329,None,Angela Merkel,"['lshift', 'a', 'n', 'g', 'e', 'l', 'a', 'space', 'lshift', 'm', 'e', 'r', 'k', 'e', 'l', 'return']","[0.8678217165943352, 1.0176320899099665, 1.4341538460557786, 1.6839940194531664, 1.8670422311115544, 2.083975286139321, 2.3336441651990754, 2.517018605965859, 2.6502137490333553, 2.7502605502395454, 2.9335506269399048, 3.0501850716664194, 3.1834267272424768, 3.266766556287621, 3.4000207221233723, 4.416228246180253]",2017_Jan_24_1251,60.0261674756,famFaceGrey,001,1,
159,./greyInner/NicoleKidman7_1_cut.png,0,211,211,158,,,1.ja,1.322,None,act,1.046,None,None,None,None,None,,['return'],[1.083678889192015],2017_Jan_24_1251,60.0261674756,famFaceGrey,001,1,
1,./greyInner/AlysonHannigan(Lily)1_1_cut.png,0,212,212,0,,,1.ja,2.645,None,dummy,5.263,None,None,None,None,None,Nicole Ritchie,"['lshift', 's', 'r', 'e', 'x', 'backspace', 'backspace', 'backspace', 'e', 'x', 'space', 'a', 'n', 'd', 'space', 't', 'h', 'e', 'space', 'lshift', 'c', 'i', 't', 'y', 'backspace', 'backspace', 'backspace', 'backspace', 'backspace', 'backspace', 'backspace', 'backspace', 'backspace', 'backspace', 'backspace', 'backspace', 'backspace', 'backspace', 'backspace', 'backspace', 'backspace', 'lshift', 'n', 'i', 'c', 'o', 'l', 'e', 'space', 'lshift', 'r', 'i', 't', 'c', 'h', 'i', 'e', 'return']","[3.548883523377299, 3.665606502256196, 3.9821494616899145, 4.681883634686528, 5.514820970147412, 5.697838387317461, 5.864837217448439, 6.381069280861993, 6.78095142778875, 6.914248898374353, 7.097644510353348, 7.214125944965417, 7.330747237878313, 7.447352491995844, 7.597016912268373, 7.730609496698889, 7.8471380853716255, 7.9638010791532, 8.113699024295784, 8.163576792632739, 8.413194026767087, 8.84678747729231, 8.9800461339928, 13.494859726293726, 16.493614474178685, 16.693729889353563, 16.84353448870388, 17.893173278980612, 18.076074896043792, 18.226244217612475, 18.409464044387278, 18.559366480390963, 18.692658497786397, 18.892567333270563, 19.075948189556584, 19.24259544927918, 19.409059866729876, 19.60917816888832, 19.77558997908818, 19.97561172769565, 20.708506111262977, 20.808536873671983, 21.041864785893267, 21.275111221029874, 21.39159105176259, 21.57497736123878, 21.67488494569625, 21.79142508230325, 21.991395827539236, 22.091358264679002, 22.374563303683317, 23.12430034762474, 23.32414021628574, 23.440828872142447, 23.64072198960639, 24.240500140980657, 25.85654612228427]",2017_Jan_24_1251,60.0261674756,famFaceGrey,001,1,
30,./greyInner/Beyonce8_3_cut.png,0,213,213,29,,,2.nein,1.554,None,None,None,music,0.762,None,None,None,,['return'],[0.5004742671953863],2017_Jan_24_1251,60.0261674756,famFaceGrey,001,1,
125,./greyInner/KaleyCuoco(Penny)7_1_cut.png,0,214,214,124,,,1.ja,3.144,None,act,0.576,None,None,None,None,None,,['return'],[0.36700069063044793],2017_Jan_24_1251,60.0261674756,famFaceGrey,001,1,
6,./greyInner/AngelaMerkel1_1_cut.png,0,215,215,5,,,1.ja,1.065,None,None,None,None,None,polit,0.643,None,Angela Merkel,"['lshift', 'a', 'n', 'g', 'e', 'l', 'a', 'space', 'lshift', 'm', 'e', 'r', 'k', 'e', 'l', 'return']","[0.9999653562008461, 1.1665728397092607, 2.449431119946894, 2.6827012925023155, 2.8158277895236097, 2.9492218136601878, 3.115624962909351, 3.2655610803849413, 3.4156178096072836, 3.4989403167528508, 3.6988661533596314, 3.7988269866200426, 3.931948030451167, 4.0986982592439745, 4.215398463033125, 5.24816700620795]",2017_Jan_24_1251,60.0261674756,famFaceGrey,001,1,
78,./greyInner/GeorgeClooney16_1_cut.png,0,216,216,77,,,2.nein,2.266,None,dummy,1.642,None,None,None,None,None,,['return'],[0.2836457851171872],2017_Jan_24_1251,60.0261674756,famFaceGrey,001,1,
39,./greyInner/CarenMiosga6_2_cut.png,0,217,217,38,,,2.nein,1.434,None,None,None,host,1.046,None,None,None,,['return'],[0.23340104913040705],2017_Jan_24_1251,60.0261674756,famFaceGrey,001,1,
16,./greyInner/BastianSchweinsteiger1_1_cut.png,0,218,218,15,,,1.ja,1.319,None,None,None,None,None,sport,0.974,None,Schweinsteiger,"['lshift', 's', 'c', 'h', 'w', 'e', 'i', 'n', 's', 't', 'e', 'i', 'g', 'e', 'r', 'return']","[1.232955491379471, 1.3831132650157087, 1.6996148443558923, 1.8330255488399416, 2.049515933100338, 2.166119904113657, 2.2326392063241656, 2.36608583771158, 2.449422458998015, 2.565987936901365, 2.6660417951788986, 2.7991852933228074, 2.882614618849402, 2.999136150452614, 3.1157279319813824, 4.148661995528528]",2017_Jan_24_1251,60.0261674756,famFaceGrey,001,1,
31,./greyInner/BritneySpears1_1_cut.png,0,219,219,30,,,1.ja,1.114,None,None,None,music,0.56,None,None,None,Britney Spears,"['lshift', 'b', 'r', 'i', 't', 'n', 'e', 'y', 'space', 'lshift', 's', 'p', 'e', 'a', 'r', 's', 'return']","[0.6834217552150221, 0.8166839404493658, 1.0332657458475296, 1.1666632985197793, 1.3832316313291813, 1.5998750257022039, 1.732960784182069, 1.9996465049371182, 2.1493324171970016, 2.316142631087132, 2.4493862113195064, 2.8160757493078563, 2.9991698319227, 3.148901935914182, 3.265822512759769, 3.4154911031200754, 4.815211578983508]",2017_Jan_24_1251,60.0261674756,famFaceGrey,001,1,
219,./greyInner/notfamousface4_2_cut.png,0,220,220,218,,,2.nein,1.532,None,act,1.157,None,None,None,None,None,,['return'],[0.18378343006406794],2017_Jan_24_1251,60.0261674756,famFaceGrey,001,1,
70,./greyInner/EmmaWatson(HermioneGranger)9_1_cut.png,0,221,221,69,,,1.ja,2.486,None,act,2.479,None,None,None,None,None,Emma Watson,"['lshift', 'e', 'm', 'm', 'a', 'space', 'lshift', 'w', 'a', 't', 's', 'o', 'n', 'return']","[0.8666374119038665, 0.9499737124133389, 1.383237084519351, 1.5336373647496657, 1.6665033917252003, 1.7830278103101591, 1.965859498222926, 2.1161552055036736, 2.2994119215090905, 2.4658169954145706, 2.5993752568210766, 2.7827150537905254, 2.9325129168446438, 4.132172509440352]",2017_Jan_24_1251,60.0261674756,famFaceGrey,001,1,
145,./greyInner/MariskaHargitay(Liv)8_8_cut.png,0,222,222,144,,,2.nein,1.719,None,None,None,host,1.719,None,None,None,,['return'],[0.3171312624690472],2017_Jan_24_1251,60.0261674756,famFaceGrey,001,1,
22,./greyInner/BenedictCumberbatch2_2_cut.png,0,223,223,21,,,2.nein,1.741,None,dummy,0.974,None,None,None,None,None,,['return'],[0.350438709185255],2017_Jan_24_1251,60.0261674756,famFaceGrey,001,1,
