num,pic,trials.thisRepN,trials.thisTrialN,trials.thisN,trials.thisIndex,key_resp_2.keys,key_resp_2.rt,ratingBekannt.response,ratingBekannt.rt,key_resp_5.keys,ratingK1.response,ratingK1.rt,ratingK2.response,ratingK2.rt,ratingK3.response,ratingK3.rt,key_resp_6.keys,inputText,key_resp_4.keys,key_resp_4.rt,date,frameRate,expName,session,participant,
,,,,,,space,35.0505026398,,,,,,,,,,,,,,2017_Feb_20_1627,60.0123010701,famFaceGrey,001,20,
147,./greyInner/MilaKunis10_1_cut.png,0,0,0,146,,,1.ja,12.295,None,act,5.143,None,None,None,None,None,,['return'],[5.148405054016621],2017_Feb_20_1627,60.0123010701,famFaceGrey,001,20,
53,./greyInner/DannFlorek(DonaldDonCragen)2_1_cut.png,0,1,1,52,,,2.nein,8.524,None,None,None,None,None,polit,7.925,None,,['return'],[1.9496237458843098],2017_Feb_20_1627,60.0123010701,famFaceGrey,001,20,
145,./greyInner/MariskaHargitay(Liv)8_8_cut.png,0,2,2,144,,,2.nein,7.667,None,None,None,host,3.56,None,None,None,,['return'],[2.016419877716544],2017_Feb_20_1627,60.0123010701,famFaceGrey,001,20,
10,./greyInner/AngelaMerkel6_1_cut.png,0,3,3,9,,,1.ja,3.562,None,None,None,None,None,polit,1.726,None,Angela Merkel,"['lshift', 'a', 'n', 'g', 'e', 'l', 'a', 'space', 'lshift', 'm', 'e', 'r', 'k', 'e', 'l', 'return']","[1.599861553113442, 1.9996670345972234, 2.166356636742421, 3.0991784607977024, 3.2487062305262953, 3.4655869990820065, 3.615796417638194, 3.8156616275991837, 3.9153498013292847, 4.315330426463333, 4.648461029417376, 4.7819788730557775, 5.015079996705026, 5.1481737745816645, 5.248378076761583, 7.031016785884276]",2017_Feb_20_1627,60.0123010701,famFaceGrey,001,20,
105,./greyInner/JimParsons(SheldonCooper)9_3_cut.png,0,4,4,104,,,1.ja,41.793,None,None,None,music,5.427,None,None,None,,['return'],[0.9502620899620524],2017_Feb_20_1627,60.0123010701,famFaceGrey,001,20,
166,./greyInner/RobertSeanLeonard(Wilson)1_1_cut.png,0,5,5,165,,,1.ja,9.29,None,dummy,2.557,None,None,None,None,None,,['return'],[1.2832720811711624],2017_Feb_20_1627,60.0123010701,famFaceGrey,001,20,
115,./greyInner/JoshRadnor(Ted)9_1_cut.png,0,6,6,114,,,1.ja,9.409,None,dummy,0.828,None,None,None,None,None,aus einer amerikanischen Serie,"['a', 'u', 's', 'space', 'e', 'i', 'n', 'e', 'r', 'space', 'a', 'm', 'e', 'r', 'i', 'k', 'a', 'n', 'i', 's', 'c', 'h', 'e', 'n', 'space', 'lshift', 's', 'e', 'r', 'i', 'e', 'return']","[1.4830593425831466, 1.599467319509131, 1.8329010877823748, 1.9993837894580793, 3.1156904011950246, 3.23242428645608, 3.3822648127097636, 3.4655635824383353, 3.5821203993909876, 3.7321982998219028, 4.148606501294125, 4.381724305287207, 4.498549932461174, 4.615079483461159, 5.014941742279916, 5.314776446448377, 5.448183943175536, 5.631109297657531, 5.831269621459796, 6.031056562096637, 6.147879302287038, 6.247900762195059, 6.414460450094339, 6.5140353899223555, 6.73100693806191, 7.4473454349245, 8.430204773721925, 8.696900438531884, 8.813404969008843, 9.02993416715617, 9.180050881474017, 10.712491110494739]",2017_Feb_20_1627,60.0123010701,famFaceGrey,001,20,
50,./greyInner/CristinMilioti(Tracy_Mutter)9_1_cut.png,0,7,7,49,,,2.nein,7.749,None,None,None,host,5.034,None,None,None,,['return'],[1.2500454699875263],2017_Feb_20_1627,60.0123010701,famFaceGrey,001,20,
150,./greyInner/MilaKunis7_3_cut.png,0,8,8,149,,,1.ja,11.553,None,None,None,host,11.003,None,None,None,die Frau von Giovanni Zarella,"['d', 'i', 'e', 'space', 'lshift', 'f', 'r', 'a', 'u', 'space', 'v', 'o', 'n', 'space', 'g', 'i', 'o', 'v', 'a', 'n', 'n', 'i', 'space', 'lshift', 'z', 'a', 'r', 'e', 'l', 'l', 'a', 'backspace', 'backspace', 'backspace', 'backspace', 'backspace', 'backspace', 'backspace', 'backspace', 'backspace', 'backspace', 'backspace', 'backspace', 'backspace', 'backspace', 'backspace', 'backspace', 'lshift', 'g', 'i', 'o', 'v', 'a', 'n', 'n', 'i', 'space', 'lshift', 'z', 'a', 'r', 'e', 'l', 'l', 'a', 'return']","[1.4830894955193799, 1.666410366709897, 1.816284253654885, 2.049576880526729, 4.265277514474292, 4.464996129838255, 4.698550830635213, 4.915023892994213, 5.0480875179346185, 5.181536394757131, 6.097839542111615, 6.197769260110363, 6.414490923805715, 6.580986456519895, 7.197445276429789, 7.4970859111708705, 7.6969261006088345, 8.263537946670112, 8.480127450689906, 8.680110706187406, 8.89653565215849, 9.080006325701106, 9.26321524609375, 9.56304321396965, 9.779571129012766, 9.962910284430109, 10.21277515757538, 10.296108571099467, 10.814000008340372, 10.945802021593408, 11.02912067942816, 14.744416333782283, 15.093987985659624, 15.277383597636799, 15.410481224826071, 15.577116295065935, 15.743944151628966, 15.87713031297244, 16.04372207846245, 16.19382243320797, 16.3603038517831, 16.526842047693208, 16.6768978145883, 16.860089733854693, 17.010104120654432, 17.1766955653693, 17.34323857292111, 17.77631397033838, 18.30946375568965, 18.7758857344852, 18.942603885687276, 19.42568279560146, 19.659046955501253, 19.9256178384785, 20.05881201921875, 20.225424955919152, 20.408758658144507, 20.575183620156167, 20.891905251777644, 21.02504169285021, 21.358302851604094, 21.408134428205813, 21.79137889057165, 21.90799280563806, 22.174570424911508, 22.95756647840244]",2017_Feb_20_1627,60.0123010701,famFaceGrey,001,20,
61,./greyInner/EmilyDeschanel15_1_cut.png,0,9,9,60,,,1.ja,11.238,None,act,0.86,None,None,None,None,None,aus einer amerikanischen Serie irgendwas mit Vampieren,"['a', 'u', 's', 'space', 'e', 'i', 'n', 'e', 'r', 'space', 'a', 'm', 'e', 'r', 'i', 'k', 'a', 'n', 'i', 's', 'c', 'h', 'e', 'n', 'space', 'lshift', 's', 'e', 'r', 'i', 'e', 'space', 'lshift', '8', 'i', 'r', 'g', 'e', 'n', 'd', 'w', 'a', 's', 'space', 'm', 'i', 't', 'space', 'lshift', 'v', 'a', 'm', 'p', 'i', 'e', 'r', 'e', 'n', 'lshift', '9', 'return']","[2.649440358294669, 2.782369898901379, 2.9325366542652773, 3.0991884048489737, 3.2322122535770177, 3.6156212739879265, 3.798897878099524, 3.915620536205097, 4.032054816758318, 4.232043204669026, 5.048362743673351, 5.464818099204422, 5.598114607462776, 5.697998454503249, 5.897614742349106, 6.1477631814050255, 6.264543579174642, 6.597688617042877, 6.797668023231381, 6.980903568022768, 7.080763356869284, 7.147396534532163, 7.297385580033733, 7.4306666910488275, 7.797157668745058, 8.280357511179318, 8.53021372337389, 8.76343930807343, 8.930055131757399, 9.079802312218817, 9.529909948578279, 9.896372056442488, 10.012806016216928, 10.179589926483459, 10.52934153364913, 10.729386057348165, 10.912514783762163, 11.079112002440525, 11.212427115704486, 11.412423202236823, 11.628907812530088, 11.795452744736394, 11.878796423094172, 12.128677655808133, 12.361951356899226, 12.545156107207731, 12.728611062728305, 12.861708369142434, 13.261164525651111, 13.395015013917146, 13.56154871896797, 13.794717847107677, 14.477608397402946, 14.710891400995024, 14.81098728091456, 15.044175655610161, 15.160913069408707, 15.310938362588786, 15.527287605444144, 15.710523791789456, 19.758897441846784]",2017_Feb_20_1627,60.0123010701,famFaceGrey,001,20,
91,./greyInner/JanHofer1_3_cut.png,0,10,10,90,,,2.nein,4.51,None,None,None,None,None,polit,5.011,None,,['return'],[1.3336858660695725],2017_Feb_20_1627,60.0123010701,famFaceGrey,001,20,
118,./greyInner/JudithRakers4_3_cut.png,0,11,11,117,,,2.nein,5.71,None,None,None,None,None,sport,3.661,None,,['return'],[1.3004910116978863],2017_Feb_20_1627,60.0123010701,famFaceGrey,001,20,
176,./greyInner/Shakira1_1_cut.png,0,12,12,175,,,2.nein,5.124,None,None,None,music,10.372,None,None,None,,['return'],[1.2497859622708347],2017_Feb_20_1627,60.0123010701,famFaceGrey,001,20,
135,./greyInner/LeonardoDiCaprio7_1_cut.png,0,13,13,134,,,1.ja,7.751,None,act,1.217,None,None,None,None,None,Leonardo DiCaprio,"['lshift', 'l', 'e', 'o', 'n', 'a', 'r', 'd', 'o', 'space', 'lshift', 'd', 'i', 'lshift', 'c', 'a', 'p', 'r', 'i', 'o', 'return']","[1.2997243572535808, 1.4497255922397017, 1.59953789021165, 1.7662329455488361, 1.9661526874115225, 2.1495130140392575, 2.3991177379139117, 2.6824838064312644, 2.899081650622975, 3.049075507766247, 3.1988387270212115, 3.4821691894103424, 3.848822800497146, 3.981892199404683, 4.248608073095966, 5.348166332580149, 5.531441332812392, 6.164400865967764, 6.380645856650517, 6.530968829883932, 8.56351796232775]",2017_Feb_20_1627,60.0123010701,famFaceGrey,001,20,
216,./greyInner/notfamousface14_6_cut.png,0,14,14,215,,,2.nein,4.74,None,None,None,music,10.546,None,None,None,,['return'],[2.03290583526541],2017_Feb_20_1627,60.0123010701,famFaceGrey,001,20,
45,./greyInner/CobieSmulders(Robin)5_1_cut.png,0,15,15,44,,,1.ja,4.512,None,act,1.814,None,None,None,None,None,,['return'],[8.247366670293559],2017_Feb_20_1627,60.0123010701,famFaceGrey,001,20,
140,./greyInner/LisaEdelstein(DrLisaCuddy)9_1_cut.png,0,16,16,139,,,2.nein,7.127,None,None,None,host,3.462,None,None,None,,['return'],[1.4831700102768082],2017_Feb_20_1627,60.0123010701,famFaceGrey,001,20,
84,./greyInner/HughLaurie(DrHouse)8_1_cut.png,0,17,17,83,,,2.nein,7.989,None,None,None,music,1.825,None,None,None,,['return'],[1.2164926296900376],2017_Feb_20_1627,60.0123010701,famFaceGrey,001,20,
48,./greyInner/CristinMilioti(Tracy_Mutter)4_2_cut.png,0,18,18,47,,,2.nein,3.427,None,None,None,music,4.393,None,None,None,,['return'],[1.0330424858075276],2017_Feb_20_1627,60.0123010701,famFaceGrey,001,20,
79,./greyInner/GeorgeClooney3_1_cut.png,0,19,19,78,,,1.ja,3.478,None,act,1.746,None,None,None,None,None,George Clooney,"['lshift', 'g', 'e', 'o', 'r', 'g', 'e', 'space', 'lshift', 'c', 'l', 'o', 'o', 'n', 'e', 'y', 'return']","[1.5334837130867527, 1.6999253554458846, 1.916541483864421, 2.183080289250938, 2.8828167076790123, 3.0993382072047098, 3.1993535723704554, 3.415977720189403, 3.5656190445952234, 3.76581721995899, 4.1156127734248, 4.331977413527056, 4.465531184072461, 4.798372126369941, 5.348349816405971, 5.732895025121252, 8.463609415543033]",2017_Feb_20_1627,60.0123010701,famFaceGrey,001,20,
199,./greyInner/UrsulavonderLeyen7_1_cut.png,0,20,20,198,,,1.ja,5.529,None,None,None,None,None,polit,2.913,None,ehemalige Familienministerin jetzt Verteidigungsministerin,"['e', 'h', 'e', 'm', 'a', 'l', 'i', 'g', 'e', 'space', 'lshift', 'f', 'a', 'm', 'i', 'l', 'i', 'e', 'n', 'm', 'i', 'backspace', 'i', 'n', 'i', 's', 't', 'e', 'r', 'i', 'n', 'comma', 'space', 'j', 'e', 't', 'z', 't', 'space', 'lshift', 'v', 'e', 'r', 't', 'e', 'i', 'd', 'i', 'g', 'u', 'n', 'g', 's', 'm', 'e', 'backspace', 'i', 'n', 'i', 's', 't', 'e', 'r', 'i', 'n', 'return']","[8.080597194944858, 8.180448643615819, 8.297069615753571, 8.513672271586984, 8.680295152338658, 8.863353308050137, 9.063433758652536, 9.596408079578396, 9.76323625691657, 9.862909354178555, 10.012922778652865, 10.213024721237161, 10.346158916883724, 10.562878976699722, 10.746160392453021, 11.02940007525467, 11.229290305735049, 11.712540509990504, 11.845662195373734, 12.29532106622355, 12.512026049571432, 13.611470112828101, 14.577843173297879, 14.761016487562301, 15.010946798993245, 15.49408633555504, 16.143960062116093, 16.31046746353968, 16.376821566151193, 16.643765190747217, 16.826791589643108, 17.343446756491176, 18.293057671340648, 18.50955415034332, 18.592900715684664, 18.876035825538565, 19.05938845354467, 19.192667960676772, 19.342607927464996, 19.692351515233895, 19.859014813755493, 20.042298795713577, 20.12559660311308, 20.342151784108864, 20.475380608648265, 20.592109682271257, 21.225147484750778, 21.40837725557867, 21.741686851491977, 21.958161196958827, 22.141407968909334, 22.274844335468515, 22.841104290346266, 23.174264404682617, 23.307409185934375, 24.123889112899633, 24.78988984875832, 25.023564519746287, 25.19007609125765, 25.62330032870159, 25.889939536948077, 26.0562214329002, 26.123034886626556, 26.65634441838847, 26.855982839773787, 28.871876644981967]",2017_Feb_20_1627,60.0123010701,famFaceGrey,001,20,
81,./greyInner/HughLaurie(DrHouse)2_1_cut.png,0,21,21,80,,,1.ja,6.031,None,act,1.034,None,None,None,None,None,Hugh Laurie    Dr House,"['lshift', 'h', 'u', 'g', 'h', 'space', 'lshift', 'l', 'a', 'u', 'r', 'i', 'e', 'space', 'lshift', 'd', 'r', 'period', 'space', 'lshift', 'h', 'o', 'u', 's', 'e', 'backspace', 'backspace', 'backspace', 'backspace', 'backspace', 'backspace', 'backspace', 'backspace', 'space', 'space', 'space', 'lshift', 'd', 'r', 'space', 'lshift', 'h', 'o', 'u', 's', 'e', 'return']","[0.7668379289279983, 0.9332715518903569, 1.1501584151883435, 1.6997803647282126, 1.7663731246248062, 1.9330037039981107, 2.082802529381297, 2.2828528270474635, 2.4992193918042176, 2.6827234260417754, 3.015853708217037, 3.182598804596637, 3.299298366833682, 4.431980909983395, 4.515206542801025, 4.64848220062413, 4.915115314131981, 6.597737695756223, 7.097545711370913, 7.230794744791638, 7.44742723278614, 7.747436759829725, 7.93055201365496, 8.146898369526753, 8.331188304768148, 11.412437637151015, 11.579000212033861, 11.712313079864543, 11.845441822315479, 11.99542316919542, 12.145463859622396, 12.245276173631282, 12.445345717849705, 13.161901380011841, 13.378155031641654, 13.528288105531828, 14.194634317056625, 14.294608302130655, 15.34418454110346, 16.060642045831628, 16.19369636827105, 17.276855921252718, 17.60992012358838, 17.809708668104577, 18.159651136942557, 18.32641387599506, 21.208522310447734]",2017_Feb_20_1627,60.0123010701,famFaceGrey,001,20,
209,./greyInner/WillSmith5_1_cut.png,0,22,22,208,,,1.ja,10.241,None,act,8.825,None,None,None,None,None,Will Smith,"['lshift', 'w', 'i', 'l', 'l', 'space', 'lshift', 's', 'm', 'i', 't', 'h', 'return']","[1.3503482503765554, 1.5334939779131673, 1.7003369109479536, 1.9166614540590672, 2.066532133245346, 2.1666228807553125, 2.316235335329111, 2.4663655222357193, 2.633204285182728, 2.8331105544566526, 3.1163325945854012, 3.2494010311675083, 3.949323499626189]",2017_Feb_20_1627,60.0123010701,famFaceGrey,001,20,
75,./greyInner/GuentherJauch9_1_cut.png,0,23,23,74,,,1.ja,2.753,None,None,None,host,2.253,None,None,None,Günther Jauch,"['lshift', 'g', u'\xfc', 'n', 't', 'h', 'e', 'r', 'space', 'lshift', 'j', 'a', 'u', 'c', 'h', 'return']","[0.5170035294977424, 1.1332195220384165, 2.099544145345135, 2.415569051667262, 2.6819853206543485, 2.7652378986495023, 2.881979482532188, 2.9485927720852487, 3.082288325585978, 3.2489432839320216, 3.3992046681887587, 3.5488678053588956, 3.649056068745267, 4.065291692772007, 4.215351308976096, 5.06500395677358]",2017_Feb_20_1627,60.0123010701,famFaceGrey,001,20,
143,./greyInner/MariskaHargitay(Liv)4_4_cut.png,0,24,24,142,,,2.nein,3.527,None,None,None,host,8.042,None,None,None,,['return'],[1.166832988979877],2017_Feb_20_1627,60.0123010701,famFaceGrey,001,20,
33,./greyInner/BritneySpears5_1_cut.png,0,25,25,32,,,1.ja,9.674,None,None,None,music,13.556,None,None,None,Brittney Spears,"['lshift', 'b', 'r', 'i', 't', 'n', 'e', 'y', 'space', 'lshift', 's', 'p', 'e', 'r', 'c', 'e', 'backspace', 'backspace', 'backspace', 'a', 'r', 's', 'left', 'left', 'left', 'left', 'left', 't', 'backspace', 'backspace', 'backspace', 'backspace', 'backspace', 'backspace', 'backspace', 'backspace', 'backspace', 'backspace', 'backspace', 't', 'n', 'e', 'y', 'space', 'lshift', 's', 'p', 'e', 'a', 'r', 's', 'return']","[1.0665885898088163, 1.4001150302465248, 2.0828727793086728, 2.5826814364736492, 2.9992420065063925, 3.682091176706308, 3.798859384991374, 4.082140447888378, 4.198387395303143, 4.431928302732558, 4.61515582813081, 4.865301380203164, 5.115026395047607, 5.831352060875361, 6.197852661847719, 6.347805459670781, 7.147473520752101, 7.29752543833456, 7.43071544898703, 8.746878288955486, 9.046582758102886, 9.529821414424077, 13.46109902320677, 13.644868659903295, 13.811360664083622, 13.927913952502422, 14.111396173979301, 14.644443952587608, 15.644110666409688, 15.827418065011443, 15.977183208920906, 17.376626213615964, 17.5765472385865, 17.74315119356106, 17.909773111987306, 18.09298973100158, 18.27631509305502, 18.426201490263338, 18.759268258807424, 19.725751024638157, 20.40866082148932, 20.80836108847143, 21.141716876118153, 21.324952420913178, 21.708247565871716, 21.958191991445347, 22.341310709649406, 22.457880678415677, 22.674570906074223, 22.89113121948685, 23.140726640856883, 23.990278885790758]",2017_Feb_20_1627,60.0123010701,famFaceGrey,001,20,
93,./greyInner/JanHofer5_1_cut.png,0,26,26,92,,,1.ja,7.075,None,None,None,host,1.378,None,None,None,Moderator von Hart aber fair,"['lshift', 'm', 'o', 'd', 'e', 'r', 'a', 't', 'o', 'r', 'space', 'v', 'o', 'n', 'space', 'lshift', 'h', 'a', 'r', 't', 'space', 'a', 'b', 'e', 'r', 'space', 'f', 'a', 'i', 'r', 'return']","[1.2504647241112252, 1.4171677988451847, 1.6504498401081946, 2.0668525883884286, 2.2168044238824223, 2.3165699046112422, 2.533203996481461, 2.7831073627348815, 3.0830443944250874, 3.299682014832797, 3.4497477257791616, 3.5995635522849625, 3.7828177020819567, 3.965961825739214, 4.132817910587619, 4.2492871557151375, 4.3493657137369155, 4.515871511281148, 4.782276553109114, 5.032361478533858, 5.165563678670878, 5.3323254553979496, 5.565469563014631, 5.715387396263395, 5.815415913242759, 5.9483287735019985, 6.09859849793429, 6.31515335815493, 6.448397259162448, 6.898128304594138, 7.4979863291700894]",2017_Feb_20_1627,60.0123010701,famFaceGrey,001,20,
170,./greyInner/RobertSeanLeonard(Wilson)8_1_cut.png,0,27,27,169,,,2.nein,7.458,None,None,None,music,3.594,None,None,None,,['return'],[1.1508057409919275],2017_Feb_20_1627,60.0123010701,famFaceGrey,001,20,
5,./greyInner/AlysonHannigan(Lily)8_3_cut.png,0,28,28,4,,,1.ja,6.417,None,dummy,0.969,None,None,None,None,None,How I met your mother,"['lshift', 'h', 'o', 'w', 'space', 'lshift', 'i', 'space', 'm', 'e', 't', 'space', 'y', 'o', 'u', 'r', 'space', 'm', 'o', 't', 'h', 'e', 'r', 'return']","[4.765217048210616, 4.931953483639518, 5.18183182937355, 5.398375141659926, 5.548255444125971, 5.731373584934772, 5.848189268053829, 6.031181343929347, 6.231364763596503, 6.3813496390139335, 6.631288932170719, 6.764410296778806, 7.280932983172534, 7.447171253599663, 7.647431338715251, 7.880678415403963, 7.997004594471946, 8.213804848270229, 8.946833957721537, 9.163096270305687, 9.279940181706479, 9.596567825981765, 9.646344229127862, 12.695421661548608]",2017_Feb_20_1627,60.0123010701,famFaceGrey,001,20,
41,./greyInner/CobieSmulders(Robin)12_1_cut.png,0,29,29,40,,,1.ja,7.091,None,act,0.861,None,None,None,None,None,die andere aus How I met your mother,"['d', 'i', 'e', 'space', 'a', 'n', 'd', 'e', 'r', 'e', 'space', 'a', 'u', 's', 'space', 'lshift', 'h', 'o', 'w', 'space', 'lshift', 'i', 'space', 'm', 'e', 't', 'space', 'y', 'o', 'u', 'r', 'space', 'm', 'o', 't', 'h', 'e', 'r', 'return']","[1.000223260038183, 1.116801889755152, 1.233495678025065, 1.3168611691435217, 1.483444273682835, 1.5500456945301266, 1.7333912654648884, 1.899857607568265, 1.983190700320847, 2.116325537514058, 2.28305427432133, 2.4495902248017956, 2.6328616965001856, 2.9662357683737355, 3.0993978715232515, 3.399138267570379, 3.66588942661474, 4.0324095949217735, 4.165787259484205, 4.298969250739901, 4.48223174071245, 4.632117175591702, 4.848785911264713, 5.0485638701720745, 5.249426051686896, 5.481810561930615, 5.598499538562464, 6.281468678957026, 6.448197736539441, 6.614709628825949, 7.081268899713905, 7.197947290740558, 7.39770568232052, 7.614417722739745, 7.914250502253708, 8.030780374028836, 8.280643322519609, 8.397407039941754, 9.713423926867108]",2017_Feb_20_1627,60.0123010701,famFaceGrey,001,20,
120,./greyInner/JudithRakers8_1_cut.png,0,30,30,119,,,2.nein,6.239,None,None,None,None,None,sport,2.524,None,,['return'],[1.1001609974337043],2017_Feb_20_1627,60.0123010701,famFaceGrey,001,20,
86,./greyInner/Ice-T(OdafinFinTutuola)10_1_cut.png,0,31,31,85,,,2.nein,5.028,None,None,None,None,None,sport,3.179,None,,['return'],[1.2167434764596692],2017_Feb_20_1627,60.0123010701,famFaceGrey,001,20,
156,./greyInner/NicoleKidman14_1_cut.png,0,32,32,155,,,1.ja,9.358,None,act,7.343,None,None,None,None,None,,['return'],[1.1668679535578121],2017_Feb_20_1627,60.0123010701,famFaceGrey,001,20,
4,./greyInner/AlysonHannigan(Lily)5_4_cut.png,0,33,33,3,,,1.ja,6.566,None,act,0.686,None,None,None,None,None,how I met your mother,"['h', 'o', 'w', 'space', 'lshift', 'i', 'space', 'm', 'e', 't', 'space', 'y', 'o', 'u', 'r', 'space', 'm', 'o', 't', 'h', 'e', 'r', 'return']","[0.9832410621384042, 1.3830837536297622, 1.5496735944652755, 1.683003142639791, 2.066105180500017, 2.249247058723995, 2.565833322907565, 3.2156858782582276, 3.315561064348003, 3.51553726277416, 3.6322788466568454, 4.166822724149824, 4.3153875245734525, 4.51519724030004, 4.848442681031884, 4.981534855029167, 5.331546290690312, 5.598180687302374, 5.89791883791986, 5.997835724876495, 6.2477663570862205, 6.347761192591861, 7.9637670769079705]",2017_Feb_20_1627,60.0123010701,famFaceGrey,001,20,
63,./greyInner/EmilyDeschanel5_1_cut.png,0,34,34,62,,,1.ja,14.988,None,act,5.026,None,None,None,None,None,,['return'],[0.7335073863469006],2017_Feb_20_1627,60.0123010701,famFaceGrey,001,20,
42,./greyInner/CobieSmulders(Robin)2_1_cut.png,0,35,35,41,,,1.ja,2.592,None,act,0.777,None,None,None,None,None,die andere aus How I met your Mother,"['d', 'i', 'e', 'space', 'a', 'n', 'd', 'e', 'r', 'e', 'space', 'a', 'u', 's', 'space', 'lshift', 'h', 'o', 'w', 'space', 'lshift', 'i', 'space', 'm', 'e', 't', 'space', 'y', 'o', 'u', 'r', 'space', 'lshift', 'm', 'o', 't', 'h', 'e', 'r', 'return']","[1.449892074942909, 1.5830458379168704, 1.6330644268782635, 1.799591716411669, 1.9163673025395838, 2.0325225080450764, 2.16624372361548, 2.3327947505640623, 2.416148693751893, 2.5325326124839194, 2.7658043889205146, 2.982486276403506, 3.165711235593335, 3.5822021972489893, 3.6822772267369146, 3.782086653765873, 3.9488275800576957, 4.2152412828327215, 4.58180058580183, 4.714574870864453, 4.848464173017419, 5.048279983486282, 5.2646346795336285, 5.464703261422983, 5.598147647378937, 5.864717888805899, 5.9978979554070975, 6.547678368249763, 6.747611582704849, 6.914144646201748, 7.1806302027835045, 7.314151254184253, 7.613866308936849, 7.94709378621701, 8.113740083612356, 8.363719473760284, 8.480228495100164, 8.696819282224169, 8.796878593690053, 9.413175100988155]",2017_Feb_20_1627,60.0123010701,famFaceGrey,001,20,
26,./greyInner/Beyonce1_1_cut.png,0,36,36,25,,,2.nein,5.732,None,act,2.402,None,None,None,None,None,,['return'],[0.8834868085723429],2017_Feb_20_1627,60.0123010701,famFaceGrey,001,20,
65,./greyInner/EmilyDeschanel8_3_cut.png,0,37,37,64,,,2.nein,10.928,None,act,4.752,None,None,None,None,None,,['return'],[1.2001898351882119],2017_Feb_20_1627,60.0123010701,famFaceGrey,001,20,
106,./greyInner/JoachimLoew1_1_cut.png,0,38,38,105,,,1.ja,3.869,None,None,None,None,None,sport,3.985,None,Jogi Löw,"['lshift', 'j', 'o', 'g', 'i', 'space', 'lshift', 'l', u'\xf6', 'w', 'return']","[2.865253263815248, 3.3815517278453626, 3.565015665091778, 4.181537357082561, 4.347910994947597, 4.581404427543021, 4.814445566091308, 5.247722731561225, 5.781008205129183, 6.047229442356183, 6.647093240899267]",2017_Feb_20_1627,60.0123010701,famFaceGrey,001,20,
185,./greyInner/SigmarGabriel8_2_cut.png,0,39,39,184,,,2.nein,5.634,None,None,None,None,None,sport,1.482,None,,['return'],[0.9501716311533528],2017_Feb_20_1627,60.0123010701,famFaceGrey,001,20,
128,./greyInner/KatjaBurkard4_1_cut.png,0,40,40,127,,,1.ja,3.318,None,None,None,host,1.268,None,None,None,,['return'],[5.28178368090812],2017_Feb_20_1627,60.0123010701,famFaceGrey,001,20,
54,./greyInner/DannFlorek(DonaldDonCragen)5_1_cut.png,0,41,41,53,,,2.nein,4.21,None,None,None,None,None,polit,0.662,None,,['return'],[1.0499323002404708],2017_Feb_20_1627,60.0123010701,famFaceGrey,001,20,
74,./greyInner/GuentherJauch7_1_cut.png,0,42,42,73,,,1.ja,3.111,None,None,None,host,1.695,None,None,None,Günther Jauch,"['lshift', 'g', u'\xfc', 'n', 't', 'h', 'e', 'r', 'space', 'lshift', 'j', 'a', 'u', 'c', 'h', 'return']","[0.7333636787370779, 0.9827894096488308, 2.082920254146302, 2.832580311864149, 3.165730482149229, 3.332328021606372, 3.5822374826020678, 3.615271949012822, 3.832223929821339, 3.932031752967305, 4.081911413879425, 4.282119533298101, 4.365207553248183, 4.665175700196414, 4.831716783093725, 5.548018069948739]",2017_Feb_20_1627,60.0123010701,famFaceGrey,001,20,
43,./greyInner/CobieSmulders(Robin)3_4_cut.png,0,43,43,42,,,1.ja,3.074,None,act,1.175,None,None,None,None,None,die andere aus How I met your mother,"['d', 'i', 'e', 'space', 'a', 'n', 'd', 'e', 'r', 'e', 'space', 'a', 'u', 's', 'space', 'lshift', 'h', 'o', 'w', 'space', 'lshift', 'i', 'space', 'm', 'e', 't', 'space', 'y', 'o', 'u', 'r', 'space', 'm', 'o', 't', 'h', 'e', 'r', 'return']","[1.7165248676719784, 1.816159471825813, 1.8997446944486, 2.0330075212332304, 2.165987744436279, 2.2662116139508726, 2.3828194342750066, 2.566036053289281, 2.6160931353661, 2.749344093441323, 2.9493764276558068, 3.115916868999193, 3.349088884122466, 3.5490253063362616, 3.73223903836697, 3.8319278536473576, 3.982203031271638, 4.265315366035793, 4.398826473381632, 4.5816709923310555, 4.698551151410356, 4.948443290508294, 5.115171385761641, 5.314994574076991, 5.414920763538248, 5.681594294808747, 5.79819313340704, 6.3979000725303194, 6.513920231369411, 6.680886663132696, 7.0140291347961465, 7.1475902831844, 7.314204182213871, 7.5140488625147555, 7.9470427828491665, 8.063882844937325, 8.347072807475342, 8.44707181306876, 8.846892691795802]",2017_Feb_20_1627,60.0123010701,famFaceGrey,001,20,
168,./greyInner/RobertSeanLeonard(Wilson)11_2_cut.png,0,44,44,167,,,1.ja,6.341,None,act,1.227,None,None,None,None,None,spielt Wilson in Dr House,"['s', 'p', 'i', 'e', 'l', 't', 'space', 'lshift', 'w', 'i', 'l', 's', 'o', 'n', 'space', 'i', 'n', 'space', 'lshift', 'd', 'r', 'space', 'lshift', 'h', 'o', 'u', 's', 'e', 'return']","[1.3169333437253954, 1.4666131612430036, 1.716608590188116, 1.8332924344031198, 1.9662716952771007, 2.1497426895984972, 2.26629629879244, 3.349273651048861, 3.465798069635639, 3.6159074061069987, 3.7992038983247767, 3.915612837579829, 4.648514919768786, 4.848737474101654, 5.215217224642402, 5.481626436554507, 5.681628617832757, 5.831634664456942, 6.16470720696816, 6.481366608062672, 6.7646361230254115, 7.080855419557338, 7.247638046719658, 7.44754527832265, 7.74759843089123, 7.947314159275265, 8.163966856151092, 8.347076656784338, 10.979367692925734]",2017_Feb_20_1627,60.0123010701,famFaceGrey,001,20,
184,./greyInner/SigmarGabriel4_5_cut.png,0,45,45,183,,,2.nein,8.205,None,None,None,None,None,polit,0.923,None,,['return'],[1.1995739454250725],2017_Feb_20_1627,60.0123010701,famFaceGrey,001,20,
40,./greyInner/CarenMiosga9_1_cut.png,0,46,46,39,,,2.nein,6.893,None,None,None,host,2.212,None,None,None,,['return'],[0.8673549876330071],2017_Feb_20_1627,60.0123010701,famFaceGrey,001,20,
52,./greyInner/DannFlorek(DonaldDonCragen)10_1_cut.png,0,47,47,51,,,2.nein,2.419,None,None,None,host,2.984,None,None,None,,['return'],[0.8665700489582377],2017_Feb_20_1627,60.0123010701,famFaceGrey,001,20,
138,./greyInner/LisaEdelstein(DrLisaCuddy)2_2_cut.png,0,48,48,137,,,1.ja,7.939,None,act,1.508,None,None,None,None,None,spielt die Klinikleitende aerztin in Dr House,"['s', 'p', 'i', 'e', 'l', 't', 'space', 'lshift', 'c', 'a', 'r', 'r', 'y', 'backspace', 'backspace', 'backspace', 'backspace', 'backspace', 'd', 'i', 'e', 'space', 'lshift', 'k', 'l', 'i', 'n', 'i', 'k', 'l', 'e', 'i', 't', 'e', 'n', 'd', 'e', 'space', 'lshift', u'\xc4', 'r', 'z', 't', 'i', 'n', 'space', 'i', 'n', 'space', 'lshift', 'd', 'r', 'space', 'lshift', 'h', 'o', 'u', 's', 'e', 'backspace', 'backspace', 'backspace', 'backspace', 'backspace', 'backspace', 'backspace', 'backspace', 'backspace', 'backspace', 'backspace', 'backspace', 'backspace', 'backspace', 'backspace', 'backspace', 'backspace', 'backspace', 'backspace', 'backspace', 'backspace', 'backspace', 'lshift', 's', 'p', 'i', 'e', 'l', 't', 'space', 'd', 'i', 'e', 'space', 'lshift', 'k', 'l', 'i', 'backspace', 'backspace', 'l', 'i', 'n', 'i', 'k', 'l', 'e', 'i', 't', 'e', 'n', 'd', 'e', 'space', 'lshift', u'\xc4', 'backspace', 's', 'p', 'i', 'e', 'l', 't', 'space', 'd', 'i', 'e', 'space', 'lshift', 'lshift', 'k', 'l', 'i', 'n', 'i', 'k', 'l', 'e', 'i', 't', 'e', 'n', 'd', 'e', 'space', 'a', 'e', 'r', 't', 'z', 'backspace', 'backspace', 'z', 't', 'i', 'n', 'space', 'i', 'n', 'space', 'lshift', 'd', 'r', 'space', 'lshift', 'h', 'o', 'u', 's', 'e', 'return']","[5.931264777747856, 6.214683132737264, 6.4145172274329525, 6.547910930792568, 6.680805506824981, 6.797700742372399, 6.964434611592878, 7.214142625314707, 7.497207485241233, 7.64734633309854, 7.930633490737819, 8.063757421554328, 8.46377269048753, 10.479542034638143, 11.212496403299156, 11.395876938811853, 11.545769109987305, 11.829014245980943, 12.478454925050755, 12.611996506107971, 12.72805195030378, 12.845281755133328, 13.095157213883795, 13.194878748308838, 13.39505414857922, 13.544931884836842, 13.744750903064414, 13.911427353395993, 14.328040851454716, 14.544483119327197, 14.677771608188777, 14.794268440044107, 15.527445427196653, 15.660517392308975, 15.777380229490518, 16.14389366150135, 16.293760812153778, 16.443658115742437, 16.743548634924082, 17.22665449001215, 18.059681642731448, 19.20926586902715, 19.37590286392151, 19.55912333224842, 19.742474997925456, 19.90900421210972, 20.025573539322068, 20.192154077656596, 20.325432622463268, 20.44192207647211, 21.341686979802034, 21.59149411328326, 22.024722520811338, 22.20808797985228, 22.72453913321806, 23.00750519416397, 23.157618700723106, 23.424283891821688, 23.607197377594275, 26.02312409440856, 27.739104605348984, 27.90543076837639, 28.0557466845421, 28.20555898251405, 28.88826636975864, 29.055265841438086, 29.23862488496161, 29.40508513232635, 29.57175163860302, 30.03828075655838, 30.204806762983935, 30.38803685458697, 30.554568955754803, 30.737835295039986, 30.904476460022124, 31.10400774224763, 31.504199758714094, 31.853909665012907, 32.05390607232039, 32.23721892411049, 32.40385688133392, 32.870272444612056, 33.30301968826461, 34.25303381844424, 34.50290189934822, 34.619533457091165, 34.88602735384484, 35.635899444449024, 35.73567198224555, 36.052360253168445, 36.168877293908736, 36.28555568493539, 36.418998146236845, 36.90195131198925, 37.41843903381232, 37.66850888276895, 37.85169310341371, 38.73453066152797, 38.884516820045974, 39.850897899912525, 40.03414820040052, 40.217215658612986, 40.40054936083834, 40.61706669027626, 40.85042411387985, 41.000128631145344, 41.133408138277446, 41.96656841300501, 42.099808785475034, 42.19965510173279, 42.799549373990885, 42.96592974814848, 43.765604545522365, 43.91571997673964, 45.26524928619256, 46.26474630955272, 47.797581092956534, 48.61376269831817, 49.51338838489755, 49.59677055636348, 49.746670746935706, 49.87987647561022, 49.97994188181838, 50.396442145978654, 50.51317859744813, 50.66310188388525, 50.76297771152895, 51.062855078893335, 51.37933677012552, 51.69590122154841, 51.878814386545855, 52.07843933533877, 52.24566206706004, 53.12842424283372, 54.178288859355234, 54.37809921663211, 54.47822107940374, 54.59473170462661, 55.37780474434112, 55.49438561948773, 55.61081316374475, 55.844036182239506, 55.97754215717214, 56.12741187403299, 56.5938803653371, 56.777161139536474, 57.060267700337135, 57.393689247048314, 57.760207811472355, 58.293165452050744, 58.47654534600588, 58.54309929201554, 58.69296387646318, 59.45939313687268, 59.69271944521097, 59.84255868836044, 59.992437707722274, 60.19250019487299, 60.42564718947324, 61.841777598998306, 61.99162614464876, 62.274895018061216, 62.57487727915213, 62.70767818861714, 62.841474144981476, 63.22448636557965, 63.39114549401347, 63.54109797106139, 63.74096767188166, 63.99080976993719]",2017_Feb_20_1627,60.0123010701,famFaceGrey,001,20,
223,./greyInner/notfamousface8_9_cut.png,0,49,49,222,,,2.nein,4.881,None,None,None,music,1.324,None,None,None,,['return'],[0.950203708747722],2017_Feb_20_1627,60.0123010701,famFaceGrey,001,20,
175,./greyInner/SahraWagenknecht9_1_cut.png,0,50,50,174,,,2.nein,6.673,None,act,7.622,None,None,None,None,None,,['return'],[0.8833187219897809],2017_Feb_20_1627,60.0123010701,famFaceGrey,001,20,
149,./greyInner/MilaKunis5_2_cut.png,0,51,51,148,,,1.ja,4.976,None,act,1.76,None,None,None,None,None,selena gomez,"['s', 'e', 'l', 'e', 'n', 'a', 'space', 'g', 'o', 'm', 'e', 'z', 'return']","[5.331612049754767, 5.5315375655845855, 5.998059947243746, 6.16455163064893, 6.531164182415523, 6.681065335316816, 6.830892388981738, 7.2974089966737665, 7.4474634804646485, 7.630632624641294, 7.830323332502303, 8.346972083832952, 9.096618989740819]",2017_Feb_20_1627,60.0123010701,famFaceGrey,001,20,
163,./greyInner/OmarEpps(DrEricForeman)3_1_cut.png,0,52,52,162,,,1.ja,5.191,None,act,0.46,None,None,None,None,None,,['return'],[1.0666479333522147],2017_Feb_20_1627,60.0123010701,famFaceGrey,001,20,
27,./greyInner/Beyonce11_2_cut.png,0,53,53,26,,,2.nein,8.192,None,act,3.843,None,None,None,None,None,,['return'],[1.016531186956854],2017_Feb_20_1627,60.0123010701,famFaceGrey,001,20,
13,./greyInner/BarackObama2_1_cut.png,0,54,54,12,,,1.ja,1.234,None,None,None,None,None,polit,2.072,None,barak obama,"['b', 'a', 'r', 'a', 'k', 'space', 'o', 'b', 'a', 'm', 'a', 'return']","[1.0502992678921146, 1.1666902436954842, 1.3833827167873096, 1.5999731831325334, 1.799782898859121, 3.1325555158873613, 3.5491892228274082, 4.048988898266543, 4.165451086322719, 4.398762638971675, 4.465425328016863, 5.498413281919056]",2017_Feb_20_1627,60.0123010701,famFaceGrey,001,20,
12,./greyInner/BarackObama11_2_cut.png,0,55,55,11,,,1.ja,5.245,None,None,None,None,None,polit,0.94,None,barak obama,"['b', 'a', 'r', 'a', 'k', 'space', 'o', 'b', 'a', 'm', 'a', 'return']","[0.8502435170412355, 0.9668641684002068, 1.2001462096668547, 1.416724486527528, 1.6166307558050903, 1.7831420065376733, 1.9830222929667798, 2.3996742841336527, 2.5328466521095834, 2.782701260424801, 2.899509886476153, 4.132263609801157]",2017_Feb_20_1627,60.0123010701,famFaceGrey,001,20,
58,./greyInner/ElvisPresley4_10_cut.png,0,56,56,57,,,1.ja,2.368,None,None,None,music,1.109,None,None,None,elvis,"['e', 'l', 'v', 'i', 's', 'return']","[0.8836016463501437, 0.9834755493393459, 1.7831221184314927, 1.8831592963615549, 2.0330812996944587, 2.8661235288818716]",2017_Feb_20_1627,60.0123010701,famFaceGrey,001,20,
173,./greyInner/SahraWagenknecht5_1_cut.png,0,57,57,172,,,2.nein,10.089,None,dummy,1.26,None,None,None,None,None,,['return'],[1.0500067202556238],2017_Feb_20_1627,60.0123010701,famFaceGrey,001,20,
133,./greyInner/LeonardoDiCaprio3_1_cut.png,0,58,58,132,,,1.ja,5.56,None,act,0.814,None,None,None,None,None,leonardo DiCaprio,"['l', 'e', 'o', 'n', 'a', 'r', 'd', 'o', 'space', 'lshift', 'd', 'i', 'space', 'backspace', 'lshift', 'c', 'a', 'p', 'r', 'o', 'backspace', 'i', 'o', 'return']","[1.1833250412782945, 1.2997160170816642, 1.4496835705976991, 1.7495968648654525, 1.8997148622875102, 2.1162360410380643, 2.4326378590667446, 2.6159892039686383, 2.766061009657278, 3.1323277649862575, 3.932089171856205, 5.181683630900807, 6.747811746878142, 7.447322018284467, 7.763740195885475, 8.26367908807515, 8.646832770853507, 9.896296353323123, 10.379506781366217, 10.546012578906812, 11.06254553013423, 11.429140760003065, 11.512383393946948, 11.878955848726036]",2017_Feb_20_1627,60.0123010701,famFaceGrey,001,20,
82,./greyInner/HughLaurie(DrHouse)4_1_cut.png,0,59,59,81,,,1.ja,2.273,None,act,1.058,None,None,None,None,None,hugh Laurie   ,"['h', 'u', 'g', 'h', 'space', 'lshift', 'l', 'a', 'u', 'r', 'i', 'e', 'space', 'space', 'space', 'lshift', 'd', 'r', 'backspace', 'backspace', 'return']","[1.083213122557936, 1.1666177483384672, 1.5831003698222048, 1.7662140197680856, 1.932933454074373, 2.1159126989077777, 2.2992563451880415, 2.466013631052192, 2.5658714952405717, 2.8825029888284917, 3.04905016646444, 3.7155875604366884, 5.8146120487908775, 6.014550395659171, 6.147855564868223, 6.3478439527789305, 6.53103587204896, 6.764273646236688, 7.397178647486726, 7.614050755088101, 8.330418121786352]",2017_Feb_20_1627,60.0123010701,famFaceGrey,001,20,
160,./greyInner/NicoleKidman8_2_cut.png,0,60,60,159,,,2.nein,3.59,None,None,None,music,2.609,None,None,None,,['return'],[0.9999570160252915],2017_Feb_20_1627,60.0123010701,famFaceGrey,001,20,
34,./greyInner/BritneySpears7_1_cut.png,0,61,61,33,,,1.ja,1.545,None,None,None,music,1.396,None,None,None,brittney spears,"['b', 'r', 'i', 't', 't', 'n', 'e', 'y', 'space', 's', 'p', 'e', 'a', 'r', 's', 'return']","[1.0836577179798041, 1.5169955100973311, 1.616881602571084, 1.8334566716730478, 1.966683571557951, 2.683175078531349, 2.7997431226431218, 3.1163406139821745, 3.2494000688384403, 3.3995427660047426, 3.7659368693748547, 3.9822450529136404, 4.215771525425225, 4.449064473072212, 4.782204699302383, 5.531909344874293]",2017_Feb_20_1627,60.0123010701,famFaceGrey,001,20,
194,./greyInner/TomCruise6_1_cut.png,0,62,62,193,,,1.ja,3.344,None,act,2.028,None,None,None,None,None,tom cruiz,"['t', 'o', 'm', 'space', 'c', 'r', 'u', 'i', 's', 'backspace', 'z', 'return']","[0.8670326078317885, 1.1001603558797797, 1.3002369571695453, 1.483538902579312, 1.7333399413146253, 1.9663913446929655, 2.716427031016792, 2.8160548988707887, 3.032880493967241, 3.9989472134329844, 4.448994864698761, 5.248249124841095]",2017_Feb_20_1627,60.0123010701,famFaceGrey,001,20,
11,./greyInner/BarackObama1_3_cut.png,0,63,63,10,,,1.ja,10.034,None,None,None,None,None,polit,1.761,None,Barak Obama,"['lshift', 'b', 'a', 'r', 'a', 'k', 'space', 'lshift', 'o', 'b', 'a', 'm', 'a', 'return']","[0.6505165615017177, 0.9004609870753484, 1.2001766833782312, 1.5334089722964563, 1.7498858839680906, 1.9001071712373232, 2.033012974425219, 2.4828768210863927, 2.6663237572101934, 3.4325124356801098, 3.5825146329952986, 3.7490072787259123, 3.8157658797717886, 4.082157769786136]",2017_Feb_20_1627,60.0123010701,famFaceGrey,001,20,
137,./greyInner/LisaEdelstein(DrLisaCuddy)10_1_cut.png,0,64,64,136,,,1.ja,5.577,None,act,1.195,None,None,None,None,None,Die klinikleitende Aerztin aus Dr House,"['lshift', 'd', 'i', 'e', 'space', 'k', 'l', 'i', 'n', 'i', 'k', 'l', 'e', 'i', 't', 'e', 'n', 'd', 'e', 'space', 'lshift', 'a', 'e', 'r', 'z', 't', 'i', 'n', 'space', 'a', 'u', 's', 'space', 'lshift', 'd', 'r', 'space', 'lshift', 'h', 'o', 'u', 's', 'e', 'return']","[0.5337823554655188, 2.432964088173321, 2.5495196220254, 2.666237147714128, 2.79939540155101, 3.032583134692686, 3.1994366533326684, 3.39924348207569, 3.58246972436973, 3.715878183422319, 3.965678580607346, 4.248933660655894, 4.3823023434924835, 4.515415367925016, 4.9153844451284385, 5.065249350351223, 5.198531102916604, 5.398591665409185, 5.548364828719059, 5.681613541364641, 5.881656781959464, 10.729707154041535, 10.99626777218873, 11.562617544328532, 11.945853987293958, 12.179007718190405, 12.345390979335207, 12.528667583446804, 12.728706012399925, 13.461895189037023, 13.61173058287386, 14.211562303826213, 14.378069384474657, 14.611288232881634, 14.811227862854139, 15.094467224880646, 15.394334327418619, 15.644199521339033, 16.06073507084875, 16.394046912195336, 16.527026493848098, 16.72731127870793, 16.877126784438587, 17.010290170688677]",2017_Feb_20_1627,60.0123010701,famFaceGrey,001,20,
213,./greyInner/notfamousface12_2_cut.png,0,65,65,212,,,2.nein,4.217,None,None,None,host,7.948,None,None,None,,['return'],[1.0500025501678465],2017_Feb_20_1627,60.0123010701,famFaceGrey,001,20,
68,./greyInner/EmmaWatson(HermioneGranger)3_1_cut.png,0,66,66,67,,,1.ja,3.808,None,act,1.343,None,None,None,None,None,emma watson,"['e', 'm', 'm', 'a', 'space', 'w', 'a', 't', 's', 'o', 'n', 'return']","[3.032393556124589, 3.265599573496729, 3.415522539158701, 3.465579942010663, 3.6488700187110226, 3.7987785494588024, 4.015434454093338, 4.298582074206934, 4.948251145731774, 5.064731938789919, 5.231465808014036, 6.197839189258957]",2017_Feb_20_1627,60.0123010701,famFaceGrey,001,20,
104,./greyInner/JimParsons(SheldonCooper)8_1_cut.png,0,67,67,103,,,1.ja,4.291,None,act,1.293,None,None,None,None,None,sheldon aus the big bang theorie,"['s', 'h', 'e', 'l', 'd', 'o', 'n', 'space', 'a', 'u', 's', 'space', 't', 'h', 'e', 'space', 'b', 'i', 's', 'backspace', 'g', 'space', 'b', 'a', 'n', 'g', 'space', 't', 'h', 'e', 'o', 'r', 'i', 'e', 'backspace', 'backspace', 'y', 'backspace', 'i', 'e', 'backspace', 'backspace', 'y', 'backspace', 'i', 'e', 'return']","[1.849703009615041, 1.932955587610195, 2.0495088760289946, 2.3329775928395975, 2.865530734983622, 2.9158899879730598, 3.1323656165441207, 3.3322635456461285, 3.5157669383333996, 3.681908655209554, 4.865025512914144, 4.964964854185382, 5.198281860026327, 5.297794248552236, 5.398091254974133, 5.498893483469146, 5.6647064050303015, 5.831269300684653, 6.04782833099307, 6.431300865035155, 6.547660084022937, 6.714252811842016, 6.947545759485365, 7.0974055322949425, 7.263943086654763, 8.030415972589253, 8.147108798530098, 8.280250051244366, 8.413650490900181, 8.680117121704825, 9.27990938721996, 9.613114089406736, 9.763093190857035, 9.962422705033532, 11.029104961409757, 11.212429040355346, 11.745565353121492, 12.728438485282823, 13.411309789022198, 13.544856823271402, 14.54439522672692, 14.677621164282755, 15.010992028397595, 17.15998570622469, 17.57646415762065, 17.6763852146687, 19.958827769314667]",2017_Feb_20_1627,60.0123010701,famFaceGrey,001,20,
200,./greyInner/UrsulavonderLeyen8_2_cut.png,0,68,68,199,,,1.ja,12.536,None,None,None,None,None,polit,0.975,None,ursula von der leyen,"['u', 'r', 's', 'u', 'l', 'a', 'space', 'v', 'o', 'n', 'space', 'd', 'e', 'r', 'space', 'l', 'e', 'y', 'e', 'n', 'return']","[1.7499660779430997, 2.033032220977475, 2.366035475890385, 2.5163090496316727, 2.8326021246248274, 2.9661411394772585, 3.1326260865862423, 3.5654512787878048, 3.7491031907229626, 3.982052266583196, 4.148907068327389, 4.248950982550014, 4.398823265619285, 4.482041199815285, 4.5986756445418, 5.331768588403065, 5.731550011689251, 6.047800744261622, 6.381380754275597, 6.531204920956952, 7.214377433283516]",2017_Feb_20_1627,60.0123010701,famFaceGrey,001,20,
124,./greyInner/KaleyCuoco(Penny)5_2_cut.png,0,69,69,123,,,2.nein,4.183,None,None,None,music,1.618,None,None,None,,['return'],[1.066655952748988],2017_Feb_20_1627,60.0123010701,famFaceGrey,001,20,
64,./greyInner/EmilyDeschanel6_12_cut.png,0,70,70,63,,,1.ja,7.61,None,None,None,host,3.386,None,None,None,,['return'],[0.7670255828415975],2017_Feb_20_1627,60.0123010701,famFaceGrey,001,20,
139,./greyInner/LisaEdelstein(DrLisaCuddy)6_3_cut.png,0,71,71,138,,,1.ja,2.158,None,dummy,0.793,None,None,None,None,None,die klinikleitende Aertztin aus Dr House,"['d', 'i', 'e', 'space', 'k', 'i', 'backspace', 'l', 'i', 'n', 'i', 'k', 'l', 'e', 'i', 't', 'e', 'n', 'd', 'e', 'space', 'a', 'e', 'r', 't', 'backspace', 'backspace', 'backspace', 'backspace', 'lshift', 'a', 'e', 'r', 't', 'z', 't', 'i', 'n', 'space', 'a', 'i', 'backspace', 'u', 'd', 'space', 'backspace', 'backspace', 's', 'space', 'lshift', 'd', 'r', 'space', 'lshift', 'h', 'o', 'u', 's', 'e', 'return']","[2.032903910610912, 2.149399459365668, 2.2660877944435924, 2.299416412370192, 2.4826718452750356, 2.749233104972518, 3.249051706192404, 3.4656437764169823, 3.6654416234341625, 3.865358478316921, 4.032901023627346, 4.61646940551509, 4.815010452482966, 4.914908734441269, 5.048263623913954, 5.7314762332316604, 5.881278907923843, 5.997944467915659, 6.164503835036157, 6.297758321648871, 6.46442611103339, 7.0473811693627795, 7.214073658491543, 7.397169344985741, 7.580406493660121, 7.963869083650934, 8.1136303782514, 8.246904432191513, 8.680230034828128, 8.83004714443814, 8.963360333043966, 9.246581090068503, 9.429897470392461, 9.646479275790625, 10.012693744643911, 10.74559710993708, 10.845967253269919, 10.99577217339538, 11.145885679954517, 11.312320265242306, 11.528952432461665, 12.028735427549691, 12.312046001832641, 12.61198431662342, 12.72846927977298, 13.22822949977126, 13.361535952084523, 13.411736420996021, 13.611599385523732, 13.744661085806001, 14.444373766818899, 14.760940784446575, 14.910623809722892, 15.094088067744451, 15.210782818343432, 15.510662110365956, 15.693957640258304, 15.877101122361637, 16.060538114434166, 16.24373035447934]",2017_Feb_20_1627,60.0123010701,famFaceGrey,001,20,
31,./greyInner/BritneySpears1_1_cut.png,0,72,72,30,,,1.ja,2.325,None,None,None,music,1.159,None,None,None,Brittney Spears,"['b', 'backspace', 'lshift', 'lshift', 'b', 'r', 'i', 't', 't', 'n', 'e', 'y', 'space', 'lshift', 's', 'p', 'e', 'a', 'r', 's', 'return']","[1.3500480041184346, 1.8499083062051795, 1.9662919041620626, 2.3496072580055625, 2.4494404224496975, 3.282329641526303, 3.449089172820095, 3.9155438707603025, 4.032272623604513, 4.182119244600472, 4.282169574340514, 4.682005529535672, 4.798554006316408, 4.898365999550151, 5.065206045601371, 5.414998712087254, 5.531732918123453, 5.714778563571599, 6.048136596651602, 6.281373087735119, 6.71446516549986]",2017_Feb_20_1627,60.0123010701,famFaceGrey,001,20,
56,./greyInner/ElvisPresley1_1_cut.png,0,73,73,55,,,1.ja,2.424,None,None,None,music,1.09,None,None,None,Elvis,"['lshift', 'e', 'l', 'v', 'i', 's', 'return']","[0.3168351862950658, 0.6998666534491349, 0.9662052946623589, 1.5830859349043749, 1.7495968648654525, 1.8328074212149659, 2.249329177360778]",2017_Feb_20_1627,60.0123010701,famFaceGrey,001,20,
66,./greyInner/EmmaWatson(HermioneGranger)11_2_cut.png,0,74,74,65,,,1.ja,5.092,None,act,1.06,None,None,None,None,None,Emma Watson,"['lshift', 'e', 'm', 'm', 'a', 'space', 'lshift', 'w', 'a', 'r', 'backspace', 't', 's', 'o', 'n', 'return']","[0.3668938722512394, 0.700147011604713, 1.0832086316950154, 1.2497218070857343, 1.2732263417346985, 1.4664052984480804, 1.5330609304255631, 1.7493517920629529, 1.9661757832800504, 2.1829141273265122, 2.5158509816246806, 2.615857365064585, 2.88257676728972, 3.0156949241390976, 3.1824130753411737, 4.398506339013693]",2017_Feb_20_1627,60.0123010701,famFaceGrey,001,20,
94,./greyInner/JanHofer7_1_cut.png,0,75,75,93,,,1.ja,5.19,None,None,None,host,2.474,None,None,None,,['return'],[0.9000382044105208],2017_Feb_20_1627,60.0123010701,famFaceGrey,001,20,
189,./greyInner/TaylorSwift7_1_cut.png,0,76,76,188,,,1.ja,1.48,None,None,None,music,1.664,None,None,None,Taylor Swift,"['t', 'a', 'backspace', 'backspace', 'lshift', 't', 'a', 'y', 'l', 'o', 'r', 'space', 'lshift', 's', 'w', 'i', 'f', 't', 'return']","[1.050542095261335, 1.2004211146231683, 2.2333638391210116, 2.3996373949012195, 2.683129849126999, 2.9997456246965157, 3.1996031360322377, 3.382691444679949, 3.632736593892332, 3.815953854456893, 4.76559524302138, 4.89882278445657, 5.048580550519546, 5.21536478156122, 5.432158299066941, 6.031160172718955, 6.298326736574381, 6.481436537211266, 6.69825347135702]",2017_Feb_20_1627,60.0123010701,famFaceGrey,001,20,
17,./greyInner/BastianSchweinsteiger12_1_cut.png,0,77,77,16,,,1.ja,2.446,None,None,None,None,None,sport,0.947,None,Bastian Schweinsteiger,"['lshift', 'b', 'a', 's', 't', 'i', 'a', 'n', 'space', 'lshift', 's', 'c', 'h', 'w', 'e', 'i', 'n', 's', 't', 'e', 'i', 'g', 'e', 'r', 'return']","[0.4838218269396748, 1.35004736256451, 1.467958495442872, 1.6666326644190121, 1.8831082929864351, 2.1164644334858167, 2.28294392740645, 2.3996062796359183, 2.5829233015138016, 2.6495590453814657, 2.8160722207721847, 3.016025002558308, 3.0992618625314208, 3.5158423206703446, 3.599039404434734, 3.8656125328416238, 4.232282503500755, 4.431973852912051, 4.698563340891269, 4.865296889336605, 5.01518392809885, 5.381770497016987, 5.58160619559203, 5.631577951273357, 6.781148384201515]",2017_Feb_20_1627,60.0123010701,famFaceGrey,001,20,
152,./greyInner/NeilPatrickHarris(Barney)11_2_cut.png,0,78,78,151,,,1.ja,7.91,None,act,7.111,None,None,None,None,None,,['return'],[0.6500145471873111],2017_Feb_20_1627,60.0123010701,famFaceGrey,001,20,
186,./greyInner/TaylorSwift1_2_cut.png,0,79,79,185,,,1.ja,1.371,None,None,None,music,0.814,None,None,None,Taylor Swift,"['lshift', 't', 'a', 'y', 'l', 'o', 'r', 'space', 'lshift', 's', 'w', 'i', 'f', 't', 'return']","[1.0166854801718728, 1.1999226288462523, 1.349656015943765, 1.549904873900232, 1.8830582519440213, 2.066130201019405, 2.3162115979066584, 2.449444592533837, 2.732518434189842, 2.915757828293863, 3.1322735538524284, 3.565659141582728, 3.9655400054070924, 4.165327266819077, 4.365340033698885]",2017_Feb_20_1627,60.0123010701,famFaceGrey,001,20,
51,./greyInner/DannFlorek(DonaldDonCragen)1_1_cut.png,0,80,80,50,,,2.nein,3.711,None,None,None,host,2.211,None,None,None,,['return'],[1.0000442670752818],2017_Feb_20_1627,60.0123010701,famFaceGrey,001,20,
210,./greyInner/WillSmith6_1_cut.png,0,81,81,209,,,1.ja,1.81,None,dummy,6.143,None,None,None,None,None,Will Smith,"['lshift', 'w', 'i', 'l', 'l', 'space', 'lshift', 's', 'm', 'i', 't', 'h', 'return']","[0.7838868482213002, 1.0338543696561828, 1.216764647670061, 1.4668620833581372, 1.6168424679090094, 1.766825097893161, 1.8665633126656758, 1.9834335276900674, 2.1499264941994625, 2.3498103091624216, 2.616436044820148, 2.7663368769462977, 3.066043270748196]",2017_Feb_20_1627,60.0123010701,famFaceGrey,001,20,
111,./greyInner/JoshRadnor(Ted)1_2_cut.png,0,82,82,110,,,1.ja,5.192,None,dummy,0.478,None,None,None,None,None,aus einer amerikanischen Serie,"['a', 'u', 's', 'space', 'e', 'i', 'n', 'e', 'r', 'space', 'a', 'm', 'e', 'r', 'i', 'k', 'a', 'n', 'i', 's', 'c', 'h', 'e', 'n', 'space', 'lshift', 's', 'e', 'r', 'i', 'e', 'return']","[1.5165916532168922, 1.6499253714828228, 1.816615615178307, 1.9830899766820949, 2.1664121309768234, 2.232973134054191, 2.383047826726397, 2.432862402205501, 2.5661624390013458, 2.76625315443016, 3.182676111591718, 3.482592934396962, 3.6657713810782298, 3.765762046499731, 3.982031095376442, 4.465365984473465, 4.6153081966913305, 4.765252975117619, 4.915050838171737, 5.065263143711491, 5.164791250259441, 5.2317763191022095, 5.431678418291995, 5.598045961414755, 5.831641721528285, 5.914820521062211, 6.047919431352057, 6.264754328949493, 6.414643292366236, 6.631216757588845, 6.797825203426328, 7.164287952844461]",2017_Feb_20_1627,60.0123010701,famFaceGrey,001,20,
32,./greyInner/BritneySpears14_2_cut.png,0,83,83,31,,,1.ja,2.011,None,None,None,music,1.228,None,None,None,Brittney Spears,"['lshift', 'b', 'r', 'i', 't', 't', 'n', 'e', 'y', 'space', 'lshift', 's', 'p', 'e', 'a', 'r', 's', 'return']","[0.8833257790611242, 1.2498825158218096, 1.5330128140376473, 1.7330194861751806, 2.1160544818667404, 2.249249945711199, 2.416015571747266, 2.4493082627705007, 2.9990392761246767, 3.1489022566929634, 3.3990221466920048, 3.5653165529038233, 4.132054143126879, 4.448448904084216, 4.681840650715458, 4.881746919989382, 5.131645474604738, 5.348237865608098]",2017_Feb_20_1627,60.0123010701,famFaceGrey,001,20,
25,./greyInner/BenedictCumberbatch6_5_cut.png,0,84,84,24,,,2.nein,11.329,None,None,None,music,1.585,None,None,None,,['return'],[1.1001966035582882],2017_Feb_20_1627,60.0123010701,famFaceGrey,001,20,
161,./greyInner/OmarEpps(DrEricForeman)1_5_cut.png,0,85,85,160,,,1.ja,7.976,None,act,0.682,None,None,None,None,None,,['return'],[1.1832451680711529],2017_Feb_20_1627,60.0123010701,famFaceGrey,001,20,
30,./greyInner/Beyonce8_3_cut.png,0,86,86,29,,,2.nein,1.528,None,None,None,music,5.726,None,None,None,,['return'],[0.8006262187482207],2017_Feb_20_1627,60.0123010701,famFaceGrey,001,20,
164,./greyInner/OmarEpps(DrEricForeman)5_2_cut.png,0,87,87,163,,,1.ja,1.871,None,dummy,0.424,None,None,None,None,None,,['return'],[1.0334623814851511],2017_Feb_20_1627,60.0123010701,famFaceGrey,001,20,
212,./greyInner/notfamousface11_1_cut.png,0,88,88,211,,,2.nein,6.965,None,None,None,host,2.016,None,None,None,,['return'],[0.566593561834452],2017_Feb_20_1627,60.0123010701,famFaceGrey,001,20,
39,./greyInner/CarenMiosga6_2_cut.png,0,89,89,38,,,2.nein,3.278,None,None,None,host,4.91,None,None,None,,['return'],[0.5335943807767762],2017_Feb_20_1627,60.0123010701,famFaceGrey,001,20,
214,./greyInner/notfamousface1_2_cut.png,0,90,90,213,,,2.nein,6.387,None,act,0.617,None,None,None,None,None,,['return'],[0.5832334918268316],2017_Feb_20_1627,60.0123010701,famFaceGrey,001,20,
60,./greyInner/ElvisPresley6_1_cut.png,0,91,91,59,,,1.ja,1.012,None,act,0.679,None,None,None,None,None,Elvis,"['lshift', 'e', 'l', 'v', 'i', 's', 'return']","[2.0664856207367848, 2.2997105638860376, 2.4662914229957096, 3.132601707617141, 3.249439524275658, 3.3659414885478327, 3.615841005488619]",2017_Feb_20_1627,60.0123010701,famFaceGrey,001,20,
123,./greyInner/KaleyCuoco(Penny)3_1_cut.png,0,92,92,122,,,1.ja,4.061,None,None,None,host,4.345,None,None,None,Jenny,"['lshift', 'j', 'e', 'n', 'n', 'y', 'return']","[0.6336706933652749, 0.8838197739751195, 1.1002155293390388, 1.4169875227780722, 1.5501076042819477, 1.7334618361674075, 4.848838518515549]",2017_Feb_20_1627,60.0123010701,famFaceGrey,001,20,
107,./greyInner/JoachimLoew12_1_cut.png,0,93,93,106,,,2.nein,27.319,None,None,None,None,None,sport,4.261,None,,['return'],[0.7341027464499348],2017_Feb_20_1627,60.0123010701,famFaceGrey,001,20,
126,./greyInner/KatjaBurkard1_1_cut.png,0,94,94,125,,,2.nein,4.775,None,None,None,host,0.976,None,None,None,,['return'],[1.0999470398965059],2017_Feb_20_1627,60.0123010701,famFaceGrey,001,20,
205,./greyInner/Usher7_1_cut.png,0,95,95,204,,,2.nein,3.459,None,None,None,music,3.776,None,None,None,,['return'],[0.65028592361341],2017_Feb_20_1627,60.0123010701,famFaceGrey,001,20,
87,./greyInner/Ice-T(OdafinFinTutuola)12_1_cut.png,0,96,96,86,,,2.nein,5.162,None,None,None,music,0.562,None,None,None,,['return'],[0.5336995952784491],2017_Feb_20_1627,60.0123010701,famFaceGrey,001,20,
191,./greyInner/TomCruise1_1_cut.png,0,97,97,190,,,1.ja,5.111,None,dummy,2.78,None,None,None,None,None,Tom Cruiz,"['lshift', 't', 'o', 'm', 'space', 'lshift', 'c', 'r', 'u', 'i', 'z', 'return']","[1.6838435755453247, 2.000367929977074, 2.1504259423018084, 2.3503684592578793, 2.516888050166017, 2.5667959714373865, 3.1832198267729837, 3.499789089833939, 3.683016936003696, 3.8663175983092515, 4.299613689559919, 4.582802689768869]",2017_Feb_20_1627,60.0123010701,famFaceGrey,001,20,
73,./greyInner/GuentherJauch4_1_cut.png,0,98,98,72,,,1.ja,2.16,None,None,None,host,1.178,None,None,None,Günther jauch,"['lshift', 'g', u'\xfc', 'n', 't', 'h', 'e', 'r', 'space', 'lshift', 'h', 'backspace', 'j', 'a', 'u', 'c', 'h', 'return']","[0.433489519127761, 1.9328429952620354, 2.515952667588863, 2.7825604397949064, 3.0824137489689747, 3.199076742752368, 3.3323495135919075, 3.4489708065048035, 3.548903090708336, 3.732003268065455, 3.9155012075607374, 4.298566035409749, 4.531831075550144, 4.715020749390533, 4.831864340012544, 5.0149847262546245, 5.1481766615615925, 5.464829326359904]",2017_Feb_20_1627,60.0123010701,famFaceGrey,001,20,
15,./greyInner/BarackObama5_2_cut.png,0,99,99,14,,,1.ja,1.893,None,None,None,None,None,polit,1.143,None,Barak Obama,"['lshift', 'b', 'a', 'r', 'a', 'k', 'space', 'lshift', 'o', 'm', 'backspace', 'b', 'a', 'm', 'a', 'return']","[0.6832424414751586, 0.8332747917265806, 0.9997501155594364, 1.2997827384715492, 1.5496120054885978, 1.8662993140860635, 2.19934074133198, 2.299178717417817, 2.615869233773992, 2.9325533346091106, 3.298950645737932, 3.6985928522772156, 3.8484811741436715, 4.132010517601884, 4.231871589548973, 5.0815903171860555]",2017_Feb_20_1627,60.0123010701,famFaceGrey,001,20,
98,./greyInner/JasonSegel(Marshall)6_1_cut.png,0,100,100,97,,,1.ja,6.448,None,act,1.488,None,None,None,None,None,amerikanische Serie,"['a', 'm', 'e', 'r', 'i', 'k', 'a', 'n', 'i', 's', 'c', 'h', 'e', 'space', 'lshift', 's', 'e', 'r', 'i', 'e', 'n', 'backspace', 'return']","[8.780260797237133, 8.980206521948276, 9.180244309354748, 9.279743225291895, 9.480062974726025, 9.713266746664885, 9.879881928798568, 10.063090207640926, 10.462958881977102, 10.662923211697489, 10.779516917878937, 10.879560511326417, 11.046018834036659, 11.146054408083728, 11.91236305674829, 12.211946914150758, 12.49541883872007, 12.66204011559239, 12.878595617366955, 12.995189644323546, 13.195076025494927, 13.711490931182198, 17.41002283603666]",2017_Feb_20_1627,60.0123010701,famFaceGrey,001,20,
221,./greyInner/notfamousface6_8_cut.png,0,101,101,220,,,2.nein,4.424,None,dummy,4.515,None,None,None,None,None,,['return'],[1.2831588472727162],2017_Feb_20_1627,60.0123010701,famFaceGrey,001,20,
57,./greyInner/ElvisPresley2_1_cut.png,0,102,102,56,,,1.ja,3.411,None,None,None,music,4.614,None,None,None,Elvis,"['lshift', 'e', 'l', 'v', 'i', 's', 'return']","[0.733501933154912, 0.9667002519054222, 1.1832583198847715, 1.699899693368934, 1.8163824110852147, 1.933000175464258, 2.4661823591850407]",2017_Feb_20_1627,60.0123010701,famFaceGrey,001,20,
101,./greyInner/JimParsons(SheldonCooper)1_1_cut.png,0,103,103,100,,,1.ja,2.612,None,act,1.096,None,None,None,None,None,Sheldon aus the big bang theorie,"['lshift', 's', 'h', 'e', 'l', 'd', 'o', 'n', 'space', 'a', 'u', 's', 'space', 't', 'h', 'e', 'space', 'b', 'i', 'g', 'space', 'b', 'a', 'n', 'g', 'space', 't', 'h', 'e', 'o', 'r', 'y', 'backspace', 'i', 'e', 'return']","[0.5003838083866867, 0.9506091695111536, 1.2002434047681163, 1.283764472209441, 1.5836428019028972, 2.0167759389842104, 2.1667560027599393, 2.4163145349048136, 2.5832594746789255, 2.716477072062844, 2.866575181375083, 3.3829499900748488, 3.516309370410454, 3.966090456884558, 4.065843106574903, 4.232609374164895, 4.332700442446367, 4.699152927034447, 4.915588137835584, 5.231994767505967, 5.348804997433035, 5.565438768531749, 5.682038569455472, 5.965232702081266, 6.481770464943111, 6.6146448320942, 6.781635642826586, 6.881484846067906, 7.148044501886034, 7.88118716601457, 8.5804417790132, 8.91397495574347, 10.180232761424122, 10.496594803240441, 10.563302721689979, 11.346228846032318]",2017_Feb_20_1627,60.0123010701,famFaceGrey,001,20,
162,./greyInner/OmarEpps(DrEricForeman)2_2_cut.png,0,104,104,161,,,1.ja,2.535,None,act,0.936,None,None,None,None,None,spielt einen der Aerzte aus dem Team von Dr House,"['s', 'p', 'i', 'e', 'l', 't', 'space', 'd', 'e', 'n', 'space', 'backspace', 'backspace', 'backspace', 'backspace', 'e', 'i', 'n', 'e', 'n', 'space', 'd', 'e', 'r', 'space', 'lshift', u'\xc4', 'backspace', u'\xe4', 'backspace', 's', 'p', 'i', 'e', 'l', 't', 'space', 'e', 'i', 'n', 'e', 'n', 'space', 'd', 'e', 'r', 'space', 'lshift', 'a', 'e', 'r', 'z', 't', 'e', 'space', 'a', 'u', 's', 'space', 'd', 'e', 'm', 'space', 'lshift', 't', 'e', 'a', 'm', 'space', 'v', 'o', 'n', 'space', 'lshift', 'd', 'r', 'space', 'lshift', 'h', 'o', 'u', 's', 'e', 'return']","[2.2325744095905975, 2.9157536582097237, 3.115729535860737, 3.2323068824734946, 3.365666262812738, 3.4989614879668807, 3.598918792689801, 3.765428118767886, 3.9152048106152506, 4.031636524960049, 4.231770865913859, 5.9645593934255885, 6.1310533222604136, 6.264499953649647, 6.680913929085364, 7.030898098793841, 7.114097748763015, 7.2640531127945, 7.380548019995331, 7.480569159128208, 7.647118902972579, 7.913670539397572, 8.063642583776527, 8.130110882611916, 8.463283186436456, 8.963331463211944, 9.279894310751843, 9.879577191677527, 10.89580267918791, 11.595560268826375, 12.96160344333839, 13.411519255700114, 13.711233668898785, 13.794614557260502, 13.961116826270882, 14.161112592028076, 14.294425139083614, 14.377732569759246, 14.510809667288413, 14.660889492377464, 14.7275730318579, 14.860965452113305, 15.010816563972185, 15.244067489973531, 15.393928225108539, 15.427251069068006, 15.660503919723851, 15.777090568837593, 15.977030519585242, 16.67670663214085, 16.90970606981864, 17.826446434752143, 18.376109443612222, 18.52584218915581, 23.09081390794745, 23.240621394281334, 23.373920468744473, 23.540465080175636, 23.723833105425, 23.99047904996769, 24.173836168833077, 24.290176141264965, 24.440465753803437, 24.54023123452862, 24.79017566010225, 24.989746718543756, 25.156681714266597, 25.323345654338482, 25.4564416776484, 25.723081527445174, 25.97272827296547, 26.239400841910538, 26.406233189340128, 26.55604677041265, 26.739290334608086, 26.989196587845072, 27.205744711769512, 27.322386534342513, 27.455585526720824, 27.738929461698717, 27.88879853700564, 28.205125614247663, 28.371986831509275, 28.588635679072468]",2017_Feb_20_1627,60.0123010701,famFaceGrey,001,20,
21,./greyInner/BenedictCumberbatch16_1_cut.png,0,105,105,20,,,2.nein,5.391,None,None,None,music,0.744,None,None,None,,['return'],[0.9000959440782026],2017_Feb_20_1627,60.0123010701,famFaceGrey,001,20,
217,./greyInner/notfamousface2_cut.png,0,106,106,216,,,2.nein,3.48,None,None,None,host,1.538,None,None,None,,['return'],[0.8667881765868515],2017_Feb_20_1627,60.0123010701,famFaceGrey,001,20,
20,./greyInner/BastianSchweinsteiger6_2_cut.png,0,107,107,19,,,1.ja,1.655,None,None,None,None,None,sport,1.392,None,Bastian Schweinsteiger,"['lshift', 'b', 'a', 's', 't', 'i', 'a', 'n', 'space', 'lshift', 's', 'c', 'h', 'w', 'e', 'i', 'n', 's', 't', 'e', 'i', 'g', 'e', 'r', 'return']","[0.6997649674849526, 0.8497206522915803, 0.9665443548074109, 1.1663348239781044, 1.3995527100596519, 1.5993508778519754, 1.732958859527571, 1.866166512852942, 2.0162687922565965, 2.0659319615042477, 2.2491453727598127, 2.432564722155803, 2.549322344832035, 2.78269997732059, 3.0988461369452125, 3.4154971978605317, 4.032772071710497, 4.298507012641494, 4.565124728902447, 4.731685699905938, 5.114769132760557, 5.264902527425875, 5.364700406520569, 5.981137413666147]",2017_Feb_20_1627,60.0123010701,famFaceGrey,001,20,
47,./greyInner/CristinMilioti(Tracy_Mutter)2_1_cut.png,0,108,108,46,,,2.nein,4.294,None,act,0.413,None,None,None,None,None,,['return'],[0.9330858226348937],2017_Feb_20_1627,60.0123010701,famFaceGrey,001,20,
90,./greyInner/Ice-T(OdafinFinTutuola)7_1_cut.png,0,109,109,89,,,2.nein,5.673,None,None,None,None,None,sport,6.406,None,,['return'],[0.7166409885539906],2017_Feb_20_1627,60.0123010701,famFaceGrey,001,20,
19,./greyInner/BastianSchweinsteiger3_1_cut.png,0,110,110,18,,,1.ja,2.445,None,None,None,None,None,sport,1.411,None,Bastian Schweinsteiger,"['lshift', 'b', 'a', 's', 't', 'i', 'a', 'n', 'space', 'lshift', 's', 'c', 'h', 'w', 'e', 'i', 'n', 's', 't', 'e', 'i', 'g', 'e', 'r', 'return']","[0.8841026983318443, 1.1340358967499924, 1.2341349844282377, 1.4172306709224358, 1.6672184012459184, 1.8337392752582673, 1.9837363401566108, 2.0836288481477823, 2.266728063175833, 2.3501814468982047, 2.533166144923598, 2.716752297797939, 2.850016086911637, 2.9664638400499825, 3.066557474543515, 3.316513448047772, 3.483088533190312, 3.732726296984765, 3.9995095336198574, 4.299448810736067, 4.465996309150796, 4.749228614109597, 4.9328904700996645, 5.015754267682496, 5.4655966223544965]",2017_Feb_20_1627,60.0123010701,famFaceGrey,001,20,
197,./greyInner/UrsulavonderLeyen4_1_cut.png,0,111,111,196,,,1.ja,3.411,None,None,None,None,None,polit,1.18,None,Ursula von der Leyen,"['lshift', 'u', 'r', 's', 'u', 'l', 'a', 'space', 'v', 'o', 'n', 'space', 'd', 'e', 'r', 'space', 'lshift', 'l', 'e', 'y', 'e', 'n', 'return']","[0.28415806425982737, 0.7339853424673493, 0.9505780542458524, 1.4005192079021072, 1.5838250026245078, 1.8168978979883832, 1.9336019510883489, 2.066763091908797, 2.7000344192565535, 2.9000042021652916, 3.0998508071206743, 3.2496425754361553, 3.3495447067034547, 3.5162092883256264, 3.5830326861068897, 3.6825922286916466, 3.8328786334714096, 3.9494447529250465, 4.3161160066883895, 4.682508185400366, 5.0157151330240595, 5.748702541604871, 6.331964261713438]",2017_Feb_20_1627,60.0123010701,famFaceGrey,001,20,
201,./greyInner/Usher1_1_cut.png,0,112,112,200,,,2.nein,6.061,None,act,3.083,None,None,None,None,None,,['return'],[0.9832763474914827],2017_Feb_20_1627,60.0123010701,famFaceGrey,001,20,
218,./greyInner/notfamousface3_3_cut.png,0,113,113,217,,,2.nein,4.178,None,None,None,music,0.821,None,None,None,,['return'],[0.7003580821583455],2017_Feb_20_1627,60.0123010701,famFaceGrey,001,20,
49,./greyInner/CristinMilioti(Tracy_Mutter)8_1_cut.png,0,114,114,48,,,2.nein,4.568,None,dummy,2.803,None,None,None,None,None,,['return'],[0.9332978555175941],2017_Feb_20_1627,60.0123010701,famFaceGrey,001,20,
89,./greyInner/Ice-T(OdafinFinTutuola)6_1_cut.png,0,115,115,88,,,2.nein,2.622,None,None,None,None,None,sport,1.635,None,,['return'],[1.000085967945779],2017_Feb_20_1627,60.0123010701,famFaceGrey,001,20,
77,./greyInner/GeorgeClooney15_1_cut.png,0,116,116,76,,,1.ja,3.807,None,dummy,1.492,None,None,None,None,None,George Clooney,"['lshift', 'g', 'e', 'o', 'r', 'g', 'e', 'space', 'lshift', 'c', 'l', 'o', 'o', 'n', 'e', 'y', 'return']","[0.9833392195723718, 1.149816788834869, 1.3997429301816737, 1.6496039540143101, 2.2827389515950927, 2.5326692630296748, 2.6323013009714487, 2.765824277026695, 3.0656185634325084, 3.3156534478112007, 3.5821569678482774, 3.8153803071181756, 3.9986970082209154, 4.331788797288027, 4.531753768555063, 4.948357322562515, 6.381236084340344]",2017_Feb_20_1627,60.0123010701,famFaceGrey,001,20,
141,./greyInner/MariskaHargitay(Liv)13_1_cut.png,0,117,117,140,,,2.nein,7.008,None,None,None,music,1.362,None,None,None,,['return'],[1.0172362524244818],2017_Feb_20_1627,60.0123010701,famFaceGrey,001,20,
131,./greyInner/LeonardoDiCaprio1_1_cut.png,0,118,118,130,,,1.ja,1.503,None,act,1.553,None,None,None,None,None,Leonardo DiCaprio,"['lshift', 'l', 'e', 'o', 'n', 'a', 'r', 'd', 'o', 'space', 'lshift', 'd', 'i', 'lshift', 'c', 'a', 'p', 'r', 'i', 'o', 'return']","[1.0832596350664971, 1.499746426634374, 1.7329771437507588, 1.8496115884772735, 2.0663348560556187, 2.1826533365019714, 2.4826939788108575, 2.7159035247168504, 2.949159262356261, 3.0991563272546045, 3.199005530495924, 3.4323267064210086, 3.781932039772073, 4.032147520993021, 4.565151674079971, 4.815016868000384, 5.431444251869834, 5.698099178138364, 5.88108548004675, 6.064458958484465, 6.697496440188843]",2017_Feb_20_1627,60.0123010701,famFaceGrey,001,20,
136,./greyInner/LisaEdelstein(DrLisaCuddy)1_1_cut.png,0,119,119,135,,,1.ja,3.228,None,act,0.847,None,None,None,None,None,die klinikleitende Aerztin aus Dr House,"['d', 'i', 'e', 'space', 'k', 'l', 'i', 'n', 'i', 'k', 'l', 'e', 'i', 't', 'e', 'n', 'd', 'e', 'space', 'lshift', 'a', 'e', 'r', 'z', 't', 'i', 'n', 'space', 'a', 'i', 'backspace', 'u', 's', 'space', 'lshift', 'd', 'r', 'space', 'lshift', 'h', 'o', 'u', 's', 'e', 'return']","[1.216643715149985, 1.3332117592581199, 1.4158686563750962, 1.532788270891615, 1.7322031114599667, 1.899193922192353, 2.0823547262007196, 2.2496348768108874, 2.398757827333611, 2.9318450613827736, 3.099031224646751, 3.249198621560936, 3.349056806528097, 3.9322178029979113, 4.098783585639467, 4.215538962886058, 4.382029042408249, 4.5319500834157225, 4.715203270887287, 4.948485953704221, 5.731544237725757, 6.497605888933322, 7.280782539266511, 8.863646497236914, 9.013410358045803, 9.396679840934667, 9.563235679521313, 9.746443637584889, 10.27961908501311, 10.462822552213765, 10.946017903785105, 11.179186711149669, 11.312662853924849, 11.47909775998778, 11.978809542826639, 12.462064558720158, 12.695028069494583, 12.828519609513023, 12.978477539749292, 13.128355917560839, 13.39496785985466, 13.594669153320865, 13.778238305068953, 13.96121787068114, 14.228052752241638]",2017_Feb_20_1627,60.0123010701,famFaceGrey,001,20,
144,./greyInner/MariskaHargitay(Liv)6_5_cut.png,0,120,120,143,,,2.nein,5.264,None,None,None,host,0.677,None,None,None,,['return'],[0.7499603039796057],2017_Feb_20_1627,60.0123010701,famFaceGrey,001,20,
219,./greyInner/notfamousface4_2_cut.png,0,121,121,218,,,2.nein,4.215,None,None,None,music,3.214,None,None,None,,['return'],[0.31714569738323917],2017_Feb_20_1627,60.0123010701,famFaceGrey,001,20,
62,./greyInner/EmilyDeschanel3_1_cut.png,0,122,122,61,,,1.ja,6.952,None,act,1.601,None,None,None,None,None,,['return'],[0.6166599464086175],2017_Feb_20_1627,60.0123010701,famFaceGrey,001,20,
36,./greyInner/CarenMiosga1_1_cut.png,0,123,123,35,,,2.nein,7.659,None,None,None,None,None,polit,1.477,None,,['return'],[0.6834018671070226],2017_Feb_20_1627,60.0123010701,famFaceGrey,001,20,
202,./greyInner/Usher11_1_cut.png,0,124,124,201,,,1.ja,6.292,None,None,None,music,0.994,None,None,None,usher,"['u', 's', 'h', 'e', 'r', 'return']","[0.8667788740822289, 1.5500816214334918, 1.716711880031653, 1.8167070363160747, 1.8998810242119362, 2.3332528185783303]",2017_Feb_20_1627,60.0123010701,famFaceGrey,001,20,
16,./greyInner/BastianSchweinsteiger1_1_cut.png,0,125,125,15,,,1.ja,3.689,None,None,None,None,None,sport,1.59,None,Bastian Schweinsteiger,"['lshift', 'b', 'a', 's', 't', 'i', 'a', 'n', 'space', 'lshift', 's', 'c', 'h', 'w', 'e', 'i', 'n', 's', 't', 'e', 'i', 'g', 'e', 'r', 'return']","[0.616718327626586, 0.7832581274160475, 0.9166069221500948, 1.0832358976476826, 1.3497926664822444, 1.5329919635987608, 1.6662881510819716, 1.7827836998330895, 1.9661478757734585, 2.1827348135848297, 2.3828184719423007, 2.5826102242172055, 2.682707387244591, 2.9157825280381076, 2.9658097779538366, 3.2323424885980785, 3.4157336097123334, 3.7988879340446147, 4.048700841489335, 4.23190559179784, 4.381873786864162, 4.631950692892133, 4.7983785418873595, 4.881714200844726, 5.1317044973729935]",2017_Feb_20_1627,60.0123010701,famFaceGrey,001,20,
211,./greyInner/notfamousface10_4_cut.png,0,126,126,210,,,2.nein,9.211,None,None,None,host,0.998,None,None,None,,['return'],[0.5501467389440222],2017_Feb_20_1627,60.0123010701,famFaceGrey,001,20,
215,./greyInner/notfamousface13_1_cut.png,0,127,127,214,,,2.nein,5.86,None,dummy,0.763,None,None,None,None,None,,['return'],[0.9670322549791308],2017_Feb_20_1627,60.0123010701,famFaceGrey,001,20,
193,./greyInner/TomCruise5_1_cut.png,0,128,128,192,,,1.ja,1.627,None,dummy,1.977,None,None,None,None,None,Tom Cruiz,"['lshift', 't', 'o', 'm', 'space', 'lshift', 'c', 'r', 'u', 'i', 'z', 'return']","[0.8000103289850813, 0.9499762786217616, 1.2498533252110064, 1.649646296435094, 1.8329200135631254, 1.9495063419017242, 2.14941293195443, 2.4494044955463323, 2.732599590497557, 2.8991047464915027, 3.1323306519698235, 3.515404140769533]",2017_Feb_20_1627,60.0123010701,famFaceGrey,001,20,
99,./greyInner/JasonSegel(Marshall)7_1_cut.png,0,129,129,98,,,1.ja,4.909,None,act,1.177,None,None,None,None,None,aus einer amerikanischen Serie,"['a', 'u', 's', 'space', 'e', 'i', 'n', 'e', 'r', 'space', 'a', 'm', 'e', 'r', 'i', 'k', 'a', 'n', 'i', 's', 'c', 'h', 'e', 'n', 'space', 'lshift', 's', 'e', 'r', 'i', 'e', 'return']","[1.1664907210761157, 1.233148919258383, 1.3997246459512098, 1.533151710009406, 1.6330544828269922, 1.7330108252244827, 1.899547417255235, 1.949541948026308, 2.049434776792623, 2.2328769012783596, 2.432654539414216, 2.615952314736205, 2.7825296453083865, 2.915860155815608, 3.1490174152459076, 3.3489724424616725, 3.482311613915954, 3.615438110937248, 3.848625523307419, 3.9653959770221263, 4.098507718350447, 4.165287490606715, 4.331732982274843, 4.465049057864235, 4.665115394323948, 4.69275056047627, 4.84832527704566, 5.0483300245286955, 5.248192668281263, 5.448205755939853, 5.597958068814478, 6.01457477463191]",2017_Feb_20_1627,60.0123010701,famFaceGrey,001,20,
95,./greyInner/JanHofer9_2_cut.png,0,130,130,94,,,2.nein,3.294,None,None,None,host,0.945,None,None,None,,['return'],[0.7834101752050628],2017_Feb_20_1627,60.0123010701,famFaceGrey,001,20,
192,./greyInner/TomCruise4_1_cut.png,0,131,131,191,,,1.ja,1.14,None,act,0.757,None,None,None,None,None,Tom Cruiz,"['lshift', 't', 'o', 'm', 'space', 'lshift', 'c', 'r', 'u', 'i', 'z', 'return']","[0.7664783391264791, 0.916940529106796, 1.3499697347906476, 1.5499244412312692, 1.7165036964615865, 1.7665501929295715, 1.9996304661399336, 2.2829201899876352, 2.5825698064545577, 2.7660905210395867, 3.0660169671209587, 3.415829842488165]",2017_Feb_20_1627,60.0123010701,famFaceGrey,001,20,
9,./greyInner/AngelaMerkel5_1_cut.png,0,132,132,8,,,1.ja,1.628,None,None,None,None,None,polit,1.245,None,Angela Merkel,"['lshift', 'a', 'n', 'g', 'e', 'l', 'a', 'space', 'lshift', 'm', 'e', 'r', 'k', 'e', 'l', 'return']","[0.4168014727438276, 0.650055927279027, 0.8166393525971216, 1.1831883907325391, 1.3330561829388898, 1.4498179757028993, 1.5830076655802259, 1.749490046484425, 1.866246706831589, 2.049452419469162, 2.599274212407181, 2.732426371501788, 3.0323486474953825, 3.132409242065478, 3.5487911399104632, 4.598411004408263]",2017_Feb_20_1627,60.0123010701,famFaceGrey,001,20,
102,./greyInner/JimParsons(SheldonCooper)10_1_cut.png,0,133,133,101,,,1.ja,1.845,None,act,0.945,None,None,None,None,None,Sheldon aus the big bang theorie,"['lshift', 's', 'h', 'e', 'l', 'd', 'o', 'n', 'space', 'a', 'u', 's', 'space', 't', 'h', 'e', 'space', 'b', 'i', 'g', 'space', 'b', 'a', 'n', 'g', 'space', 't', 'h', 'e', 'o', 'r', 'i', 'e', 'return']","[0.5169727350075846, 0.7002262432542921, 0.8833350815621088, 1.0002171652959078, 1.2667652731834096, 1.63309297593878, 1.7665136244759196, 1.9497674534977705, 2.11628608207684, 2.2663748888917326, 2.4326272734579106, 2.882703473776928, 3.0493921135966957, 3.449119967306615, 3.5493303642324463, 3.665689583220228, 3.765674153895816, 4.048671330107027, 4.448822287253279, 4.881864323975606, 5.015129075418372, 5.264700759373227, 5.398317081220739, 5.564938999646984, 5.831489032188983, 6.014775259580347, 6.381302805730229, 6.647894218367583, 6.847743710306531, 7.497138518418069, 7.780610763762525, 7.930614564957068, 8.030455107251328, 8.297108108861721]",2017_Feb_20_1627,60.0123010701,famFaceGrey,001,20,
38,./greyInner/CarenMiosga2_11_cut.png,0,134,134,37,,,2.nein,3.091,None,act,0.675,None,None,None,None,None,,['return'],[0.8001072033148375],2017_Feb_20_1627,60.0123010701,famFaceGrey,001,20,
24,./greyInner/BenedictCumberbatch4_1_cut.png,0,135,135,23,,,1.ja,4.563,None,act,1.948,None,None,None,None,None,Cumberbatch,"['lshift', 'c', 'u', 'm', 'b', 'e', 'r', 'b', 'a', 't', 'c', 'h', 'return']","[2.382824566688214, 2.532650337248924, 3.015780250530952, 3.2489917210950807, 3.4656533996967482, 3.6488940769049805, 3.748805831448408, 4.415256936699734, 5.081788235926069, 5.364896079830942, 5.764608857072744, 5.881390217167791, 13.661491267997917]",2017_Feb_20_1627,60.0123010701,famFaceGrey,001,20,
23,./greyInner/BenedictCumberbatch3_9_cut.png,0,136,136,22,,,2.nein,7.652,None,act,2.636,None,None,None,None,None,,['return'],[0.6669364392146235],2017_Feb_20_1627,60.0123010701,famFaceGrey,001,20,
113,./greyInner/JoshRadnor(Ted)6_2_cut.png,0,137,137,112,,,2.nein,4.594,None,dummy,1.212,None,None,None,None,None,,['return'],[0.7839779485802865],2017_Feb_20_1627,60.0123010701,famFaceGrey,001,20,
158,./greyInner/NicoleKidman5_1_cut.png,0,138,138,157,,,1.ja,5.557,None,dummy,3.874,None,None,None,None,None,,['return'],[1.0332570848950127],2017_Feb_20_1627,60.0123010701,famFaceGrey,001,20,
116,./greyInner/JudithRakers1_1_cut.png,0,139,139,115,,,2.nein,8.691,None,None,None,music,0.744,None,None,None,,['return'],[0.6163959478326433],2017_Feb_20_1627,60.0123010701,famFaceGrey,001,20,
121,./greyInner/KaleyCuoco(Penny)10_1_cut.png,0,140,140,120,,,2.nein,2.508,None,act,1.708,None,None,None,None,None,,['return'],[0.6835773315360711],2017_Feb_20_1627,60.0123010701,famFaceGrey,001,20,
103,./greyInner/JimParsons(SheldonCooper)6_1_cut.png,0,141,141,102,,,1.ja,1.228,None,act,1.211,None,None,None,None,None,Sheldon aus tbbt,"['lshift', 's', 'h', 'e', 'l', 'd', 'o', 'n', 'space', 'a', 'u', 's', 'space', 't', 'b', 'b', 't', 'return']","[0.7002365080843447, 0.8668821639294038, 1.0168593407215667, 1.1498337899574835, 1.3833923400634376, 1.7997909182558942, 1.933068821512279, 2.1164567348678247, 2.299573913347558, 2.399563616439991, 2.582850485381641, 2.9160558291223424, 3.0826860877241415, 3.865751108038239, 4.381932488857274, 5.131714441427903, 5.614952456195169, 6.314674118933908]",2017_Feb_20_1627,60.0123010701,famFaceGrey,001,20,
59,./greyInner/ElvisPresley5_2_cut.png,0,142,142,58,,,1.ja,1.948,None,None,None,music,1.049,None,None,None,Elvis,"['lshift', 'e', 'l', 'v', 'i', 's', 'return']","[0.8334034228719247, 1.1332942628287128, 1.333176153133536, 1.8996317813252972, 1.9997180379687052, 2.132904840862466, 2.716099198030861]",2017_Feb_20_1627,60.0123010701,famFaceGrey,001,20,
69,./greyInner/EmmaWatson(HermioneGranger)4_1_cut.png,0,143,143,68,,,1.ja,2.027,None,act,0.56,None,None,None,None,None,emma watson,"['e', 'm', 'm', 'a', 'space', 'w', 'a', 't', 's', 'o', 'n', 'return']","[0.8167137726086366, 1.0665561914393038, 1.216643715149985, 1.2499444255699927, 1.4164194286277052, 1.5663619616207143, 1.749616752971633, 2.21623023498978, 2.632607000421558, 2.7493116950718104, 2.93251131296347, 3.282381927998358]",2017_Feb_20_1627,60.0123010701,famFaceGrey,001,20,
114,./greyInner/JoshRadnor(Ted)7_1_cut.png,0,144,144,113,,,1.ja,8.923,None,act,0.942,None,None,None,None,None,serie,"['s', 'e', 'r', 'i', 'e', 'return']","[6.647695658073644, 6.831027756419644, 6.99725030882837, 7.29733329355804, 7.413946246295382, 15.70998552979654]",2017_Feb_20_1627,60.0123010701,famFaceGrey,001,20,
67,./greyInner/EmmaWatson(HermioneGranger)16_1_cut.png,0,145,145,66,,,1.ja,2.408,None,dummy,0.712,None,None,None,None,None,emma watson,"['e', 'm', 'm', 'a', 'space', 'w', 'a', 't', 's', 'o', 'n', 'return']","[0.6667385204709717, 0.9332940062049602, 1.0664798467732908, 1.1663932051960728, 1.29959508455795, 1.4666882228084432, 1.6495683478860883, 2.4657675959242624, 2.915781244937534, 3.148976997479622, 3.365555274340295, 4.181887002832809]",2017_Feb_20_1627,60.0123010701,famFaceGrey,001,20,
14,./greyInner/BarackObama4_1_cut.png,0,146,146,13,,,1.ja,1.765,None,None,None,None,None,polit,1.232,None,Barak Obama,"['lshift', 'lshift', 'b', 'a', 'r', 'a', 'k', 'space', 'lshift', 'o', 'b', 'a', 'm', 'a', 'return']","[0.4337259309795627, 0.7503237430973968, 0.900008372253069, 1.1001311652726145, 1.8998027548877872, 2.132401543443848, 2.3161564244510373, 2.4829140310903313, 2.666144443472149, 2.849439331810572, 3.198631505776575, 3.3152851970589836, 3.4818002971042006, 3.5484677977874526, 3.8982784277250175]",2017_Feb_20_1627,60.0123010701,famFaceGrey,001,20,
125,./greyInner/KaleyCuoco(Penny)7_1_cut.png,0,147,147,124,,,2.nein,4.778,None,None,None,host,1.379,None,None,None,,['return'],[0.7004684290732257],2017_Feb_20_1627,60.0123010701,famFaceGrey,001,20,
208,./greyInner/WillSmith4_1_cut.png,0,148,148,207,,,1.ja,1.604,None,act,3.039,None,None,None,None,None,Will Smith,"['lshift', 'w', 'i', 'l', 'l', 'space', 'lshift', 's', 'm', 'i', 't', 'h', 'return']","[1.2333404224809783, 1.4499065098607389, 1.8495054116501706, 2.0829488032031804, 2.5827677251945715, 2.816072541550966, 2.9992448934899585, 3.1825664062307624, 3.682225581815146, 3.915315157530131, 4.148800570725143, 4.2651216173799185, 4.53198087790588]",2017_Feb_20_1627,60.0123010701,famFaceGrey,001,20,
207,./greyInner/WillSmith14_1_cut.png,0,149,149,206,,,1.ja,4.606,None,act,0.592,None,None,None,None,None,Will Smith,"['lshift', 'w', 'i', 'l', 'l', 'space', 'lshift', 's', 'm', 'i', 't', 'h', 'return']","[0.7833428122612531, 0.9497677742729138, 1.4163504618045408, 1.6495920853012649, 1.7661450529449212, 1.9161026624060469, 2.2493285358068533, 2.4492633541412943, 2.615799625396903, 2.78261721713352, 3.0490739038832544, 3.165742030079855, 3.3823594416062406]",2017_Feb_20_1627,60.0123010701,famFaceGrey,001,20,
8,./greyInner/AngelaMerkel4_1_cut.png,0,150,150,7,,,1.ja,1.659,None,None,None,None,None,polit,1.41,None,Angela Merkel,"['lshift', 'a', 'n', 'g', 'e', 'l', 'a', 'space', 'lshift', 'm', 'e', 'r', 'k', 'e', 'l', 'return']","[0.23356272019373137, 0.550274086985155, 0.7835394479006936, 1.116724582760071, 1.2498315124503279, 1.5831241072410194, 1.6662361853850598, 1.8164491324787377, 1.9163204692595173, 2.049486100942886, 2.2661644598920248, 2.3495559338589374, 2.5494134451946593, 2.632733386133623, 3.249132862500119, 3.4823587679784396]",2017_Feb_20_1627,60.0123010701,famFaceGrey,001,20,
112,./greyInner/JoshRadnor(Ted)3_1_cut.png,0,151,151,111,,,1.ja,4.352,None,act,1.082,None,None,None,None,None,Amerikanische Serie,"['lshift', 'a', 'm', 'e', 'r', 'i', 'k', 'a', 'n', 'i', 's', 'c', 'h', 'e', 'space', 'lshift', 's', 'e', 'r', 'i', 'e', 'return']","[0.300325491323747, 0.6501457445374399, 0.9831830016992171, 1.0834617238942883, 1.1832281669485383, 1.3830016349966172, 1.8837251450786425, 1.9829363250173628, 2.1329449378536083, 2.282951946806861, 2.5828296349463926, 2.682704500261025, 2.7327044842240866, 2.8992205465947336, 2.9990023868958815, 3.115880300541903, 3.282544240613788, 3.4823424084061116, 3.6489463633806736, 3.8821453236814705, 4.03223252661337, 4.332076212511311]",2017_Feb_20_1627,60.0123010701,famFaceGrey,001,20,
85,./greyInner/HughLaurie(DrHouse)9_2_cut.png,0,152,152,84,,,1.ja,1.936,None,act,1.966,None,None,None,None,None,Hugh Laurie,"['lshift', 'h', 'u', 'g', 'h', 'space', 'lshift', 'l', 'a', 'u', 'r', 'i', 'e', 'return']","[1.033114339614258, 2.082636367456871, 2.2492717584682396, 2.5158926824915397, 2.6156491814908804, 2.7989658825936203, 2.932341943280335, 3.1989022406523873, 3.398842832950322, 3.4986638079099066, 3.8320353135786718, 3.9818691035361553, 4.098551023096661, 4.498207023003488]",2017_Feb_20_1627,60.0123010701,famFaceGrey,001,20,
171,./greyInner/SahraWagenknecht12_1_cut.png,0,153,153,170,,,2.nein,2.596,None,None,None,host,0.595,None,None,None,,['return'],[0.7839920627193351],2017_Feb_20_1627,60.0123010701,famFaceGrey,001,20,
122,./greyInner/KaleyCuoco(Penny)14_2_cut.png,0,154,154,121,,,1.ja,8.057,None,None,None,music,1.376,None,None,None,girlgroup,"['g', 'i', 'r', 'l', 'g', 'r', 'o', 'u', 'p', 'e', 'backspace', 'return']","[2.482698148898635, 2.615956164048839, 3.19905172223298, 3.882151739198889, 4.331920315413299, 4.548347506817663, 4.748185771601129, 4.94833583057698, 5.9312942891301645, 7.180666771240794, 8.047053977927135, 8.263603064180643]",2017_Feb_20_1627,60.0123010701,famFaceGrey,001,20,
206,./greyInner/WillSmith1_1_cut.png,0,155,155,205,,,1.ja,2.029,None,act,0.746,None,None,None,None,None,Will Smith,"['lshift', 'w', 'lshift', 'i', 'l', 'l', 'backspace', 'backspace', 'backspace', 'i', 'l', 'l', 'space', 'lshift', 's', 'm', 'i', 't', 'h', 'return']","[0.767474348351243, 1.2172461323243624, 1.3003575689144782, 1.4005958733469015, 1.6338121555454563, 1.7837226109477342, 2.7832950166484807, 2.9164946505807166, 3.4829570150650397, 3.816129639661085, 4.06607117825115, 4.199285888651502, 4.3661576915183105, 4.4658991140495345, 4.615925369558681, 4.782540872463869, 4.965632709649071, 5.265379841992399, 5.365527687612484, 5.648803938871424]",2017_Feb_20_1627,60.0123010701,famFaceGrey,001,20,
80,./greyInner/GeorgeClooney4_2_cut.png,0,156,156,79,,,1.ja,2.116,None,act,0.967,None,None,None,None,None,George Clooney,"['lshift', 'g', 'e', 'o', 'r', 'g', 'e', 'space', 'k', 'backspace', 'lshift', 'c', 'l', 'o', 'o', 'n', 'e', 'y', 'return']","[0.28356591191186453, 1.133387287842197, 1.2998170614919218, 1.6164713301695883, 2.182810516700556, 2.482705847520265, 2.6327192719909362, 2.765992042830476, 3.1822728962615656, 3.9987743152159965, 4.181911061026767, 4.581930500047747, 4.848286142383586, 5.098351500477293, 5.231598288468376, 5.431487556619686, 5.548219196447462, 5.914490442639362, 6.16442684881622]",2017_Feb_20_1627,60.0123010701,famFaceGrey,001,20,
37,./greyInner/CarenMiosga13_1_cut.png,0,157,157,36,,,2.nein,2.676,None,None,None,host,1.61,None,None,None,,['return'],[0.5336691215634346],2017_Feb_20_1627,60.0123010701,famFaceGrey,001,20,
188,./greyInner/TaylorSwift3_1_cut.png,0,158,158,187,,,1.ja,1.095,None,None,None,music,1.228,None,None,None,Taylor Swift,"['lshift', 't', 'a', 'y', 'l', 'o', 'r', 'space', 'lshift', 's', 'w', 'i', 'f', 't', 'return']","[0.6666034738118469, 0.7667875671104412, 1.0664609209925402, 1.2499120272041182, 1.5665547479475208, 1.7495878831396112, 1.9828105808555847, 2.1494453303203045, 2.2660656609041325, 2.4160745945155213, 2.682309304331284, 2.9158617596913246, 3.349053277994244, 3.5487895360311086, 3.76548585843193]",2017_Feb_20_1627,60.0123010701,famFaceGrey,001,20,
198,./greyInner/UrsulavonderLeyen5_1_cut.png,0,159,159,197,,,1.ja,2.007,None,None,None,None,None,polit,1.242,None,Ursula Von der Leyen,"['lshift', 'u', 'r', 's', 'u', 'l', 'a', 'space', 'lshift', 'v', 'o', 'n', 'space', 'd', 'e', 'space', 'backspace', 'r', 'space', 'lshift', 'l', 'y', 'backspace', 'e', 'y', 'e', 'n', 'return']","[0.41681590766165755, 0.7834268555525341, 1.149907568418712, 1.4497348947406863, 1.6161438179588004, 1.8495576981258637, 2.0161170652463625, 2.99917881365036, 3.13256193140478, 3.515597247871483, 3.682091176706308, 3.8488619351592206, 4.031856256460742, 4.165176181362767, 4.331919353084231, 4.481770464943111, 5.064972520729498, 5.181618513390276, 5.39813616360334, 5.664522279650555, 6.1979748774720065, 6.464210228838056, 7.0308268865410355, 7.197487618850573, 7.430663162511337, 8.16367398773582, 8.313590537880373, 8.546791102060524]",2017_Feb_20_1627,60.0123010701,famFaceGrey,001,20,
178,./greyInner/Shakira3_1_cut.png,0,160,160,177,,,1.ja,2.995,None,None,None,music,1.08,None,None,None,Brittney Spears,"['lshift', 'b', 'r', 'i', 't', 't', 'n', 'e', 'y', 'space', 'lshift', 's', 'p', 'e', 'a', 'r', 's', 'return']","[0.3504207457335724, 0.7834878029752872, 1.06669155887721, 1.2497718481281481, 1.5666073551983573, 1.700957612349157, 1.849716482203803, 1.9498174945401843, 2.4162282461802533, 2.549514489608555, 2.6824963166909583, 2.8495179219098645, 3.44901667745944, 3.565754091254348, 3.8321007518643455, 4.08239001155016, 4.3321737283877155, 4.931891894666478]",2017_Feb_20_1627,60.0123010701,famFaceGrey,001,20,
35,./greyInner/BritneySpears8_5_cut.png,0,161,161,34,,,1.ja,1.938,None,None,None,music,1.354,None,None,None,Brittney Spears,"['lshift', 'b', 'r', 'i', 't', 't', 'n', 'e', 'y', 'space', 'lshift', 's', 'r', 'backspace', 'p', 'e', 'a', 'r', 's', 'return']","[0.7167282396039809, 0.8833206466442789, 1.0832657298087724, 1.2497686403694388, 1.5163969422355876, 1.6162644297037332, 1.78294954098601, 1.8829819072743703, 2.2327858009157353, 2.3658096496437793, 2.799256505575613, 3.015820026746951, 3.4155174067454936, 3.8155878491343174, 4.048654970534699, 4.781745348187542, 4.981571423482819, 5.198191080438846, 5.448122995752783, 6.047800423486478]",2017_Feb_20_1627,60.0123010701,famFaceGrey,001,20,
70,./greyInner/EmmaWatson(HermioneGranger)9_1_cut.png,0,162,162,69,,,1.ja,2.028,None,act,1.246,None,None,None,None,None,Emma Watson,"['lshift', 'e', 'm', 'm', 'a', 'space', 'lshift', 'w', 'a', 't', 's', 'o', 'n', 'return']","[0.6834984206579975, 0.9168876010808162, 1.1334389327639656, 1.3002273338934174, 1.4832437887343985, 2.299568780930713, 2.3995446906592406, 2.5828761474549538, 2.782967825212836, 3.149134819232131, 3.532416491601907, 3.6990384100281517, 3.8656616115586075, 4.19882621675788]",2017_Feb_20_1627,60.0123010701,famFaceGrey,001,20,
142,./greyInner/MariskaHargitay(Liv)14_1_cut.png,0,163,163,141,,,2.nein,3.543,None,None,None,host,0.629,None,None,None,,['return'],[0.7500238176107814],2017_Feb_20_1627,60.0123010701,famFaceGrey,001,20,
76,./greyInner/GeorgeClooney11_1_cut.png,0,164,164,75,,,1.ja,3.162,None,act,0.931,None,None,None,None,None,George Clooney,"['lshift', 'g', 'e', 'o', 'r', 'g', 'e', 'space', 'lshift', 'c', 'l', 'o', 'o', 'n', 'e', 's', 'backspace', 'y', 'return']","[0.6172864217805909, 1.0505436991443275, 1.250448043763754, 1.6504732567518658, 1.8667737416690215, 2.1167771900109074, 2.2499338399684348, 2.3834273046413728, 2.566324110066489, 2.8166037464725378, 3.0164821082435083, 3.233064875967102, 3.3996085250691976, 3.599624820486497, 3.7162396978819743, 3.9325892615161138, 4.465839449730993, 4.615794813758839, 4.948716591588891]",2017_Feb_20_1627,60.0123010701,famFaceGrey,001,20,
195,./greyInner/TomCruise7_1_cut.png,0,165,165,194,,,1.ja,3.529,None,act,0.996,None,None,None,None,None,Tom Cruiz,"['lshift', 't', 'o', 'm', 'space', 'lshift', 'c', 'r', 'u', 'i', 'z', 'return']","[0.43432546117401216, 0.9508330710996233, 1.1506302765665168, 1.3505365458404412, 1.5337579764964175, 1.6170480852742912, 1.8337046314591134, 2.133709988418559, 2.55005275160147, 2.7165604738002003, 2.9497790014320344, 3.2664153066580184]",2017_Feb_20_1627,60.0123010701,famFaceGrey,001,20,
157,./greyInner/NicoleKidman3_1_cut.png,0,166,166,156,,,1.ja,7.45,None,act,16.259,None,None,None,None,None,,['return'],[1.7163837262705783],2017_Feb_20_1627,60.0123010701,famFaceGrey,001,20,
182,./greyInner/SigmarGabriel11_3_cut.png,0,167,167,181,,,2.nein,5.7,None,act,1.58,None,None,None,None,None,,['return'],[1.000330399194354],2017_Feb_20_1627,60.0123010701,famFaceGrey,001,20,
179,./greyInner/Shakira7_1_cut.png,0,168,168,178,,,2.nein,3.577,None,None,None,music,1.679,None,None,None,,['return'],[0.4503087628581852],2017_Feb_20_1627,60.0123010701,famFaceGrey,001,20,
132,./greyInner/LeonardoDiCaprio2_1_cut.png,0,169,169,131,,,1.ja,2.593,None,act,1.142,None,None,None,None,None,Leonardo DiCaprio,"['lshift', 'l', 'e', 'o', 'n', 'a', 'r', 'd', 'o', 'space', 'lshift', 'd', 'i', 'lshift', 'c', 'a', 'p', 'r', 'i', 'o', 'return']","[0.7500879727958818, 0.966597603608534, 1.1832050710800104, 1.2827081571049348, 1.532772873648355, 1.6827215013836394, 1.9162470115697943, 2.1829365816374775, 2.366067232705973, 2.482792777791474, 2.6992292717004602, 2.998778806078917, 3.3156512023779214, 3.498755870597961, 3.782060670913779, 4.18194891258463, 4.68173575698529, 5.431436874023348, 5.5480232023619465, 5.714540547840443, 6.0477086815735674]",2017_Feb_20_1627,60.0123010701,famFaceGrey,001,20,
88,./greyInner/Ice-T(OdafinFinTutuola)5_1_cut.png,0,170,170,87,,,2.nein,1.845,None,None,None,None,None,sport,1.029,None,,['return'],[0.8336956497332721],2017_Feb_20_1627,60.0123010701,famFaceGrey,001,20,
134,./greyInner/LeonardoDiCaprio4_1_cut.png,0,171,171,133,,,1.ja,1.194,None,act,0.661,None,None,None,None,None,Leonardo DiCaprio,"['lshift', 'l', 'e', 'o', 'n', 'a', 'r', 'd', 'o', 'space', 'lshift', 'd', 'i', 'lshift', 'c', 'a', 'p', 'r', 'i', 'o', 'return']","[0.6666827054614259, 1.3663790268983576, 1.53300190765367, 1.6330945798181347, 1.932918056827475, 2.04936709307367, 2.3991244742064737, 3.0991293820807186, 3.1826815647837066, 3.3823709895368665, 3.6152927994444326, 3.865555755506648, 4.198389640732785, 4.382124954408937, 4.698071591410553, 4.9149052059037786, 5.164901276399178, 5.6310643890283245, 5.747925622330513, 5.9142094429371355, 6.247782075104624]",2017_Feb_20_1627,60.0123010701,famFaceGrey,001,20,
151,./greyInner/NeilPatrickHarris(Barney)1_1_cut.png,0,172,172,150,,,1.ja,4.776,None,act,1.777,None,None,None,None,None,Barny aus How I met yout mother,"['lshift', 'b', 'a', 'r', 'n', 'y', 'space', 'a', 'u', 's', 'space', 'lshift', 'h', 'o', 'w', 'lshift', 'space', 'lshift', 'i', 'space', 'm', 'e', 't', 'space', 'y', 'o', 'u', 't', 'space', 'm', 'o', 't', 'h', 'e', 'r', 'return']","[0.5832893068363774, 0.8999471040515346, 0.9999948675867927, 1.283142166925245, 2.082451600526838, 2.2161920626567735, 2.3993676223544753, 2.6159022736901534, 2.9825744897825643, 3.532244234935206, 3.6819901322924125, 4.848177078572917, 5.31476361541354, 6.114413392264396, 6.264354642156832, 6.530921996600227, 7.19739683926673, 7.313873141465592, 7.647209361781279, 8.06376191241361, 8.496862009578763, 8.663482003346871, 8.913223698538786, 9.046649479492771, 9.646376627497375, 9.762972258336958, 9.996227033647301, 10.5960882659856, 10.795961174564582, 11.012466956071876, 11.345583124108089, 11.612307017196144, 11.695528159154492, 12.012110894800571, 12.078653934429894, 12.511925646707823]",2017_Feb_20_1627,60.0123010701,famFaceGrey,001,20,
127,./greyInner/KatjaBurkard10_1_cut.png,0,173,173,126,,,1.ja,4.96,None,None,None,host,0.529,None,None,None,,['return'],[0.8500167284655618],2017_Feb_20_1627,60.0123010701,famFaceGrey,001,20,
169,./greyInner/RobertSeanLeonard(Wilson)2_6_cut.png,0,174,174,168,,,1.ja,2.456,None,act,1.364,None,None,None,None,None,Dr Wilson aus Dr House,"['lshift', 'd', 'r', 'space', 'lshift', 'w', 'i', 'l', 's', 'o', 'n', 'space', 'a', 'u', 's', 'space', 'lshift', 'd', 'r', 'space', 'lshift', 'h', 'o', 'u', 's', 'e', 'return']","[1.1334010812097404, 1.3833041266880173, 1.6332222486344108, 1.849561868213641, 1.9829401743299968, 2.149752312874625, 2.3329304387807497, 2.5328812959087372, 2.6995599916735955, 2.882740042234218, 3.149314453748957, 3.3492197606974514, 3.599139807298343, 3.882364092856733, 4.682069043166848, 4.798637408053764, 4.915285325369041, 5.081905960691074, 5.314993611747923, 5.515060268986417, 5.681569595064502, 6.198194608976337, 6.514417434045754, 6.74753235105527, 6.947720582364127, 7.131092456922488, 10.51288476670743]",2017_Feb_20_1627,60.0123010701,famFaceGrey,001,20,
55,./greyInner/DannFlorek(DonaldDonCragen)8_1_cut.png,0,175,175,54,,,2.nein,1.966,None,None,None,None,None,polit,1.266,None,,['return'],[0.650434763640078],2017_Feb_20_1627,60.0123010701,famFaceGrey,001,20,
172,./greyInner/SahraWagenknecht2_2_cut.png,0,176,176,171,,,2.nein,2.967,None,None,None,host,1.018,None,None,None,,['return'],[0.6336806374201842],2017_Feb_20_1627,60.0123010701,famFaceGrey,001,20,
78,./greyInner/GeorgeClooney16_1_cut.png,0,177,177,77,,,2.nein,4.206,None,None,None,music,0.691,None,None,None,,['return'],[0.5669210740488779],2017_Feb_20_1627,60.0123010701,famFaceGrey,001,20,
44,./greyInner/CobieSmulders(Robin)4_7_cut.png,0,178,178,43,,,1.ja,1.515,None,act,1.513,None,None,None,None,None,how I met your Mother,"['h', 'o', 'w', 'space', 'i', 'backspace', 'lshift', 'i', 'space', 'm', 'e', 't', 'space', 'y', 'o', 'u', 'r', 'space', 'lshift', 'm', 'o', 't', 'h', 'e', 'r', 'return']","[3.6490785230598703, 3.7820346880653233, 4.1819906134551275, 4.265294515596906, 4.48209156163648, 4.93184121207014, 5.048358573585574, 5.531627703618142, 5.715004389818205, 5.864783647870354, 5.997970129988971, 6.247885364951799, 6.381217479338375, 6.864439455308457, 6.996962572829943, 7.163620738934696, 7.513303700055985, 7.663499325248267, 7.829772881028475, 7.980464105014107, 8.280278921076388, 8.646967496737489, 8.7469350662941, 9.01352262961882, 9.096793171065656, 9.913047592559451]",2017_Feb_20_1627,60.0123010701,famFaceGrey,001,20,
204,./greyInner/Usher4_1_cut.png,0,179,179,203,,,1.ja,9.141,None,None,None,music,0.659,None,None,None,Usher,"['lshift', 'u', 's', 'h', 'e', 'r', 'return']","[0.4834943147288868, 0.9497956817795057, 1.5664546658626932, 1.732933839004545, 1.8494714094013034, 1.966203370007861, 2.3660072476086498]",2017_Feb_20_1627,60.0123010701,famFaceGrey,001,20,
222,./greyInner/notfamousface7_cut.png,0,180,180,221,,,2.nein,2.876,None,None,None,None,None,sport,1.745,None,,['return'],[0.6501986725634197],2017_Feb_20_1627,60.0123010701,famFaceGrey,001,20,
183,./greyInner/SigmarGabriel3_3_cut.png,0,181,181,182,,,2.nein,1.532,None,None,None,None,None,polit,0.51,None,,['return'],[0.450602272823744],2017_Feb_20_1627,60.0123010701,famFaceGrey,001,20,
97,./greyInner/JasonSegel(Marshall)14_1_cut.png,0,182,182,96,,,1.ja,1.536,None,act,3.453,None,None,None,None,None,amerikanische Serie,"['a', 'm', 'e', 'r', 'i', 'k', 'a', 'n', 'i', 's', 'c', 'h', 'e', 'space', 'lshift', 's', 'e', 'r', 'i', 'e', 'return']","[1.4664912663938594, 1.5663593954159296, 1.7662881190044573, 1.8496340427918767, 2.132783266788465, 2.5492456793872407, 2.6656629588178475, 2.8158419036626583, 3.065500197117217, 3.232287956692744, 3.3323264177270175, 3.398997126168979, 3.598847259658214, 3.715302390646684, 3.8821443613524025, 4.048723937357863, 4.248508632561425, 4.415305373862793, 4.615130486832641, 4.7816503985159216, 5.731252652414696]",2017_Feb_20_1627,60.0123010701,famFaceGrey,001,20,
190,./greyInner/TaylorSwift8_1_cut.png,0,183,183,189,,,1.ja,1.779,None,None,None,music,1.029,None,None,None,Taylor Swift,"['lshift', 't', 'a', 'y', 'l', 'o', 'r', 'space', 'lshift', 's', 'w', 'i', 'f', 't', 'return']","[0.28311682562707574, 0.8330358136699942, 1.316165726952022, 1.5159995008725673, 1.9160231099813245, 2.098881422294653, 2.2990244241991604, 2.4490096203917346, 2.582147986118798, 2.74878177325445, 3.0821770163420297, 3.598560165210074, 3.8982591811691236, 4.131645153829595, 4.964363720115216]",2017_Feb_20_1627,60.0123010701,famFaceGrey,001,20,
165,./greyInner/OmarEpps(DrEricForeman)9_1_cut.png,0,184,184,164,,,2.nein,7.508,None,act,0.93,None,None,None,None,None,,['return'],[0.6339391828078078],2017_Feb_20_1627,60.0123010701,famFaceGrey,001,20,
220,./greyInner/notfamousface5_1_cut.png,0,185,185,219,,,2.nein,2.541,None,None,None,host,4.695,None,None,None,,['return'],[0.5336797071722685],2017_Feb_20_1627,60.0123010701,famFaceGrey,001,20,
154,./greyInner/NeilPatrickHarris(Barney)2_2_cut.png,0,186,186,153,,,1.ja,8.043,None,act,0.546,None,None,None,None,None,,['return'],[0.8499994065641658],2017_Feb_20_1627,60.0123010701,famFaceGrey,001,20,
2,./greyInner/AlysonHannigan(Lily)12_2_cut.png,0,187,187,1,,,1.ja,2.233,None,act,0.949,None,None,None,None,None,,['return'],[0.8168337428069208],2017_Feb_20_1627,60.0123010701,famFaceGrey,001,20,
92,./greyInner/JanHofer3_1_cut.png,0,188,188,91,,,2.nein,2.162,None,None,None,None,None,polit,0.746,None,,['return'],[0.4176957960044092],2017_Feb_20_1627,60.0123010701,famFaceGrey,001,20,
72,./greyInner/GuentherJauch3_1_cut.png,0,189,189,71,,,1.ja,1.151,None,None,None,host,1.15,None,None,None,Günther Jauch,"['lshift', 'lshift', 'g', u'\xfc', 'n', 't', 'h', 'e', 'r', 'space', 'lshift', 'j', 'a', 'u', 'c', 'h', 'return']","[0.6166326804559503, 0.9666142839596432, 1.0665946845510916, 1.4828646315982041, 1.7496728887563222, 1.9827775409357855, 2.499299906558008, 2.615893291964312, 2.6658377816929715, 2.849033229496854, 3.1156079617867363, 3.4649002178375667, 3.63152855178123, 3.7148661353967327, 3.898048752165778, 4.031344939645351, 4.498431886921026]",2017_Feb_20_1627,60.0123010701,famFaceGrey,001,20,
119,./greyInner/JudithRakers7_1_cut.png,0,190,190,118,,,2.nein,2.361,None,None,None,host,4.21,None,None,None,,['return'],[0.6668940967902017],2017_Feb_20_1627,60.0123010701,famFaceGrey,001,20,
108,./greyInner/JoachimLoew15_1_cut.png,0,191,191,107,,,1.ja,4.478,None,None,None,None,None,sport,1.229,None,Jogi Löw,"['lshift', 'j', 'i', 'backspace', 'o', 'g', 'i', 'space', 'lshift', 'l', u'\xf6', 'w', 'return']","[0.7002875114558265, 0.9001293047731451, 1.1834668242336193, 2.0993532836728264, 2.6327593689857167, 3.9322838828411477, 4.048811829961778, 4.215631346352893, 4.315465473126096, 4.498619861613406, 5.381768572366127, 5.5982968081843865, 6.148234080454131]",2017_Feb_20_1627,60.0123010701,famFaceGrey,001,20,
181,./greyInner/SigmarGabriel1_2_cut.png,0,192,192,180,,,2.nein,2.643,None,None,None,None,None,polit,2.712,None,,['return'],[0.683518308767816],2017_Feb_20_1627,60.0123010701,famFaceGrey,001,20,
146,./greyInner/MilaKunis1_3_cut.png,0,193,193,145,,,2.nein,3.709,None,None,None,music,0.589,None,None,None,,['return'],[0.2505218222249823],2017_Feb_20_1627,60.0123010701,famFaceGrey,001,20,
6,./greyInner/AngelaMerkel1_1_cut.png,0,194,194,5,,,1.ja,0.96,None,None,None,None,None,polit,1.061,None,Angela Merkel,"['lshift', 'a', 'n', 'g', 'e', 'l', 'a', 'space', 'lshift', 'm', 'e', 'r', 'k', 'e', 'l', 'return']","[1.3831139065659954, 1.5497428820635832, 1.716387254804431, 2.1827550224697916, 2.3326943477040913, 2.4660277451912407, 2.6159025944689347, 2.8159426273014105, 2.9824878802828607, 3.1324057135316252, 3.3821528619155288, 3.4989149754546816, 3.7154387204136583, 3.815478143773362, 4.198660375608597, 4.6984392006124835]",2017_Feb_20_1627,60.0123010701,famFaceGrey,001,20,
110,./greyInner/JoachimLoew8_1_cut.png,0,195,195,109,,,1.ja,2.59,None,None,None,None,None,sport,1.207,None,Jogi Löw,"['lshift', 'j', 'o', 'g', 'i', 'space', 'lshift', 'l', u'\xf6', 'w', 'return']","[0.28343182757816976, 1.01668868793422, 1.3499296378031431, 1.8163349362512236, 2.1326639381441055, 2.299302216142678, 2.465915794397006, 2.682502732208377, 3.2157253336954454, 3.831987197190756, 4.615111240276747]",2017_Feb_20_1627,60.0123010701,famFaceGrey,001,20,
