num,pic,trials.thisRepN,trials.thisTrialN,trials.thisN,trials.thisIndex,key_resp_2.keys,key_resp_2.rt,ratingBekannt.response,ratingBekannt.rt,key_resp_5.keys,ratingK1.response,ratingK1.rt,ratingK2.response,ratingK2.rt,ratingK3.response,ratingK3.rt,key_resp_6.keys,inputText,key_resp_4.keys,key_resp_4.rt,date,frameRate,expName,session,participant,
,,,,,,space,78.5828950732,,,,,,,,,,,,,,2017_Feb_22_1031,60.0484827242,famFaceGrey,001,21,
198,./greyInner/UrsulavonderLeyen5_1_cut.png,0,0,0,197,,,1.ja,7.389,None,None,None,None,None,polit,4.736,None,,['return'],[14.611141638277331],2017_Feb_22_1031,60.0484827242,famFaceGrey,001,21,
99,./greyInner/JasonSegel(Marshall)7_1_cut.png,0,1,1,98,,,1.ja,4.658,None,act,2.326,None,None,None,None,None,,['return'],[2.082936934486497],2017_Feb_22_1031,60.0484827242,famFaceGrey,001,21,
187,./greyInner/TaylorSwift2_1_cut.png,0,2,2,186,,,1.ja,5.958,None,None,None,music,1.942,None,None,None,tailor,"['t', 'a', 'i', 'l', 'o', 'r', 'return']","[6.014692178636324, 6.264374530292116, 7.180896126024891, 7.663972790527623, 7.863615061214659, 8.230318392568734, 12.112154809030471]",2017_Feb_22_1031,60.0484827242,famFaceGrey,001,21,
112,./greyInner/JoshRadnor(Ted)3_1_cut.png,0,3,3,111,,,1.ja,4.871,None,act,2.4,None,None,None,None,None,Ted Mosby,"['lshift', 't', 'e', 'd', 'space', 'lshift', 'm', 'o', 's', 'b', 'y', 'return']","[2.7829873925365973, 3.1661029029928613, 3.5989024331211112, 3.7991766323684715, 4.732012570544612, 5.532423227879917, 6.414559249067679, 7.547529848990962, 8.180919863429153, 8.830378826736705, 8.963677580410149, 10.413076622760855]",2017_Feb_22_1031,60.0484827242,famFaceGrey,001,21,
92,./greyInner/JanHofer3_1_cut.png,0,4,4,91,,,2.nein,4.894,None,None,None,None,None,polit,13.941,None,,['return'],[1.566743364179274],2017_Feb_22_1031,60.0484827242,famFaceGrey,001,21,
177,./greyInner/Shakira2_1_cut.png,0,5,5,176,,,1.ja,32.683,None,None,None,music,1.778,None,None,None,Shakira,"['lshift', 's', 'h', 'a', 'k', 'i', 'r', 'a', 'return']","[2.632719913526671, 2.9659586179768667, 4.298834524845006, 4.515413764049299, 4.931851156114135, 5.115079002280254, 5.514771891437704, 5.698299021518324, 6.647820439888164]",2017_Feb_22_1031,60.0484827242,famFaceGrey,001,21,
211,./greyInner/notfamousface10_4_cut.png,0,6,6,210,,,2.nein,3.359,None,act,3.081,None,None,None,None,None,,['return'],[1.083379284478724],2017_Feb_22_1031,60.0484827242,famFaceGrey,001,21,
159,./greyInner/NicoleKidman7_1_cut.png,0,7,7,158,,,1.ja,3.028,None,dummy,1.212,None,None,None,None,None,Nickole Kidmann,"['lshift', 'n', 'i', 'c', 'k', 'o', 'l', 'e', 'space', 'lshift', 'k', 'i', 'd', 'm', 'a', 'n', 'n', 'return']","[1.4832707339082845, 2.3662898511975072, 2.932809634570731, 4.515609116584528, 6.09822511477978, 6.33132463452057, 6.581226076144958, 6.814398732822156, 7.414291401189985, 8.080664557899581, 8.4803917700483, 8.880490119947353, 9.563411785493372, 10.96287852761452, 11.11283068388002, 11.396092500217492, 11.529322928661713, 12.645380297501106]",2017_Feb_22_1031,60.0484827242,famFaceGrey,001,21,
49,./greyInner/CristinMilioti(Tracy_Mutter)8_1_cut.png,0,8,8,48,,,1.ja,8.318,None,act,1.689,None,None,None,None,None,,['return'],[2.8821276809903793],2017_Feb_22_1031,60.0484827242,famFaceGrey,001,21,
155,./greyInner/NeilPatrickHarris(Barney)3_7_cut.png,0,9,9,154,,,1.ja,4.951,None,dummy,1.18,None,None,None,None,None,Steven,"['lshift', 's', 't', 'e', 'v', 'e', 'n', 'return']","[4.448888046317734, 4.732121313601965, 5.298457613156643, 5.481814090453554, 5.78154935411294, 5.8983082598715555, 6.24820165001438, 7.1811084796790965]",2017_Feb_22_1031,60.0484827242,famFaceGrey,001,21,
136,./greyInner/LisaEdelstein(DrLisaCuddy)1_1_cut.png,0,10,10,135,,,2.nein,3.511,None,act,4.977,None,None,None,None,None,,['return'],[1.283379861881258],2017_Feb_22_1031,60.0484827242,famFaceGrey,001,21,
151,./greyInner/NeilPatrickHarris(Barney)1_1_cut.png,0,11,11,150,,,1.ja,3.146,None,act,1.16,None,None,None,None,None,Steven,"['lshift', 's', 't', 'e', 'v', 'e', 'n', 'return']","[2.3993705093453173, 3.23230912789586, 3.6989213268097956, 3.915460148244165, 4.1652072966098785, 4.281989939830964, 4.51512121639098, 5.398266398609849]",2017_Feb_22_1031,60.0484827242,famFaceGrey,001,21,
138,./greyInner/LisaEdelstein(DrLisaCuddy)2_2_cut.png,0,12,12,137,,,2.nein,3.023,None,dummy,1.358,None,None,None,None,None,,['return'],[1.9663868538336828],2017_Feb_22_1031,60.0484827242,famFaceGrey,001,21,
22,./greyInner/BenedictCumberbatch2_2_cut.png,0,13,13,21,,,1.ja,3.875,None,act,0.894,None,None,None,None,None,,['return'],[1.399991531536216],2017_Feb_22_1031,60.0484827242,famFaceGrey,001,21,
88,./greyInner/Ice-T(OdafinFinTutuola)5_1_cut.png,0,14,14,87,,,1.ja,2.261,None,act,0.996,None,None,None,None,None,,['return'],[1.1833754031104036],2017_Feb_22_1031,60.0484827242,famFaceGrey,001,21,
104,./greyInner/JimParsons(SheldonCooper)8_1_cut.png,0,15,15,103,,,1.ja,2.509,None,act,1.193,None,None,None,None,None,Sheldon Cooper,"['lshift', 's', 'h', 'e', 'l', 'd', 'o', 'n', 'space', 'lshift', 'c', 'o', 'o', 'p', 'e', 'r', 'return']","[5.048196902527707, 5.264851203275612, 6.1811171406297944, 6.397638640162768, 7.213977104926016, 7.397356998902978, 7.580555012915283, 8.030349571985425, 8.963162414293038, 10.046235678571975, 14.44452581461519, 15.144120770855807, 15.277321046334691, 16.36035004351288, 16.59365389755112, 16.793446932919323, 17.659653542767046]",2017_Feb_22_1031,60.0484827242,famFaceGrey,001,21,
111,./greyInner/JoshRadnor(Ted)1_2_cut.png,0,16,16,110,,,1.ja,2.23,None,act,1.079,None,None,None,None,None,Ted Mosby,"['lshift', 't', 'e', 'd', 'space', 'lshift', 'm', 'o', 's', 'b', 'y', 'return']","[1.2833169898076449, 1.59984134422848, 1.9829587793210521, 2.1661009783274494, 2.88253057555994, 3.3658359532710165, 3.665657826408278, 3.982277451286791, 5.481746406760067, 6.564170741330599, 6.7477928210864775, 7.564078999421326]",2017_Feb_22_1031,60.0484827242,famFaceGrey,001,21,
34,./greyInner/BritneySpears7_1_cut.png,0,17,17,33,,,1.ja,2.445,None,None,None,music,1.746,None,None,None,B Speers,"['lshift', 'b', 'r', 'e', 'a', 't', 'n', 'y', 'backspace', 'backspace', 'backspace', 'backspace', 'backspace', 'i', 't', 'n', 'y', 'backspace', 'backspace', 'backspace', 'backspace', 'backspace', 'period', 'space', 'lshift', 's', 'p', 'e', 'e', 'r', 's', 'return']","[1.3832271404680796, 1.8162778381374665, 2.2501346456992906, 2.4327700187568553, 2.649414375453489, 3.115830901049776, 3.699044504784979, 3.898866409988841, 6.564435381471412, 6.964194029656937, 7.230565710779047, 7.713756250712322, 8.063803613273194, 9.84657865218469, 10.462743641342968, 12.145443971530767, 12.328857867716579, 20.725297768280143, 21.058592608489562, 21.25840938129113, 21.441169536177767, 21.841607266978826, 22.85780292234267, 23.707114906108472, 24.040511753060855, 24.240636470756726, 25.1901097727241, 25.8230997796054, 25.97312378967763, 26.35615974769462, 26.739646075089695, 27.805538260377944]",2017_Feb_22_1031,60.0484827242,famFaceGrey,001,21,
210,./greyInner/WillSmith6_1_cut.png,0,18,18,209,,,1.ja,2.444,None,act,1.611,None,None,None,None,None,Will Smith,"['lshift', 'w', 'i', 'l', 'l', 'space', 'lshift', 's', 'm', 'i', 't', 'h', 'return']","[1.1833869510446675, 1.549710804480128, 2.1830235119268764, 2.6496536742779426, 2.7661261271859985, 3.7491262865951285, 4.099016148189548, 4.332084873458371, 5.065282711060718, 6.131498559232568, 6.481306943751406, 6.697910882678116, 7.59752213433967]",2017_Feb_22_1031,60.0484827242,famFaceGrey,001,21,
186,./greyInner/TaylorSwift1_2_cut.png,0,19,19,185,,,1.ja,2.765,None,None,None,music,2.448,None,None,None,Tailor S,"['lshift', 't', 'a', 'i', 'l', 'o', 'r', 'space', 'lshift', 's', 'return']","[1.199994803435402, 1.5331783344154246, 1.8996888794354163, 2.4329506155918352, 3.0990944174991455, 3.315772455680417, 4.165557263157098, 4.915246832242701, 6.431121230532881, 6.714253453392303, 8.263783019472612]",2017_Feb_22_1031,60.0484827242,famFaceGrey,001,21,
19,./greyInner/BastianSchweinsteiger3_1_cut.png,0,20,20,18,,,1.ja,3.095,None,None,None,None,None,sport,1.428,None,Sebastian Schweinsteiger,"['lshift', 's', 'e', 'b', 'a', 's', 't', 'i', 'a', 'n', 'space', 'lshift', 's', 'c', 'h', 'w', 'e', 'i', 'n', 's', 't', 'e', 'i', 'g', 'e', 'r', 'return']","[1.2001045087818056, 1.5001079411013052, 2.2331065768375993, 2.699562237103237, 2.9495608737925068, 3.482625011994969, 3.832470285706222, 4.265722430660389, 4.915352688316489, 5.1484858895419165, 5.681746663351078, 6.69825090514496, 7.080975389748346, 7.530899863049854, 8.413875675585587, 8.680527714866912, 8.947159866045695, 9.979811646800954, 10.829560848127585, 11.329427244956605, 11.64592561655445, 11.795921719109174, 12.179123197507579, 12.628971005382482, 12.778810569318011, 12.978680590895237, 16.127316282800166]",2017_Feb_22_1031,60.0484827242,famFaceGrey,001,21,
20,./greyInner/BastianSchweinsteiger6_2_cut.png,0,21,21,19,,,1.ja,3.622,None,None,None,None,None,sport,1.459,None,Sebastian Schweinsteiger,"['lshift', 's', 'e', 'b', 'a', 's', 't', 'i', 'a', 'n', 'space', 'lshift', 's', 'c', 'h', 'w', 'e', 'i', 'n', 's', 't', 'e', 'i', 'g', 'e', 'r', 'return']","[1.699583729088772, 2.049609599664109, 2.266114418831421, 2.899310684617376, 3.1157183086907025, 3.4824011104064994, 3.8985655221622437, 4.31531567077036, 4.998591472947737, 5.231764129624935, 5.914462855900638, 6.714115198963555, 6.964317528385436, 7.481782975199167, 7.880573200905928, 8.180515365005704, 8.463529221568024, 8.630207917332882, 8.963405562448315, 9.313286763092037, 9.629601009277394, 9.829805279383436, 10.196316786750685, 10.579480734362733, 10.779211859975476, 11.07924095436465, 11.945477075583767]",2017_Feb_22_1031,60.0484827242,famFaceGrey,001,21,
132,./greyInner/LeonardoDiCaprio2_1_cut.png,0,22,22,131,,,1.ja,2.824,None,dummy,1.424,None,None,None,None,None,Leonardo Dicaprio,"['lshift', 'l', 'e', 'o', 'n', 'a', 'r', 'd', 'o', 'space', 'lshift', 'd', 'i', 'c', 'a', 'p', 'r', 'i', 'o', 'return']","[1.2164595897775143, 1.7159718499751762, 2.1162668355100323, 2.332754012022633, 2.699194307118887, 2.982243449019734, 3.715302069875179, 3.9652782522607595, 4.548250311723677, 4.998162595526082, 5.431255314848386, 5.781362341745989, 6.631101278268034, 9.463140761916293, 9.663096751464764, 10.229443957388867, 10.746072499838192, 12.478613388346275, 13.644858715852024, 15.943805833056103]",2017_Feb_22_1031,60.0484827242,famFaceGrey,001,21,
72,./greyInner/GuentherJauch3_1_cut.png,0,23,23,71,,,1.ja,3.649,None,None,None,host,1.634,None,None,None,,['return'],[4.981813930091448],2017_Feb_22_1031,60.0484827242,famFaceGrey,001,21,
69,./greyInner/EmmaWatson(HermioneGranger)4_1_cut.png,0,24,24,68,,,1.ja,2.192,None,act,1.626,None,None,None,None,None,,['return'],[5.131624944944633],2017_Feb_22_1031,60.0484827242,famFaceGrey,001,21,
109,./greyInner/JoachimLoew4_1_cut.png,0,25,25,108,,,1.ja,2.009,None,None,None,None,None,sport,1.642,None,Lowi,"['lshift', 'l', 'o', 'w', 'i', 'return']","[3.882125435571652, 4.631957749952562, 20.775142175902147, 21.025021163164638, 22.1578939264582, 24.590037149057025]",2017_Feb_22_1031,60.0484827242,famFaceGrey,001,21,
156,./greyInner/NicoleKidman14_1_cut.png,0,26,26,155,,,1.ja,3.461,None,act,1.394,None,None,None,None,None,Nickole Kidmann,"['lshift', 'n', 'i', 'c', 'k', 'o', 'l', 'e', 'space', 'lshift', 'k', 'i', 'd', 'm', 'a', 'n', 'n', 'return']","[1.5004588699666783, 1.7835792241385207, 2.399767309165327, 2.8163532204926014, 3.1163534450461157, 3.3163171331980266, 3.5494657316885423, 3.7327943014970515, 3.9827002339588944, 4.465752840245841, 4.798997639416484, 5.049041505524656, 6.88146271253936, 7.764425373257836, 8.047520706895739, 8.764104918111116, 8.930489783146186, 9.896991795510985]",2017_Feb_22_1031,60.0484827242,famFaceGrey,001,21,
77,./greyInner/GeorgeClooney15_1_cut.png,0,27,27,76,,,1.ja,2.724,None,dummy,1.176,None,None,None,None,None,George Clooni,"['lshift', 'g', 'e', 'o', 'r', 'g', 'e', 'space', 'lshift', 'c', 'l', 'o', 'o', 'n', 'i', 'return']","[1.0330880359979346, 2.1497041964903474, 3.0492779173946474, 3.5824389298795722, 4.331981262861518, 4.748483451665379, 4.931761659652693, 5.58165046267095, 6.098059594398364, 7.064494564634515, 7.647284744132776, 8.0139733197866, 8.147027963015717, 8.480364824878052, 9.096477206796408, 10.27969895824208]",2017_Feb_22_1031,60.0484827242,famFaceGrey,001,21,
11,./greyInner/BarackObama1_3_cut.png,0,28,28,10,,,1.ja,2.889,None,None,None,None,None,polit,1.854,None,Barak Obama,"['lshift', 'b', 'a', 'r', 'a', 'k', 'space', 'lshift', 'o', 'b', 'a', 'm', 'a', 'return']","[1.0165953421383165, 1.3498738227935974, 1.7496847574657295, 1.9496599935810082, 2.116280308109708, 2.73264417835162, 3.0325866632338148, 3.415715004724916, 3.7321864311234094, 4.348360402014805, 4.498452737374464, 4.94841826998163, 5.098381974181393, 6.081302901962772]",2017_Feb_22_1031,60.0484827242,famFaceGrey,001,21,
36,./greyInner/CarenMiosga1_1_cut.png,0,29,29,35,,,1.ja,5.342,None,act,3.26,None,None,None,None,None,,['return'],[0.9331868670415133],2017_Feb_22_1031,60.0484827242,famFaceGrey,001,21,
172,./greyInner/SahraWagenknecht2_2_cut.png,0,30,30,171,,,1.ja,2.805,None,None,None,None,None,polit,1.887,None,,['return'],[0.8671772777743172],2017_Feb_22_1031,60.0484827242,famFaceGrey,001,21,
32,./greyInner/BritneySpears14_2_cut.png,0,31,31,31,,,1.ja,1.844,None,None,None,music,1.661,None,None,None,Britny Speers,"['lshift', 'b', 'r', 'a', 't', 'n', 'y', 'backspace', 'backspace', 'backspace', 'backspace', 'i', 't', 'n', 'y', 'space', 'lshift', 's', 'p', 'e', 'e', 'r', 's', 'return']","[1.3664989970857278, 1.666458483086899, 2.1161677157506347, 2.3494738152076025, 3.01578506216174, 3.8488712376565672, 4.01718813602929, 5.414757488586474, 5.5812931182736065, 5.764539248688379, 5.947619858721737, 11.195463843556354, 12.145412856247276, 13.061554332525702, 13.21155428441125, 14.144624389038654, 14.894170250510797, 15.327276442432776, 16.027120000013383, 16.6103095455328, 16.77685640240088, 17.859763183951145, 18.026283095648978, 19.059355413599405]",2017_Feb_22_1031,60.0484827242,famFaceGrey,001,21,
154,./greyInner/NeilPatrickHarris(Barney)2_2_cut.png,0,32,32,153,,,1.ja,1.996,None,act,2.229,None,None,None,None,None,Steven,"['lshift', 's', 't', 'e', 'v', 'e', 'n', 'return']","[2.916144363261992, 3.4160168548405636, 3.8159945929946844, 3.9658745746710338, 4.265787868964253, 4.38203706179047, 4.7155558036174625, 5.598415816028137]",2017_Feb_22_1031,60.0484827242,famFaceGrey,001,21,
147,./greyInner/MilaKunis10_1_cut.png,0,33,33,146,,,1.ja,3.745,None,act,1.129,None,None,None,None,None,,['return'],[2.3497310774982907],2017_Feb_22_1031,60.0484827242,famFaceGrey,001,21,
81,./greyInner/HughLaurie(DrHouse)2_1_cut.png,0,34,34,80,,,1.ja,1.735,None,dummy,2.035,None,None,None,None,None,,['return'],[1.1666626569931395],2017_Feb_22_1031,60.0484827242,famFaceGrey,001,21,
15,./greyInner/BarackObama5_2_cut.png,0,35,35,14,,,1.ja,1.477,None,None,None,None,None,polit,2.826,None,Barak Obama,"['lshift', 'b', 'a', 'r', 'a', 'k', 'space', 'lshift', 'o', 'b', 'a', 'm', 'a', 'return']","[0.9666264734696597, 1.7162477172969375, 2.0663040615909267, 2.3160370958212297, 2.465986365103163, 3.0818520703469403, 3.3820755549240857, 3.6321178171492647, 3.982123158086324, 4.498537742998451, 4.715186911314959, 5.081463289941894, 5.214938470366178, 6.0811681760824285]",2017_Feb_22_1031,60.0484827242,famFaceGrey,001,21,
55,./greyInner/DannFlorek(DonaldDonCragen)8_1_cut.png,0,36,36,54,,,2.nein,4.998,None,None,None,music,5.013,None,None,None,,['return'],[1.233659915305907],2017_Feb_22_1031,60.0484827242,famFaceGrey,001,21,
114,./greyInner/JoshRadnor(Ted)7_1_cut.png,0,37,37,113,,,1.ja,2.008,None,act,1.092,None,None,None,None,None,Ted Moosby,"['lshift', 't', 'e', 'd', 'space', 'lshift', 'm', 'o', 'o', 's', 'b', 'y', 'return']","[1.0499502636957914, 1.4998862849315628, 1.966362795647001, 2.149351984524401, 2.4991456133429892, 2.7326631041360088, 3.0158059126115404, 3.449103928520344, 3.6155388345650863, 3.898825671436498, 6.297849742783001, 6.497632513346616, 7.614061661472078]",2017_Feb_22_1031,60.0484827242,famFaceGrey,001,21,
179,./greyInner/Shakira7_1_cut.png,0,38,38,178,,,1.ja,2.128,None,None,None,music,1.145,None,None,None,Shakira,"['lshift', 's', 'h', 'a', 'k', 'i', 'r', 'a', 'return']","[1.1006007812102325, 1.583790358825354, 2.333472550060833, 2.5500976602197625, 2.9332013019593433, 3.199837302439846, 3.6327003462065477, 3.832543743395945, 4.749289240746293]",2017_Feb_22_1031,60.0484827242,famFaceGrey,001,21,
152,./greyInner/NeilPatrickHarris(Barney)11_2_cut.png,0,39,39,151,,,2.nein,5.778,None,act,0.963,None,None,None,None,None,,['return'],[1.3669471210741904],2017_Feb_22_1031,60.0484827242,famFaceGrey,001,21,
24,./greyInner/BenedictCumberbatch4_1_cut.png,0,40,40,23,,,1.ja,1.817,None,act,0.965,None,None,None,None,None,,['return'],[0.8670149651588872],2017_Feb_22_1031,60.0484827242,famFaceGrey,001,21,
217,./greyInner/notfamousface2_cut.png,0,41,41,216,,,2.nein,7.464,None,dummy,2.921,None,None,None,None,None,,['return'],[1.4998737746791448],2017_Feb_22_1031,60.0484827242,famFaceGrey,001,21,
191,./greyInner/TomCruise1_1_cut.png,0,42,42,190,,,1.ja,2.495,None,dummy,1.996,None,None,None,None,None,Tom Cruese,"['lshift', 't', 'o', 'm', 'space', 'lshift', 'c', 'r', 'u', 'e', 's', 'e', 'return']","[1.134135016502114, 1.4673435679869726, 1.9670803713670466, 2.2836121036380064, 2.5336283830110915, 3.6162637881352566, 4.166161284199916, 4.6159090099681634, 5.182431680324953, 5.7489649362978525, 6.182129188644467, 6.415329752810067, 10.413661718048388]",2017_Feb_22_1031,60.0484827242,famFaceGrey,001,21,
79,./greyInner/GeorgeClooney3_1_cut.png,0,43,43,78,,,1.ja,2.095,None,dummy,1.18,None,None,None,None,None,Goerg Cloony,"['lshift', 'g', 'o', 'e', 'r', 'd', 'backspace', 'g', 'space', 'lshift', 'c', 'l', 'o', 'o', 'n', 'i', 'backspace', 'y', 'return']","[1.4836421924410388, 2.0001539724471513, 2.966387174616102, 3.4162150943593588, 5.531595946813468, 5.831901229248615, 6.730949839955429, 7.214487780205673, 7.6311407336907, 7.980856413953006, 8.280816862301435, 8.86395764988265, 9.263713090331294, 9.396939348662272, 10.746442033705534, 12.128847667045193, 13.328739180637058, 13.728619402914774, 15.044688255526125]",2017_Feb_22_1031,60.0484827242,famFaceGrey,001,21,
196,./greyInner/UrsulavonderLeyen1_1_cut.png,0,44,44,195,,,1.ja,3.208,None,None,None,None,None,polit,4.579,None,von Davart,"['lshift', 'v', 'a', 'n', 'space', 'backspace', 'd', 'a', 'v', 'a', 'r', 't', 'backspace', 'backspace', 'backspace', 'backspace', 'backspace', 'backspace', 'backspace', 'backspace', 'backspace', 'v', 'o', 'n', 'space', 'lshift', 'd', 'a', 'v', 'a', 'r', 't', 'return']","[1.7497463464387693, 2.11611992015969, 2.5993681997642852, 3.049228838644922, 3.615563855099026, 5.031765476887813, 6.214576955913799, 6.381158777337987, 7.197463560674805, 7.347338730702177, 7.613690844504163, 7.797074267000426, 11.31254224217264, 11.56231344875414, 11.879005889757536, 12.04535290322383, 12.2121275109821, 12.378597060858738, 12.545323231461225, 12.895136748382356, 14.244630451721605, 15.460708318132674, 15.943899178848369, 16.31048157767509, 17.14342597022187, 21.474915804341435, 21.89155496447347, 22.174608918023296, 28.121821712091332, 28.272213331394596, 28.472169320943067, 28.65530734983622, 30.804323802760337]",2017_Feb_22_1031,60.0484827242,famFaceGrey,001,21,
59,./greyInner/ElvisPresley5_2_cut.png,0,45,45,58,,,1.ja,2.647,None,None,None,music,1.351,None,None,None,Elvise,"['lshift', 'e', 'l', 'v', 'i', 's', 'e', 'return']","[1.1000599530234467, 1.316509919532109, 2.4163180634495802, 2.8161116762203164, 3.715454759221757, 4.165434726746753, 4.432144184916979, 5.964730367006268]",2017_Feb_22_1031,60.0484827242,famFaceGrey,001,21,
115,./greyInner/JoshRadnor(Ted)9_1_cut.png,0,46,46,114,,,1.ja,1.979,None,dummy,1.696,None,None,None,None,None,Ted Moosby,"['lshift', 't', 'o', 'm', 'space', 'lshift', 'm', 'o', 'o', 's', 'b', 'y', 'backspace', 'backspace', 'backspace', 'backspace', 'backspace', 'backspace', 'backspace', 'backspace', 'backspace', 'e', 'd', 'space', 'lshift', 'm', 'o', 'o', 's', 'b', 'y', 'return']","[1.150517363421386, 1.5504457020724658, 2.0170222948654555, 2.316854753618827, 2.9832866123178974, 3.349643505673157, 3.6995356126863044, 4.849249753227923, 5.015795968531165, 5.199012908327859, 7.064783583715325, 7.231146956735756, 12.129417365067638, 12.562696775974473, 12.71265727240825, 12.845954742981121, 12.97912197856931, 13.112201642303262, 13.279044896102278, 13.395596901420504, 13.54563823339413, 14.528762212314177, 14.79518489682232, 15.094997788226465, 15.378155993967084, 15.62807154969778, 16.011362845340045, 16.21115010677022, 17.14411948772613, 17.89391587523278, 18.04380804640823, 18.643572404398583]",2017_Feb_22_1031,60.0484827242,famFaceGrey,001,21,
6,./greyInner/AngelaMerkel1_1_cut.png,0,47,47,5,,,1.ja,2.291,None,None,None,None,None,polit,1.743,None,Angela Merkel,"['lshift', 'a', 'n', 'g', 'e', 'l', 'a', 'space', 'lshift', 'm', 'e', 'r', 'k', 'e', 'l', 'return']","[1.0332718405988999, 1.4829005585052073, 2.3827206353016663, 2.83247124805348, 3.065418078476796, 3.5654634682869073, 3.7987570574623533, 4.03205321286805, 4.548457212193171, 4.831726406380767, 5.2649448698502965, 5.581482376088388, 6.264139401522698, 6.447811843128875, 6.647698545071762, 7.480578140850412]",2017_Feb_22_1031,60.0484827242,famFaceGrey,001,21,
150,./greyInner/MilaKunis7_3_cut.png,0,48,48,149,,,1.ja,4.172,None,act,1.124,None,None,None,None,None,,['return'],[0.7165489258768503],2017_Feb_22_1031,60.0484827242,famFaceGrey,001,21,
3,./greyInner/AlysonHannigan(Lily)14_2_cut.png,0,49,49,2,,,1.ja,5.744,None,act,0.83,None,None,None,None,None,Lilly,"['lshift', 'l', 'i', 'l', 'l', 'y', 'return']","[1.0504125017905608, 1.450213813193841, 1.783668399817543, 3.4827420951914974, 3.6327346692269202, 3.7994002132036258, 4.782373748224927]",2017_Feb_22_1031,60.0484827242,famFaceGrey,001,21,
146,./greyInner/MilaKunis1_3_cut.png,0,50,50,145,,,1.ja,2.218,None,act,1.122,None,None,None,None,None,,['return'],[1.2168605596816633],2017_Feb_22_1031,60.0484827242,famFaceGrey,001,21,
45,./greyInner/CobieSmulders(Robin)5_1_cut.png,0,51,51,44,,,1.ja,3.362,None,dummy,1.18,None,None,None,None,None,Robin,"['lshift', 'r', 'o', 'b', 'i', 'n', 'return']","[1.066896534699481, 1.4999497985700145, 2.1663540705339983, 2.582780877011828, 3.165971384878503, 3.432587176474044, 4.398400803736877]",2017_Feb_22_1031,60.0484827242,famFaceGrey,001,21,
48,./greyInner/CristinMilioti(Tracy_Mutter)4_2_cut.png,0,52,52,47,,,1.ja,2.761,None,dummy,0.828,None,None,None,None,None,,['return'],[0.9666742690606043],2017_Feb_22_1031,60.0484827242,famFaceGrey,001,21,
201,./greyInner/Usher1_1_cut.png,0,53,53,200,,,1.ja,2.95,None,None,None,music,1.002,None,None,None,Uher,"['lshift', 'u', 'h', 'e', 'r', 'return']","[1.283067746902816, 1.7827384704432916, 2.9490145924210083, 3.099197386589367, 3.332430990674766, 4.265140543167945]",2017_Feb_22_1031,60.0484827242,famFaceGrey,001,21,
10,./greyInner/AngelaMerkel6_1_cut.png,0,54,54,9,,,1.ja,2.135,None,None,None,None,None,polit,1.378,None,Angela Merkel,"['lshift', 'a', 'n', 'g', 'e', 'l', 'a', 'space', 'lshift', 'm', 'e', 'r', 'k', 'e', 'l', 'return']","[1.0501667874341365, 1.5000049720401876, 2.38294934851001, 2.9160519798169844, 3.365877012576675, 4.248826521506999, 4.415505538025172, 4.915283400710905, 5.264916641579475, 5.44830968734459, 5.8812622275727335, 6.114742829144234, 6.698998313047923, 6.881055006320821, 7.047698737529572, 7.864084997912869]",2017_Feb_22_1031,60.0484827242,famFaceGrey,001,21,
74,./greyInner/GuentherJauch7_1_cut.png,0,55,55,73,,,1.ja,1.728,None,None,None,host,1.944,None,None,None,,['return'],[0.9669488532526884],2017_Feb_22_1031,60.0484827242,famFaceGrey,001,21,
181,./greyInner/SigmarGabriel1_2_cut.png,0,56,56,180,,,1.ja,2.761,None,None,None,None,None,polit,1.762,None,,['return'],[9.679438680643216],2017_Feb_22_1031,60.0484827242,famFaceGrey,001,21,
129,./greyInner/KatjaBurkard5_3_cut.png,0,57,57,128,,,1.ja,8.606,None,None,None,host,2.185,None,None,None,,['return'],[1.2665606181544717],2017_Feb_22_1031,60.0484827242,famFaceGrey,001,21,
166,./greyInner/RobertSeanLeonard(Wilson)1_1_cut.png,0,58,58,165,,,1.ja,4.277,None,act,1.305,None,None,None,None,None,,['return'],[0.9503146972274408],2017_Feb_22_1031,60.0484827242,famFaceGrey,001,21,
102,./greyInner/JimParsons(SheldonCooper)10_1_cut.png,0,59,59,101,,,1.ja,1.595,None,dummy,1.296,None,None,None,None,None,Sheldon Cooper,"['lshift', 's', 'h', 'e', 'l', 'd', 'o', 'n', 'space', 'lshift', 'c', 'o', 'o', 'p', 'e', 'r', 'return']","[5.365563935309183, 5.665522779745515, 6.398647480440559, 6.5817823015968315, 7.098379087226931, 7.348169219563715, 7.61483601454529, 7.997770286601735, 8.297700581984827, 9.14736189073301, 9.630620435171295, 10.213686802744633, 10.38025098151411, 10.547018532204675, 10.763519181287847, 11.013388224528171, 11.8130216418067]",2017_Feb_22_1031,60.0484827242,famFaceGrey,001,21,
9,./greyInner/AngelaMerkel5_1_cut.png,0,60,60,8,,,1.ja,1.794,None,None,None,None,None,polit,2.011,None,Angela Merkel,"['lshift', 'a', 'n', 'g', 'e', 'l', 'a', 'space', 'lshift', 'm', 'e', 'r', 'k', 'e', 'l', 'return']","[1.016688687930582, 1.3998221618239768, 2.1828310463461094, 2.982459331222344, 3.182543951901607, 3.5988591283676215, 3.7987079787417315, 4.115249975846382, 4.365233856864506, 4.848354788409779, 5.447915132943308, 5.764559457573341, 6.364570492267376, 6.51438182790298, 6.680854585516499, 7.597334480407881]",2017_Feb_22_1031,60.0484827242,famFaceGrey,001,21,
23,./greyInner/BenedictCumberbatch3_9_cut.png,0,61,61,22,,,1.ja,2.263,None,act,1.017,None,None,None,None,None,,['return'],[1.366199713142123],2017_Feb_22_1031,60.0484827242,famFaceGrey,001,21,
134,./greyInner/LeonardoDiCaprio4_1_cut.png,0,62,62,133,,,1.ja,1.46,None,dummy,0.877,None,None,None,None,None,Leonardo Dicaprio,"['lshift', 'l', 'e', 'o', 'n', 'a', 'r', 'd', 'o', 'space', 'lshift', 'd', 'i', 'c', 'a', 'p', 'r', 'i', 'o', 'return']","[3.565499715943588, 3.9485812241618987, 4.465018584160134, 4.7484064654272515, 5.114943314081756, 5.314893529663095, 5.9478427979920525, 6.197748088889057, 6.797609321249183, 7.447229314042488, 8.196873332984978, 8.729905714339111, 9.513116046146024, 10.745962473709369, 10.92889263984398, 11.528804875531932, 11.94545013041352, 12.161898493039189, 12.54509580132435, 13.528062600060366]",2017_Feb_22_1031,60.0484827242,famFaceGrey,001,21,
116,./greyInner/JudithRakers1_1_cut.png,0,63,63,115,,,2.nein,3.277,None,dummy,1.412,None,None,None,None,None,,['return'],[1.2831248450092971],2017_Feb_22_1031,60.0484827242,famFaceGrey,001,21,
149,./greyInner/MilaKunis5_2_cut.png,0,64,64,148,,,1.ja,1.677,None,dummy,1.31,None,None,None,None,None,,['return'],[0.8167548319033813],2017_Feb_22_1031,60.0484827242,famFaceGrey,001,21,
212,./greyInner/notfamousface11_1_cut.png,0,65,65,211,,,2.nein,3.883,None,dummy,1.517,None,None,None,None,None,,['return'],[0.9834158850135282],2017_Feb_22_1031,60.0484827242,famFaceGrey,001,21,
160,./greyInner/NicoleKidman8_2_cut.png,0,66,66,159,,,1.ja,1.693,None,act,1.194,None,None,None,None,None,Nickole Kidmann,"['lshift', 'n', 'i', 'c', 'k', 'o', 'l', 'e', 'space', 'lshift', 'k', 'i', 'd', 'm', 'a', 'n', 'n', 'return']","[1.049863012653077, 1.6496536742779426, 2.5326554696657695, 4.315242854645476, 4.51515008622664, 4.731769101636019, 4.964841676235665, 5.081601865123957, 5.881207695667399, 6.5643099580775015, 6.930831730249338, 7.180853783589555, 8.080344744288595, 10.01294587450684, 10.19611854723189, 10.962531768833287, 11.112431959423702, 11.89546265671379]",2017_Feb_22_1031,60.0484827242,famFaceGrey,001,21,
189,./greyInner/TaylorSwift7_1_cut.png,0,67,67,188,,,1.ja,1.896,None,None,None,music,1.379,None,None,None,Tailor,"['lshift', 't', 'a', 'i', 'l', 'o', 'r', 'return']","[1.1499386836658232, 1.6331613012007438, 2.066301174578257, 2.3995260856463574, 2.6158531949622557, 2.832635485305218, 3.282309432630427, 4.481987951003248]",2017_Feb_22_1031,60.0484827242,famFaceGrey,001,21,
223,./greyInner/notfamousface8_9_cut.png,0,68,68,222,,,1.ja,5.554,None,act,1.097,None,None,None,None,None,Sheldon Cooper,"['lshift', 's', 'h', 'e', 'l', 'd', 'o', 'n', 'space', 'lshift', 'c', 'o', 'o', 'p', 'e', 'r', 'return']","[2.1330706820008345, 2.515804148337338, 3.482447302143555, 3.6823853282257915, 4.248818822874455, 4.731858277344145, 4.898621657950571, 5.314935872098431, 5.548282710078638, 5.898115473566577, 6.614443064027, 7.24766082179849, 7.397535671072546, 7.597597516694805, 7.780685504549183, 8.030697613838129, 8.763768744945992]",2017_Feb_22_1031,60.0484827242,famFaceGrey,001,21,
171,./greyInner/SahraWagenknecht12_1_cut.png,0,69,69,170,,,1.ja,3.36,None,None,None,None,None,sport,1.578,None,,['return'],[0.9506226420926396],2017_Feb_22_1031,60.0484827242,famFaceGrey,001,21,
62,./greyInner/EmilyDeschanel3_1_cut.png,0,70,70,61,,,2.nein,8.664,None,dummy,1.438,None,None,None,None,None,,['return'],[1.3000011868716683],2017_Feb_22_1031,60.0484827242,famFaceGrey,001,21,
58,./greyInner/ElvisPresley4_10_cut.png,0,71,71,57,,,1.ja,1.369,None,None,None,music,1.555,None,None,None,Elvies,"['lshift', 'e', 'l', 'v', 'i', 'e', 's', 'return']","[1.3665387733199168, 2.132973486906849, 3.5825813543924596, 4.182196872367058, 4.831906040897593, 5.065225612925133, 5.348245564237004, 7.497243091376731]",2017_Feb_22_1031,60.0484827242,famFaceGrey,001,21,
165,./greyInner/OmarEpps(DrEricForeman)9_1_cut.png,0,72,72,164,,,2.nein,5.91,None,None,None,music,1.479,None,None,None,,['return'],[1.183925533783622],2017_Feb_22_1031,60.0484827242,famFaceGrey,001,21,
71,./greyInner/GuentherJauch2_1_cut.png,0,73,73,70,,,1.ja,1.928,None,None,None,host,1.78,None,None,None,,['return'],[1.8329164850292727],2017_Feb_22_1031,60.0484827242,famFaceGrey,001,21,
83,./greyInner/HughLaurie(DrHouse)5_3_cut.png,0,74,74,82,,,1.ja,1.476,None,act,1.16,None,None,None,None,None,,['return'],[0.9666822884464636],2017_Feb_22_1031,60.0484827242,famFaceGrey,001,21,
95,./greyInner/JanHofer9_2_cut.png,0,75,75,94,,,2.nein,2.91,None,None,None,host,1.545,None,None,None,,['return'],[1.3169663836306427],2017_Feb_22_1031,60.0484827242,famFaceGrey,001,21,
118,./greyInner/JudithRakers4_3_cut.png,0,76,76,117,,,2.nein,3.661,None,act,1.829,None,None,None,None,None,,['return'],[1.2500191663566511],2017_Feb_22_1031,60.0484827242,famFaceGrey,001,21,
140,./greyInner/LisaEdelstein(DrLisaCuddy)9_1_cut.png,0,77,77,139,,,2.nein,3.061,None,dummy,1.096,None,None,None,None,None,,['return'],[0.9504568009579089],2017_Feb_22_1031,60.0484827242,famFaceGrey,001,21,
117,./greyInner/JudithRakers2_1_cut.png,0,78,78,116,,,2.nein,2.315,None,dummy,3.948,None,None,None,None,None,,['return'],[1.4830340012849774],2017_Feb_22_1031,60.0484827242,famFaceGrey,001,21,
122,./greyInner/KaleyCuoco(Penny)14_2_cut.png,0,79,79,121,,,1.ja,3.442,None,dummy,1.044,None,None,None,None,None,Penny,"['lshift', 'p', 'e', 'n', 'n', 'y', 'return']","[1.1331762172922026, 1.6496931297297124, 3.26568554143887, 4.465080493915593, 4.598509161849506, 4.8316776484425645, 5.797968590253731]",2017_Feb_22_1031,60.0484827242,famFaceGrey,001,21,
61,./greyInner/EmilyDeschanel15_1_cut.png,0,80,80,60,,,2.nein,2.91,None,dummy,1.027,None,None,None,None,None,,['return'],[1.299859724676935],2017_Feb_22_1031,60.0484827242,famFaceGrey,001,21,
153,./greyInner/NeilPatrickHarris(Barney)13_4_cut.png,0,81,81,152,,,1.ja,1.606,None,act,1.122,None,None,None,None,None,Steven,"['lshift', 's', 't', 'e', 'v', 'e', 'n', 'return']","[1.216406982508488, 2.0497327776101884, 2.5161534733197186, 2.6660398705280386, 2.965935842890758, 3.0826678034791257, 3.5491334078251384, 4.532099244213896]",2017_Feb_22_1031,60.0484827242,famFaceGrey,001,21,
207,./greyInner/WillSmith14_1_cut.png,0,82,82,206,,,1.ja,1.891,None,act,0.808,None,None,None,None,None,Will Smith,"['lshift', 'w', 'i', 'l', 'l', 'space', 'lshift', 's', 'm', 'i', 't', 'h', 'return']","[1.2833907682506833, 2.016205599386012, 2.7158582952979486, 3.382127199845854, 3.5321897030225955, 3.865402103838278, 4.148658466991037, 4.365329127322184, 5.09829408157384, 5.531530187727185, 5.914567749627167, 6.147546978434548, 7.164063088916009]",2017_Feb_22_1031,60.0484827242,famFaceGrey,001,21,
54,./greyInner/DannFlorek(DonaldDonCragen)5_1_cut.png,0,83,83,53,,,2.nein,3.511,None,None,None,host,4.992,None,None,None,,['return'],[1.2164781947794836],2017_Feb_22_1031,60.0484827242,famFaceGrey,001,21,
163,./greyInner/OmarEpps(DrEricForeman)3_1_cut.png,0,84,84,162,,,1.ja,2.823,None,dummy,1.454,None,None,None,None,None,,['return'],[0.9999287877290044],2017_Feb_22_1031,60.0484827242,famFaceGrey,001,21,
124,./greyInner/KaleyCuoco(Penny)5_2_cut.png,0,85,85,123,,,1.ja,1.636,None,act,0.984,None,None,None,None,None,Penny,"['lshift', 'p', 'e', 'n', 'n', 'y', 'return']","[1.1332140688609798, 1.4665717811440118, 2.3828396431636065, 3.5655638711468782, 3.6989444226783235, 3.8988301623030566, 4.865042834804626]",2017_Feb_22_1031,60.0484827242,famFaceGrey,001,21,
21,./greyInner/BenedictCumberbatch16_1_cut.png,0,86,86,20,,,1.ja,1.377,None,dummy,0.845,None,None,None,None,None,,['return'],[1.0499903606832959],2017_Feb_22_1031,60.0484827242,famFaceGrey,001,21,
167,./greyInner/RobertSeanLeonard(Wilson)10_1_cut.png,0,87,87,166,,,1.ja,2.388,None,act,1.121,None,None,None,None,None,,['return'],[0.9999220514437184],2017_Feb_22_1031,60.0484827242,famFaceGrey,001,21,
203,./greyInner/Usher2_1_cut.png,0,88,88,202,,,1.ja,1.778,None,None,None,music,0.978,None,None,None,Uher,"['lshift', 'u', 'h', 'e', 'r', 'return']","[1.1999412338773254, 1.616736932657659, 2.4497005717421416, 2.6494477361557074, 2.8659599331731442, 3.7822627597488463]",2017_Feb_22_1031,60.0484827242,famFaceGrey,001,21,
113,./greyInner/JoshRadnor(Ted)6_2_cut.png,0,89,89,112,,,1.ja,2.096,None,act,0.845,None,None,None,None,None,Ted Mosby,"['lshift', 't', 'e', 'd', 'space', 'lshift', 'm', 'o', 's', 'b', 'y', 'return']","[0.9334495825460181, 1.4332976951263845, 1.7330762635101564, 1.9665119564451743, 2.5494715056556743, 3.2492043955426197, 3.649080126953777, 3.949109862878686, 4.73208795292885, 7.7139451877446845, 7.897407200332964, 8.663734133238904]",2017_Feb_22_1031,60.0484827242,famFaceGrey,001,21,
174,./greyInner/SahraWagenknecht6_2_cut.png,0,90,90,173,,,1.ja,6.121,None,None,None,None,None,polit,1.558,None,,['return'],[1.2166664902470075],2017_Feb_22_1031,60.0484827242,famFaceGrey,001,21,
105,./greyInner/JimParsons(SheldonCooper)9_3_cut.png,0,91,91,104,,,1.ja,1.977,None,act,1.23,None,None,None,None,None,Sheldon Cooper,"['lshift', 's', 'h', 'e', 'l', 'd', 'o', 'n', 'space', 'lshift', 'c', 'o', 'o', 'p', 'e', 'r', 'return']","[3.2654462426144164, 3.615568666748004, 4.282182405382628, 4.465379457076779, 5.0318046115280595, 5.26513316531782, 5.56502913768054, 5.948077285196632, 6.18131121006445, 6.781126571440836, 6.914306958817178, 7.713998757302761, 7.863827094086446, 8.097308016411262, 8.29721492723911, 8.546913638478145, 9.396751373977168]",2017_Feb_22_1031,60.0484827242,famFaceGrey,001,21,
70,./greyInner/EmmaWatson(HermioneGranger)9_1_cut.png,0,92,92,69,,,1.ja,2.096,None,act,1.663,None,None,None,None,None,Harry Poter,"['lshift', 'h', 'a', 'r', 'r', 'y', 'space', 'lshift', 'p', 'o', 't', 'e', 'r', 'return']","[5.831522072112421, 7.864893032441614, 8.413824351446237, 8.946735479519702, 9.063565276766894, 9.230112133634975, 9.963316386740189, 10.512923259811942, 11.012776504823705, 11.246086774364812, 11.679255196795566, 11.829010396671947, 11.995711867522914, 12.712067044718424]",2017_Feb_22_1031,60.0484827242,famFaceGrey,001,21,
169,./greyInner/RobertSeanLeonard(Wilson)2_6_cut.png,0,93,93,168,,,1.ja,3.347,None,act,0.987,None,None,None,None,None,,['return'],[0.6337476795888506],2017_Feb_22_1031,60.0484827242,famFaceGrey,001,21,
44,./greyInner/CobieSmulders(Robin)4_7_cut.png,0,94,94,43,,,1.ja,2.161,None,dummy,0.78,None,None,None,None,None,Robin,"['lshift', 'r', 'o', 'b', 'i', 'n', 'return']","[1.083290429553017, 1.582825144083472, 2.282790275727166, 2.7490983790776227, 3.315482795034768, 3.7321258044685237, 4.315339408174623]",2017_Feb_22_1031,60.0484827242,famFaceGrey,001,21,
176,./greyInner/Shakira1_1_cut.png,0,95,95,175,,,1.ja,1.926,None,None,None,music,1.592,None,None,None,Shakira,"['lshift', 's', 'h', 'a', 'k', 'i', 'r', 'a', 'return']","[0.9666303227713797, 1.3664258602075279, 2.116342217865167, 2.316298207413638, 3.0159749615413602, 3.7323519515048247, 4.0821799033437856, 4.248810482706176, 5.265099804615602]",2017_Feb_22_1031,60.0484827242,famFaceGrey,001,21,
97,./greyInner/JasonSegel(Marshall)14_1_cut.png,0,96,96,96,,,1.ja,2.47,None,dummy,1.47,None,None,None,None,None,Murshel,"['lshift', 'm', 'u', 'r', 's', 'h', 'e', 'l', 'return']","[1.033355883875629, 1.4163793316402007, 1.982985724520404, 2.4994301415863447, 3.2990398214606103, 3.565698917809641, 3.7986791089351755, 4.331925768608926, 5.648061021842295]",2017_Feb_22_1031,60.0484827242,famFaceGrey,001,21,
193,./greyInner/TomCruise5_1_cut.png,0,97,97,192,,,1.ja,1.56,None,act,0.96,None,None,None,None,None,Tom Cruese,"['lshift', 't', 'o', 'm', 'space', 'lshift', 'c', 'r', 'u', 'e', 's', 'e', 'return']","[0.833625079045305, 1.6998506146483123, 2.282929813285591, 3.415766008081846, 3.69900087924907, 4.3154677185520995, 4.548683038447052, 4.831880058045499, 5.4149791447562166, 5.58153145480901, 6.014825621416094, 6.26471166574629, 6.864313069614582]",2017_Feb_22_1031,60.0484827242,famFaceGrey,001,21,
40,./greyInner/CarenMiosga9_1_cut.png,0,98,98,39,,,2.nein,5.244,None,None,None,None,None,polit,2.795,None,,['return'],[1.333435981621733],2017_Feb_22_1031,60.0484827242,famFaceGrey,001,21,
46,./greyInner/CristinMilioti(Tracy_Mutter)10_1_cut.png,0,99,99,45,,,1.ja,1.993,None,act,0.977,None,None,None,None,None,,['return'],[0.8334217070951127],2017_Feb_22_1031,60.0484827242,famFaceGrey,001,21,
157,./greyInner/NicoleKidman3_1_cut.png,0,100,100,156,,,1.ja,1.939,None,dummy,0.914,None,None,None,None,None,Nickole Kidmann,"['lshift', 'n', 'i', 'c', 'k', 'o', 'l', 'e', 'space', 'lshift', 'k', 'i', 'd', 'm', 'a', 'n', 'n', 'return']","[0.9335904031759128, 1.6999388280382846, 2.232993342942791, 2.6495875944383442, 2.8994624116458, 3.1327720396511722, 3.349287123652175, 3.5824594595469534, 4.215547303057974, 4.598749743774533, 5.015318333229516, 5.3817534958943725, 5.914809935464291, 6.6812414413143415, 6.897610251500737, 7.1309817892324645, 7.281089201045688, 7.99749217389035]",2017_Feb_22_1031,60.0484827242,famFaceGrey,001,21,
65,./greyInner/EmilyDeschanel8_3_cut.png,0,101,101,64,,,2.nein,3.234,None,dummy,1.405,None,None,None,None,None,,['return'],[1.216610033676261],2017_Feb_22_1031,60.0484827242,famFaceGrey,001,21,
199,./greyInner/UrsulavonderLeyen7_1_cut.png,0,102,102,198,,,1.ja,1.962,None,None,None,None,None,polit,2.196,None,van Davart,"['v', 'a', 'n', 'space', 'lshift', 'd', 'a', 'v', 'a', 'r', 't', 'return']","[1.98313263989985, 3.598992250394076, 3.9488513174874242, 4.265413202694617, 5.031691377633251, 5.81486834876705, 6.064738033543108, 7.0642475671484135, 7.247495942981914, 9.146633408614434, 9.346736955078086, 10.496285254484974]",2017_Feb_22_1031,60.0484827242,famFaceGrey,001,21,
175,./greyInner/SahraWagenknecht9_1_cut.png,0,103,103,174,,,1.ja,2.259,None,None,None,None,None,polit,1.275,None,,['return'],[0.8334326134936418],2017_Feb_22_1031,60.0484827242,famFaceGrey,001,21,
63,./greyInner/EmilyDeschanel5_1_cut.png,0,104,104,62,,,2.nein,6.773,None,dummy,1.144,None,None,None,None,None,,['return'],[1.2665785815916024],2017_Feb_22_1031,60.0484827242,famFaceGrey,001,21,
130,./greyInner/KatjaBurkard7_1_cut.png,0,105,105,129,,,2.nein,2.326,None,None,None,host,4.424,None,None,None,,['return'],[0.7666188389703166],2017_Feb_22_1031,60.0484827242,famFaceGrey,001,21,
110,./greyInner/JoachimLoew8_1_cut.png,0,106,106,109,,,1.ja,1.358,None,None,None,None,None,polit,4.123,None,Löwi,"['backspace', 'lshift', 'l', u'\xf6', 'w', 'i', 'return']","[4.94813694950426, 7.180652977869613, 7.513706273835851, 8.19704526886926, 8.78008854057407, 9.09629949691589, 9.713147097238107]",2017_Feb_22_1031,60.0484827242,famFaceGrey,001,21,
14,./greyInner/BarackObama4_1_cut.png,0,107,107,13,,,1.ja,1.529,None,None,None,None,None,polit,1.113,None,Barak Obama,"['lshift', 'b', 'a', 'r', 'a', 'k', 'space', 'lshift', 'o', 'b', 'a', 'm', 'a', 'return']","[1.4995581311814021, 1.9830816365138162, 2.3161663685168605, 2.532877125835512, 2.6828228665690403, 3.282219615386566, 3.532304220047081, 3.765514086728217, 4.265261154912878, 4.848576123826206, 5.015087374544237, 5.364996482705465, 5.498152811866021, 6.01452601669007]",2017_Feb_22_1031,60.0484827242,famFaceGrey,001,21,
218,./greyInner/notfamousface3_3_cut.png,0,108,108,217,,,2.nein,4.551,None,dummy,1.668,None,None,None,None,None,,['return'],[1.2336015340697486],2017_Feb_22_1031,60.0484827242,famFaceGrey,001,21,
52,./greyInner/DannFlorek(DonaldDonCragen)10_1_cut.png,0,109,109,51,,,2.nein,2.686,None,None,None,host,4.217,None,None,None,,['return'],[0.7667343182838522],2017_Feb_22_1031,60.0484827242,famFaceGrey,001,21,
173,./greyInner/SahraWagenknecht5_1_cut.png,0,110,110,172,,,1.ja,1.843,None,None,None,None,None,polit,1.51,None,Grüne,"['lshift', 'g', 'e', 's', 'u', 'n', 'd', 'backspace', 'backspace', 'backspace', 'backspace', 'backspace', 'backspace', 'lshift', 'g', 'r', u'\xfc', 'n', 'e', 'return']","[1.166830102010863, 2.199728238658281, 3.0493696592748165, 3.349203080346342, 3.7492173869686667, 4.048950725933537, 4.415578995714895, 9.48008125895285, 9.76319583915756, 10.013323748542462, 10.263179960747948, 10.679279575793771, 11.112932049087249, 13.661727038299432, 14.944534315174678, 15.227724598487839, 16.327271951566217, 16.727207347314106, 16.99366210939479, 17.943430204468314]",2017_Feb_22_1031,60.0484827242,famFaceGrey,001,21,
183,./greyInner/SigmarGabriel3_3_cut.png,0,111,111,182,,,1.ja,2.996,None,None,None,None,None,polit,1.114,None,Spd,"['lshift', 's', 'p', 'd', 'return']","[0.8836170436115935, 1.6500100563280284, 2.316283772495808, 2.7994935589958914, 5.6982730386953335]",2017_Feb_22_1031,60.0484827242,famFaceGrey,001,21,
120,./greyInner/JudithRakers8_1_cut.png,0,112,112,119,,,2.nein,2.989,None,dummy,2.958,None,None,None,None,None,,['return'],[1.150032350240508],2017_Feb_22_1031,60.0484827242,famFaceGrey,001,21,
125,./greyInner/KaleyCuoco(Penny)7_1_cut.png,0,113,113,124,,,1.ja,1.758,None,act,0.759,None,None,None,None,None,Penny,"['lshift', 'p', 'e', 'n', 'n', 'y', 'return']","[0.8996638589305803, 1.382960896473378, 2.8824340220016893, 3.982039114780491, 4.115319584234385, 4.281915840605507, 5.064626082748873]",2017_Feb_22_1031,60.0484827242,famFaceGrey,001,21,
202,./greyInner/Usher11_1_cut.png,0,114,114,201,,,1.ja,1.643,None,None,None,music,0.86,None,None,None,Usher,"['lshift', 'u', 's', 'h', 'e', 'r', 'return']","[1.0665905144705903, 1.4332178219337948, 2.066155542328488, 2.382723843038548, 2.616018073807936, 2.8325684431474656, 3.498778966459213]",2017_Feb_22_1031,60.0484827242,famFaceGrey,001,21,
161,./greyInner/OmarEpps(DrEricForeman)1_5_cut.png,0,115,115,160,,,1.ja,2.016,None,act,1.199,None,None,None,None,None,,['return'],[0.967091277736472],2017_Feb_22_1031,60.0484827242,famFaceGrey,001,21,
82,./greyInner/HughLaurie(DrHouse)4_1_cut.png,0,116,116,81,,,1.ja,1.441,None,dummy,0.858,None,None,None,None,None,Arzt,"['lshift', 'a', 'r', 'z', 't', 'return']","[0.8166829781257547, 1.3164560291625094, 2.049641677265754, 2.715935923100915, 2.9324410630506463, 3.8320978648844175]",2017_Feb_22_1031,60.0484827242,famFaceGrey,001,21,
12,./greyInner/BarackObama11_2_cut.png,0,117,117,11,,,1.ja,1.619,None,None,None,None,None,polit,0.957,None,Barak Obama,"['lshift', 'b', 'a', 'r', 'a', 'k', 'space', 'lshift', 'o', 'b', 'a', 'm', 'a', 'return']","[1.0168186021910515, 1.4666911097883713, 1.7832452963921241, 2.049665093916701, 2.2163880567532033, 2.716189336060779, 2.966120609838981, 3.1992156387423165, 3.5823260167671833, 4.132119260641048, 4.265560118074063, 4.814970355510013, 4.915305855043698, 5.664798788493499]",2017_Feb_22_1031,60.0484827242,famFaceGrey,001,21,
31,./greyInner/BritneySpears1_1_cut.png,0,118,118,30,,,1.ja,2.025,None,None,None,music,0.811,None,None,None,Breatny Speers,"['lshift', 'b', 'r', 'e', 't', 'n', 'backspace', 'backspace', 'a', 't', 'n', 'y', 'space', 'lshift', 's', 'p', 'e', 'e', 'r', 's', 'return']","[1.0332064022950362, 1.5163536374748219, 1.9662094647355843, 3.4989679034624714, 3.781989137874916, 5.481497484637657, 6.680967177875573, 6.864269444078673, 7.647153546771733, 8.030333853937918, 8.546875466126949, 8.713392170058796, 8.913179110677447, 9.379874390549958, 9.596308959822636, 10.395795461721718, 10.845900852640625, 11.045813537435606, 11.378836359683191, 11.528635185066378, 12.228712909069145]",2017_Feb_22_1031,60.0484827242,famFaceGrey,001,21,
57,./greyInner/ElvisPresley2_1_cut.png,0,119,119,56,,,1.ja,1.693,None,None,None,music,0.837,None,None,None,Elvise,"['lshift', 'e', 'l', 'v', 'i', 's', 'e', 'return']","[0.9168898464995436, 1.333432132320013, 3.532445040647872, 3.9989212305808906, 4.482038312824443, 5.04845095705241, 5.315111657284433, 6.514629787707236]",2017_Feb_22_1031,60.0484827242,famFaceGrey,001,21,
93,./greyInner/JanHofer5_1_cut.png,0,120,120,92,,,2.nein,2.278,None,None,None,None,None,polit,1.346,None,,['return'],[0.7997703886067029],2017_Feb_22_1031,60.0484827242,famFaceGrey,001,21,
8,./greyInner/AngelaMerkel4_1_cut.png,0,121,121,7,,,1.ja,1.843,None,None,None,None,None,polit,1.393,None,Angela Merkel,"['lshift', 'a', 'n', 'g', 'e', 'l', 'a', 'space', 'lshift', 'm', 'e', 'r', 'k', 'e', 'l', 'return']","[1.5162240440258756, 1.9159846168768127, 2.7824359787337016, 3.3155738953792024, 3.598805558780441, 3.9986062286188826, 4.248743761301739, 4.515191145561403, 4.715058280155063, 4.931767112837406, 5.364812998857815, 5.681458606588421, 6.31445727442042, 6.431025960075203, 6.664359967020573, 7.697196835477371]",2017_Feb_22_1031,60.0484827242,famFaceGrey,001,21,
205,./greyInner/Usher7_1_cut.png,0,122,122,204,,,1.ja,2.026,None,None,None,music,1.159,None,None,None,Usher,"['lshift', 'u', 'h', 'e', 'r', 'backspace', 'backspace', 'backspace', 's', 'h', 'e', 'r', 'return']","[0.7166762739070691, 1.3499443934997544, 2.016312738560373, 2.1994539752195124, 2.3993429226102307, 4.631789342587581, 4.898395190160954, 5.148269686585991, 6.66404047422111, 8.197056496021105, 8.346851792855887, 8.546849483274855, 9.329922843753593]",2017_Feb_22_1031,60.0484827242,famFaceGrey,001,21,
86,./greyInner/Ice-T(OdafinFinTutuola)10_1_cut.png,0,123,123,85,,,1.ja,1.795,None,dummy,1.297,None,None,None,None,None,,['return'],[0.8672346966632176],2017_Feb_22_1031,60.0484827242,famFaceGrey,001,21,
28,./greyInner/Beyonce3_2_cut.png,0,124,124,27,,,1.ja,2.794,None,None,None,music,0.894,None,None,None,Beyonce,"['lshift', 'b', 'e', 'y', 'o', 'n', 'c', 'e', 'return']","[0.816643522673985, 1.2498568537412211, 2.249514585826546, 2.7492626163584646, 3.282196198735619, 3.6655157226487063, 4.34849448633031, 4.565083348803455, 5.464753623236902]",2017_Feb_22_1031,60.0484827242,famFaceGrey,001,21,
121,./greyInner/KaleyCuoco(Penny)10_1_cut.png,0,125,125,120,,,1.ja,1.834,None,act,0.985,None,None,None,None,None,Penny,"['lshift', 'p', 'e', 'n', 'n', 'y', 'return']","[1.0332365552603733, 1.4331767626281362, 1.9828368845046498, 3.0156561102485284, 3.149073871813016, 3.2988409403769765, 3.765387380233733]",2017_Feb_22_1031,60.0484827242,famFaceGrey,001,21,
224,./greyInner/notfamousface9_1_cut.png,0,126,126,223,,,2.nein,2.176,None,act,2.076,None,None,None,None,None,,['return'],[1.1996457992354408],2017_Feb_22_1031,60.0484827242,famFaceGrey,001,21,
37,./greyInner/CarenMiosga13_1_cut.png,0,127,127,36,,,2.nein,2.843,None,dummy,0.96,None,None,None,None,None,,['return'],[0.8500622786523309],2017_Feb_22_1031,60.0484827242,famFaceGrey,001,21,
16,./greyInner/BastianSchweinsteiger1_1_cut.png,0,128,128,15,,,1.ja,1.724,None,None,None,None,None,sport,0.99,None,Sebastian Schweinsteiger,"['lshift', 's', 'e', 'b', 'a', 's', 't', 'i', 'a', 'n', 'space', 'lshift', 's', 'c', 'h', 'w', 'e', 'i', 'n', 's', 't', 'e', 'i', 'g', 'e', 'r', 'return']","[1.0333215608552564, 1.3831777409650385, 1.6324267243617214, 2.232349545665784, 2.4323982394416817, 3.715303994511487, 4.382098009227775, 4.848514855606481, 5.24832450717804, 5.46487744274782, 5.781272845255444, 6.114545231161173, 6.331250856077531, 7.447295073099667, 7.780535702186171, 8.080453808099264, 8.363749626703793, 8.646864848444238, 9.08004578112741, 9.379963566258084, 9.646338455146179, 9.829670232720673, 10.862439738237299, 12.045684264739975, 12.22880240555969, 12.412058159243315, 12.995086996030295]",2017_Feb_22_1031,60.0484827242,famFaceGrey,001,21,
7,./greyInner/AngelaMerkel3_1_cut.png,0,129,129,6,,,1.ja,1.869,None,None,None,None,None,polit,2.568,None,Angela Merkel,"['lshift', 'a', 'n', 'g', 'e', 'l', 'a', 'space', 'lshift', 'm', 'e', 'r', 'k', 'e', 'l', 'return']","[1.0997164020081982, 1.8828705980267841, 2.615977976791328, 3.0824416564719286, 3.349011577112833, 3.7155529166338965, 3.9320606227847748, 4.265316649136366, 4.481772068829741, 4.7483997291419655, 5.198116660438245, 5.531140124221565, 6.130951957078651, 6.314301056525437, 6.464499568712199, 7.264009166479809]",2017_Feb_22_1031,60.0484827242,famFaceGrey,001,21,
68,./greyInner/EmmaWatson(HermioneGranger)3_1_cut.png,0,130,130,67,,,1.ja,2.526,None,dummy,1.127,None,None,None,None,None,Harry Poter,"['lshift', 'h', 'a', 'r', 'r', 'y', 'space', 'lshift', 'p', 'o', 't', 'e', 'r', 'return']","[0.9169812676555011, 1.9166001858538948, 2.882760571897961, 3.3994449293531943, 3.565876627661055, 3.782750339130871, 4.498961487959605, 5.165372816991294, 5.531879191927146, 5.798162338905968, 6.248266125970986, 6.364881003362825, 6.564668585546315, 7.114545231161173]",2017_Feb_22_1031,60.0484827242,famFaceGrey,001,21,
17,./greyInner/BastianSchweinsteiger12_1_cut.png,0,131,131,16,,,1.ja,1.463,None,dummy,1.28,None,None,None,None,None,Sebastian Schweinsteiger,"['lshift', 's', 'e', 'b', 'a', 's', 't', 'i', 'a', 'n', 'space', 'lshift', 's', 'c', 'h', 'w', 'e', 'i', 'n', 's', 't', 'e', 'i', 'g', 'e', 'r', 'return']","[3.7821844904101454, 4.082121201325208, 4.315354163874872, 5.131686854700092, 5.298197784635704, 5.814787192444783, 6.114728714979719, 6.59772069461178, 6.964265883463668, 7.330849565390963, 7.880599825293757, 8.113671437546145, 8.3303283045243, 8.71350829093717, 9.03020618512528, 9.280080039985478, 9.57967833231669, 9.74654307810124, 10.029669206240214, 10.462798173248302, 10.795745933923172, 10.979350371024339, 11.412361934024375, 12.128780945640756, 12.395139474974712, 12.695359431003453, 13.294917209335836]",2017_Feb_22_1031,60.0484827242,famFaceGrey,001,21,
126,./greyInner/KatjaBurkard1_1_cut.png,0,132,132,125,,,1.ja,4.459,None,None,None,host,2.242,None,None,None,,['return'],[0.8331551423179917],2017_Feb_22_1031,60.0484827242,famFaceGrey,001,21,
185,./greyInner/SigmarGabriel8_2_cut.png,0,133,133,184,,,1.ja,2.031,None,None,None,None,None,polit,1.812,None,Spd,"['lshift', 's', 'p', 'd', 'return']","[1.1167451124056242, 1.7994489711127244, 2.6161059663863853, 2.9494370543106925, 3.5823394893377554]",2017_Feb_22_1031,60.0484827242,famFaceGrey,001,21,
84,./greyInner/HughLaurie(DrHouse)8_1_cut.png,0,134,134,83,,,1.ja,3.141,None,dummy,1.608,None,None,None,None,None,Arzt,"['lshift', 'a', 'r', 't', 'z', 'backspace', 'backspace', 'z', 't', 'return']","[0.9832314388768282, 1.416515982185956, 1.9662065777811222, 2.149495050602127, 3.0158598029520363, 4.531834283319768, 4.698486354667693, 5.731402133998927, 5.9479236335319, 6.697692755056778]",2017_Feb_22_1031,60.0484827242,famFaceGrey,001,21,
80,./greyInner/GeorgeClooney4_2_cut.png,0,135,135,79,,,1.ja,2.183,None,act,1.017,None,None,None,None,None,George Clooni,"['lshift', 'g', 'e', 'o', 'r', 'g', 'e', 'space', 'lshift', 'c', 'l', 'o', 'o', 'n', 'i', 'return']","[1.26632709329715, 2.5327327766572125, 3.265607913665008, 3.5656860867748037, 4.081973002874292, 4.5154006122320425, 4.681871124426834, 5.015213439502986, 5.264969569601817, 5.448335349414265, 6.014718803024152, 6.36462117487099, 6.497908059856854, 7.414122352289269, 8.263868025096599, 8.813611869496526]",2017_Feb_22_1031,60.0484827242,famFaceGrey,001,21,
209,./greyInner/WillSmith5_1_cut.png,0,136,136,208,,,1.ja,1.613,None,act,4.561,None,None,None,None,None,Will Smith,"['lshift', 'w', 'i', 'l', 'l', 'space', 'lshift', 's', 'm', 'i', 't', 'h', 'return']","[2.6326663439685944, 2.915780924173305, 3.5821088514639996, 3.931914028216852, 4.065387284004828, 4.448686278279638, 4.764937010826543, 5.031591937120538, 5.648200238589197, 6.164674808591371, 6.56446232664166, 6.8308930305356625, 7.563988861365942]",2017_Feb_22_1031,60.0484827242,famFaceGrey,001,21,
142,./greyInner/MariskaHargitay(Liv)14_1_cut.png,0,137,137,141,,,2.nein,2.328,None,dummy,1.079,None,None,None,None,None,,['return'],[1.216765610006405],2017_Feb_22_1031,60.0484827242,famFaceGrey,001,21,
162,./greyInner/OmarEpps(DrEricForeman)2_2_cut.png,0,138,138,161,,,1.ja,2.035,None,act,0.936,None,None,None,None,None,,['return'],[0.7000462879659608],2017_Feb_22_1031,60.0484827242,famFaceGrey,001,21,
53,./greyInner/DannFlorek(DonaldDonCragen)2_1_cut.png,0,139,139,52,,,2.nein,1.344,None,None,None,host,2.41,None,None,None,,['return'],[0.7335102733341046],2017_Feb_22_1031,60.0484827242,famFaceGrey,001,21,
27,./greyInner/Beyonce11_2_cut.png,0,140,140,26,,,1.ja,1.542,None,None,None,music,1.259,None,None,None,Beyonce,"['lshift', 'b', 'e', 'o', 'n', 'c', 'i', 'backspace', 'backspace', 'backspace', 'backspace', 'y', 'o', 'n', 'c', 'e', 'return']","[0.9999127489572857, 1.499827582942089, 2.6491850206803065, 2.9991900408058427, 3.715483949810732, 4.248370698915096, 5.864353487355402, 7.030755995074287, 7.230295296700206, 7.397247293527471, 7.530529366893461, 8.446366426825989, 8.796732640650589, 9.696349666279275, 10.179372119629988, 10.462633294431726, 11.06245956220664]",2017_Feb_22_1031,60.0484827242,famFaceGrey,001,21,
144,./greyInner/MariskaHargitay(Liv)6_5_cut.png,0,141,141,143,,,2.nein,4.186,None,None,None,host,4.815,None,None,None,,['return'],[0.6836879992333706],2017_Feb_22_1031,60.0484827242,famFaceGrey,001,21,
190,./greyInner/TaylorSwift8_1_cut.png,0,142,142,189,,,1.ja,1.712,None,None,None,music,1.044,None,None,None,Tailor,"['lshift', 't', 'a', 'i', 'l', 'o', 'r', 'return']","[1.1668811053677928, 1.7331224552472122, 2.0664285226375796, 2.4495937533502, 2.6994419461407233, 2.9158078693435527, 3.315683921537129, 6.281412543175975]",2017_Feb_22_1031,60.0484827242,famFaceGrey,001,21,
90,./greyInner/Ice-T(OdafinFinTutuola)7_1_cut.png,0,143,143,89,,,1.ja,1.925,None,dummy,0.809,None,None,None,None,None,,['return'],[0.7666768993949518],2017_Feb_22_1031,60.0484827242,famFaceGrey,001,21,
221,./greyInner/notfamousface6_8_cut.png,0,144,144,220,,,2.nein,3.009,None,dummy,2.267,None,None,None,None,None,,['return'],[0.7337986508791801],2017_Feb_22_1031,60.0484827242,famFaceGrey,001,21,
39,./greyInner/CarenMiosga6_2_cut.png,0,145,145,38,,,2.nein,1.462,None,dummy,1.096,None,None,None,None,None,,['return'],[0.7501396177103743],2017_Feb_22_1031,60.0484827242,famFaceGrey,001,21,
38,./greyInner/CarenMiosga2_11_cut.png,0,146,146,37,,,2.nein,1.418,None,act,1.193,None,None,None,None,None,,['return'],[0.7668950270453934],2017_Feb_22_1031,60.0484827242,famFaceGrey,001,21,
180,./greyInner/Shakira9_1_cut.png,0,147,147,179,,,1.ja,1.611,None,None,None,music,1.46,None,None,None,Shakira,"['lshift', 's', 'h', 'a', 'k', 'i', 'r', 'a', 'return']","[1.049772233061958, 1.3997284952492919, 2.1328852735168766, 2.299425073317252, 3.0990325077436864, 3.3489839903777465, 3.6989928598341066, 3.8654643343470525, 4.481863169174176]",2017_Feb_22_1031,60.0484827242,famFaceGrey,001,21,
89,./greyInner/Ice-T(OdafinFinTutuola)6_1_cut.png,0,148,148,88,,,1.ja,1.705,None,act,0.82,None,None,None,None,None,,['return'],[1.1334649156196974],2017_Feb_22_1031,60.0484827242,famFaceGrey,001,21,
197,./greyInner/UrsulavonderLeyen4_1_cut.png,0,149,149,196,,,1.ja,2.36,None,None,None,None,None,polit,1.73,None,van Davart,"['v', 'a', 'n', 'space', 'lshift', 'd', 'a', 'v', 'a', 'r', 't', 'return']","[3.4325121149304323, 3.6990576566022355, 4.715205516346032, 5.01482465909794, 5.7813944193476345, 6.014674856734928, 6.3312120421906, 6.730995390127646, 6.931096370390151, 7.097498878109036, 7.3141971251461655, 9.79642501656781]",2017_Feb_22_1031,60.0484827242,famFaceGrey,001,21,
145,./greyInner/MariskaHargitay(Liv)8_8_cut.png,0,150,150,144,,,2.nein,2.266,None,dummy,1.171,None,None,None,None,None,,['return'],[0.8332937175000552],2017_Feb_22_1031,60.0484827242,famFaceGrey,001,21,
78,./greyInner/GeorgeClooney16_1_cut.png,0,151,151,77,,,1.ja,1.708,None,act,1.308,None,None,None,None,None,George Clooni,"['lshift', 'g', 'e', 'i', 'backspace', 'o', 'r', 'g', 'e', 'space', 'lshift', 'c', 'l', 'o', 'o', 'n', 'i', 'return']","[0.9167060419276822, 1.6498564046632964, 2.0494344560429454, 2.34955753776012, 3.065848238999024, 3.582332432299154, 4.4152303122973535, 4.881754939415259, 5.065157608449226, 5.331477965431986, 5.8480397865059786, 6.331143716932274, 6.914281296747504, 7.2141214541043155, 7.347320446482627, 7.830368241149699, 8.680251847603358, 9.263160714210244]",2017_Feb_22_1031,60.0484827242,famFaceGrey,001,21,
200,./greyInner/UrsulavonderLeyen8_2_cut.png,0,152,152,199,,,1.ja,1.925,None,None,None,None,None,polit,1.242,None,van Davart,"['v', 'a', 'n', 'space', 'lshift', 'd', 'a', 'v', 'a', 'r', 't', 'return']","[1.7664469030860346, 1.9328789221763145, 2.199610513896914, 2.41608389702742, 2.6993870934529696, 3.1323643334326334, 3.3821653721679468, 3.7322319812956266, 3.9154771493631415, 4.248751780716702, 4.431844580220059, 5.09823954969761]",2017_Feb_22_1031,60.0484827242,famFaceGrey,001,21,
139,./greyInner/LisaEdelstein(DrLisaCuddy)6_3_cut.png,0,153,153,138,,,2.nein,3.173,None,dummy,1.307,None,None,None,None,None,,['return'],[0.8333488909702282],2017_Feb_22_1031,60.0484827242,famFaceGrey,001,21,
195,./greyInner/TomCruise7_1_cut.png,0,154,154,194,,,1.ja,1.879,None,dummy,1.03,None,None,None,None,None,Tom Cruese,"['lshift', 't', 'o', 'm', 'space', 'lshift', 'c', 'r', 'u', 'e', 's', 'e', 'return']","[0.9670620871474966, 1.3836040521564428, 1.8500664487364702, 2.1832894351391587, 2.3998179917398375, 2.666398818779271, 4.132523438282078, 4.465758614183869, 5.465314339555334, 5.6819137876154855, 5.998374949209392, 6.281461621896597, 6.664651231578318]",2017_Feb_22_1031,60.0484827242,famFaceGrey,001,21,
219,./greyInner/notfamousface4_2_cut.png,0,155,155,218,,,2.nein,2.791,None,None,None,music,2.097,None,None,None,,['return'],[0.7670605474268086],2017_Feb_22_1031,60.0484827242,famFaceGrey,001,21,
13,./greyInner/BarackObama2_1_cut.png,0,156,156,12,,,1.ja,1.45,None,None,None,None,None,polit,1.472,None,Barak Obama,"['lshift', 'b', 'a', 'r', 'a', 'k', 'space', 'lshift', 'o', 'b', 'a', 'm', 'a', 'return']","[0.9998604624706786, 1.7831163444498088, 2.199658309487859, 2.382775167177897, 2.5827484786277637, 3.0159159387403633, 3.2991286763572134, 3.532113679131726, 3.8490242477564607, 4.4654429706861265, 4.615350539097562, 4.931911141204182, 5.048367876064731, 5.681487797177397]",2017_Feb_22_1031,60.0484827242,famFaceGrey,001,21,
18,./greyInner/BastianSchweinsteiger14_1_cut.png,0,157,157,17,,,1.ja,1.712,None,None,None,None,None,sport,1.062,None,Sebastian Schweinsteiger,"['lshift', 's', 'e', 'b', 'a', 's', 't', 'i', 'a', 'n', 'space', 'lshift', 's', 'c', 'h', 'w', 'e', 'i', 'n', 's', 't', 'e', 'i', 'g', 'e', 'r', 'return']","[0.8840202589053661, 1.2508647316717543, 1.4840515024843626, 2.1501824733859394, 2.3501528978231363, 2.7669925429217983, 3.3831745331990533, 3.8496337220130954, 4.065794027847005, 4.332896757288836, 4.5827164010261185, 4.899253586510895, 5.298957061255351, 5.998854829958873, 6.365271387650864, 6.781799880089238, 7.065017108572647, 7.281649596581701, 7.581538511876715, 7.814797136496054, 8.131391099304892, 8.29789048130624, 10.680142783763586, 11.412780867365655, 11.596651227708207, 11.763185895077186, 12.26290152722504]",2017_Feb_22_1031,60.0484827242,famFaceGrey,001,21,
25,./greyInner/BenedictCumberbatch6_5_cut.png,0,158,158,24,,,1.ja,3.533,None,dummy,1.385,None,None,None,None,None,,['return'],[0.6836135792254936],2017_Feb_22_1031,60.0484827242,famFaceGrey,001,21,
206,./greyInner/WillSmith1_1_cut.png,0,159,159,205,,,1.ja,1.896,None,dummy,0.996,None,None,None,None,None,Will Smith,"['lshift', 'w', 'i', 'l', 'l', 'space', 'lshift', 's', 'm', 'i', 't', 'h', 'return']","[1.1003140075481497, 1.5169910192198586, 2.133233636181103, 2.533141765947221, 2.666311888489872, 2.9827560489356983, 3.182705302198883, 3.482674090686487, 4.798510060005356, 5.098722638213076, 5.448737602418987, 5.998364042810863, 6.514815837726928]",2017_Feb_22_1031,60.0484827242,famFaceGrey,001,21,
216,./greyInner/notfamousface14_6_cut.png,0,160,160,215,,,2.nein,6.478,None,None,None,None,None,polit,7.082,None,,['return'],[0.9500940033758525],2017_Feb_22_1031,60.0484827242,famFaceGrey,001,21,
182,./greyInner/SigmarGabriel11_3_cut.png,0,161,161,181,,,1.ja,2.631,None,None,None,None,None,polit,1.389,None,Spd,"['lshift', 's', 'p', 'd', 'return']","[0.9503560773155186, 1.2501112290483434, 2.049503422837006, 2.3330093496770132, 2.79945474510896]",2017_Feb_22_1031,60.0484827242,famFaceGrey,001,21,
143,./greyInner/MariskaHargitay(Liv)4_4_cut.png,0,162,162,142,,,1.ja,4.91,None,None,None,host,1.544,None,None,None,,['return'],[0.7333325634826906],2017_Feb_22_1031,60.0484827242,famFaceGrey,001,21,
26,./greyInner/Beyonce1_1_cut.png,0,163,163,25,,,1.ja,1.735,None,None,None,music,0.871,None,None,None,Beyonce,"['lshift', 'b', 'e', 'y', 'o', 'n', 'c', 'e', 'return']","[1.1498382808058523, 1.6831904757709708, 3.5489573018276133, 3.8321681148081552, 4.31541639441275, 4.698673687817063, 5.214776799315587, 5.448312574328156, 5.898234481428517]",2017_Feb_22_1031,60.0484827242,famFaceGrey,001,21,
76,./greyInner/GeorgeClooney11_1_cut.png,0,164,164,75,,,1.ja,2.229,None,act,1.745,None,None,None,None,None,George Clooni,"['lshift', 'g', 'e', 'o', 'r', 'g', 'e', 'space', 'lshift', 'c', 'l', 'o', 'o', 'n', 'i', 'return']","[1.050782677193638, 2.1500637863064185, 2.750126786675537, 3.066596929973457, 3.5331799382984173, 4.3827873566769995, 4.532702623720979, 5.249145693553146, 5.448881310032448, 5.782126109203091, 6.3818917503231205, 6.665154208225431, 6.798259534029057, 7.198326127108885, 7.9313725584652275, 8.530993208871223]",2017_Feb_22_1031,60.0484827242,famFaceGrey,001,21,
123,./greyInner/KaleyCuoco(Penny)3_1_cut.png,0,165,165,122,,,1.ja,2.195,None,act,0.93,None,None,None,None,None,Penny,"['lshift', 'p', 'e', 'n', 'n', 'y', 'return']","[0.9002082156657707, 1.2665388053865172, 1.866523857228458, 3.0160128130810335, 3.165838904416887, 3.299059709563153, 3.7324125781597104]",2017_Feb_22_1031,60.0484827242,famFaceGrey,001,21,
51,./greyInner/DannFlorek(DonaldDonCragen)1_1_cut.png,0,166,166,50,,,1.ja,3.395,None,act,1.012,None,None,None,None,None,Arzt,"['lshift', 'a', 'r', 't', 'z', 'backspace', 'backspace', 'z', 't', 'return']","[4.982359569927212, 5.3821255959628616, 6.298419761587866, 6.481687704741489, 6.898180911841337, 8.430345594359096, 8.61355162775726, 9.463805088860681, 9.646954024152365, 10.19678608191316]",2017_Feb_22_1031,60.0484827242,famFaceGrey,001,21,
30,./greyInner/Beyonce8_3_cut.png,0,167,167,29,,,1.ja,2.112,None,None,None,music,0.929,None,None,None,Beyonce,"['lshift', 'b', 'e', 'y', 'o', 'n', 'c', 'e', 'return']","[1.7334679309278727, 2.1001125602633692, 3.499382025212981, 4.315769247914432, 4.58239658747334, 4.965454358258285, 5.665174737863708, 5.848532498290297, 6.231763167306781]",2017_Feb_22_1031,60.0484827242,famFaceGrey,001,21,
96,./greyInner/JasonSegel(Marshall)11_1_cut.png,0,168,168,95,,,1.ja,2.862,None,act,1.046,None,None,None,None,None,Mirshel,"['lshift', 'm', 'i', 'r', 's', 'h', 'e', 'l', 'return']","[0.9504863123293035, 1.733585014124401, 2.0999444736808073, 2.566584900894668, 2.9663759474642575, 3.2661108903121203, 3.465895906294463, 3.7992879416269716, 4.315786890598247]",2017_Feb_22_1031,60.0484827242,famFaceGrey,001,21,
141,./greyInner/MariskaHargitay(Liv)13_1_cut.png,0,169,169,140,,,2.nein,5.877,None,dummy,1.495,None,None,None,None,None,,['return'],[0.8666986800963059],2017_Feb_22_1031,60.0484827242,famFaceGrey,001,21,
1,./greyInner/AlysonHannigan(Lily)1_1_cut.png,0,170,170,0,,,1.ja,1.796,None,dummy,1.244,None,None,None,None,None,Lilly,"['lshift', 'l', 'i', 'l', 'l', 'y', 'return']","[0.8999284990422893, 1.3666051739128307, 1.7332417838915717, 2.233043383981567, 2.3829108554054983, 2.565897798864171, 2.999452114716405]",2017_Feb_22_1031,60.0484827242,famFaceGrey,001,21,
108,./greyInner/JoachimLoew15_1_cut.png,0,171,171,107,,,1.ja,1.613,None,None,None,None,None,sport,1.111,None,Löwi,"['lshift', 'l', u'\xf6', 'w', 'i', 'return']","[0.9333138943184167, 1.6497851924214046, 1.9331801307562273, 2.5663449605053756, 2.832684884808259, 3.365931223728694]",2017_Feb_22_1031,60.0484827242,famFaceGrey,001,21,
188,./greyInner/TaylorSwift3_1_cut.png,0,172,172,187,,,1.ja,1.778,None,None,None,music,0.961,None,None,None,Tailor,"['lshift', 'lshift', 't', 'a', 'i', 'l', 'o', 'r', 'return']","[1.1664830224472098, 2.182691508845892, 2.6491898323001806, 3.015786024508998, 3.7651490437274333, 3.981988752959296, 4.181993821228389, 4.565251114603598, 7.380678255023668]",2017_Feb_22_1031,60.0484827242,famFaceGrey,001,21,
100,./greyInner/JasonSegel(Marshall)9_1_cut.png,0,173,173,99,,,1.ja,1.811,None,act,1.345,None,None,None,None,None,Murshel,"['lshift', 'm', 'u', 'r', 's', 'h', 'e', 'l', 'return']","[0.8833995575259905, 1.38329899427481, 1.816375033231452, 2.166336427850183, 3.0158851442392915, 3.265665974089643, 3.5158144131710287, 3.7989389373979066, 4.431745460460661]",2017_Feb_22_1031,60.0484827242,famFaceGrey,001,21,
75,./greyInner/GuentherJauch9_1_cut.png,0,174,174,74,,,1.ja,1.821,None,None,None,host,1.286,None,None,None,wer wird Millioner,"['w', 'e', 'r', 'space', 'w', 'i', 'r', 'd', 'space', 'lshift', 'm', 'i', 'l', 'l', 'i', 'o', 'n', 'e', 'r', 'return']","[2.649511249794159, 2.94932285809773, 3.2659476153785363, 3.599060896434821, 3.832367958209943, 4.198833915404975, 4.615301781188464, 4.831685026292689, 5.181760296371067, 6.564324713777751, 6.9309764002100565, 7.297570667753462, 7.914033336972352, 8.06350689555984, 8.330489334039157, 8.513579888123786, 9.263217491534306, 9.480023519310635, 9.679700113018043, 11.795701666851528]",2017_Feb_22_1031,60.0484827242,famFaceGrey,001,21,
33,./greyInner/BritneySpears5_1_cut.png,0,175,175,32,,,1.ja,2.411,None,None,None,music,1.394,None,None,None,Breatny Speers,"['lshift', 'b', 'r', 'e', 'a', 't', 'n', 'y', 'space', 'lshift', 's', 'o', 'backspace', 'p', 'e', 'e', 'r', 's', 'return']","[0.8500346919172443, 1.2831453746766783, 1.649409563804511, 1.8496119092451409, 2.0327871481713373, 2.5158856254129205, 3.9321292688546237, 4.098656879155897, 4.315197946008993, 4.914766630710801, 5.131495993031422, 6.097681720362743, 6.78100467659533, 7.197466447629267, 7.713919846428325, 7.863729898963356, 8.063641621440183, 8.296877470973413, 8.713564105943078]",2017_Feb_22_1031,60.0484827242,famFaceGrey,001,21,
29,./greyInner/Beyonce5_3_cut.png,0,176,176,28,,,1.ja,1.674,None,None,None,music,0.858,None,None,None,Beyonce,"['lshift', 'b', 'e', 'y', 'o', 'n', 'c', 'e', 'return']","[0.8179266263614409, 1.29976220880053, 1.8662515184551012, 2.432749489089474, 2.7989447113650385, 3.182282840309199, 3.815455047908472, 3.9820593236363493, 4.448561175639043]",2017_Feb_22_1031,60.0484827242,famFaceGrey,001,21,
119,./greyInner/JudithRakers7_1_cut.png,0,177,177,118,,,2.nein,2.544,None,dummy,0.944,None,None,None,None,None,,['return'],[0.9832538931805175],2017_Feb_22_1031,60.0484827242,famFaceGrey,001,21,
101,./greyInner/JimParsons(SheldonCooper)1_1_cut.png,0,178,178,100,,,1.ja,1.529,None,dummy,1.163,None,None,None,None,None,Sheldon Cooper,"['lshift', 's', 'h', 'e', 'l', 'd', 'o', 'n', 'space', 'lshift', 'c', 'o', 'o', 'p', 'e', 'r', 'return']","[0.7998470540333074, 1.183223996864399, 2.6160318671609275, 2.782550495758187, 3.298998120590113, 3.9487538016110193, 4.165391421993263, 4.498256743274396, 4.73152659504558, 5.264811427070526, 5.53073626733385, 6.097802011325257, 6.264417835016502, 6.497744464140851, 6.780946616141591, 7.06430017441744, 7.614036961720558]",2017_Feb_22_1031,60.0484827242,famFaceGrey,001,21,
106,./greyInner/JoachimLoew1_1_cut.png,0,179,179,105,,,1.ja,1.403,None,None,None,None,None,sport,1.07,None,Löwi,"['lshift', 'l', u'\xf6', 'w', 'i', 'return']","[0.8333934787951875, 1.3998519939777907, 1.699679320299765, 2.5327449661272112, 2.815960590756731, 3.332333474798361]",2017_Feb_22_1031,60.0484827242,famFaceGrey,001,21,
137,./greyInner/LisaEdelstein(DrLisaCuddy)10_1_cut.png,0,180,180,136,,,2.nein,2.211,None,dummy,0.828,None,None,None,None,None,,['return'],[0.5999401432054583],2017_Feb_22_1031,60.0484827242,famFaceGrey,001,21,
107,./greyInner/JoachimLoew12_1_cut.png,0,181,181,106,,,1.ja,2.696,None,None,None,None,None,sport,1.031,None,Löwi,"['lshift', 'l', 'o', 'backspace', u'\xf6', 'w', 'i', 'return']","[1.0663406300300267, 1.583044554805383, 1.916390719183255, 2.8826649806578644, 3.249847872008104, 3.915608988259919, 4.415232557716081, 4.881706181447953]",2017_Feb_22_1031,60.0484827242,famFaceGrey,001,21,
214,./greyInner/notfamousface1_2_cut.png,0,182,182,213,,,2.nein,3.956,None,dummy,1.004,None,None,None,None,None,,['return'],[1.0166575726761948],2017_Feb_22_1031,60.0484827242,famFaceGrey,001,21,
56,./greyInner/ElvisPresley1_1_cut.png,0,183,183,55,,,1.ja,1.924,None,None,None,music,0.958,None,None,None,Elvies,"['lshift', 'e', 'l', 'v', 'i', 'e', 's', 'return']","[1.0834739134006668, 1.4331844612315763, 2.149510447838111, 2.6992016849690117, 3.13247435959056, 3.932108418433927, 4.248589788883692, 8.496929693297716]",2017_Feb_22_1031,60.0484827242,famFaceGrey,001,21,
4,./greyInner/AlysonHannigan(Lily)5_4_cut.png,0,184,184,3,,,1.ja,1.7,None,act,0.968,None,None,None,None,None,Lilly,"['lshift', 'l', 'i', 'l', 'l', 'y', 'return']","[0.8834441453800537, 1.3332124008156825, 1.6497938533429988, 2.5993560102651827, 2.732706729642814, 2.9160000141127966, 3.3490924126526807]",2017_Feb_22_1031,60.0484827242,famFaceGrey,001,21,
208,./greyInner/WillSmith4_1_cut.png,0,185,185,207,,,1.ja,2.208,None,act,0.807,None,None,None,None,None,Will Smith,"['lshift', 'w', 'i', 'l', 'l', 'space', 'lshift', 's', 'm', 'i', 't', 'h', 'return']","[1.7496433773776516, 2.2660842659242917, 2.8825270470406394, 3.3157313963747583, 3.465590206847992, 3.782257627346553, 3.932065755216172, 4.415082755382173, 5.2315511344058905, 5.814782380824909, 6.197804545459803, 6.397709210868925, 6.96428192226449]",2017_Feb_22_1031,60.0484827242,famFaceGrey,001,21,
222,./greyInner/notfamousface7_cut.png,0,186,186,221,,,2.nein,2.287,None,dummy,1.271,None,None,None,None,None,,['return'],[1.2833384817640763],2017_Feb_22_1031,60.0484827242,famFaceGrey,001,21,
103,./greyInner/JimParsons(SheldonCooper)6_1_cut.png,0,187,187,102,,,1.ja,1.546,None,dummy,0.977,None,None,None,None,None,Sheldon Cooper,"['lshift', 's', 'h', 'e', 'l', 'd', 'o', 'n', 'space', 'lshift', 'c', 'o', 'o', 'p', 'e', 'r', 'return']","[0.8665889747499023, 1.333227477298351, 1.9996311076974962, 2.2163033719116356, 2.5994660364231095, 3.06587325950386, 3.265612083749147, 3.632108514662832, 3.8322187974117696, 4.581883025210118, 4.798582876159344, 5.6483269450836815, 5.798105882364325, 5.99800509455963, 6.264586883917218, 6.464460754825268, 7.080993032432161]",2017_Feb_22_1031,60.0484827242,famFaceGrey,001,21,
127,./greyInner/KatjaBurkard10_1_cut.png,0,188,188,126,,,1.ja,2.713,None,None,None,host,3.062,None,None,None,Punkt 12,"['lshift', 'p', 'u', 'n', 'k', 't', 'space', '1', '2', 'return']","[0.9001129452080932, 1.4834247063554358, 2.0165722462697886, 2.6495446104672737, 2.882722399546765, 3.2825631664018147, 3.615791926771635, 4.2490369504957926, 4.4654420083679724, 5.91489397874102]",2017_Feb_22_1031,60.0484827242,famFaceGrey,001,21,
215,./greyInner/notfamousface13_1_cut.png,0,189,189,214,,,2.nein,2.511,None,None,None,music,4.293,None,None,None,,['return'],[0.9999445057474077],2017_Feb_22_1031,60.0484827242,famFaceGrey,001,21,
91,./greyInner/JanHofer1_3_cut.png,0,190,190,90,,,2.nein,1.513,None,None,None,host,1.096,None,None,None,,['return'],[0.717312051798217],2017_Feb_22_1031,60.0484827242,famFaceGrey,001,21,
73,./greyInner/GuentherJauch4_1_cut.png,0,191,191,72,,,1.ja,1.794,None,None,None,host,2.311,None,None,None,wer wird Millioner,"['w', 'e', 'r', 'space', 'w', 'i', 'r', 'd', 'space', 'lshift', 'm', 'i', 'l', 'l', 'i', 'o', 'n', 'e', 'r', 'return']","[0.8835169615049381, 1.166581821424188, 1.4999719320912845, 1.7997938052285463, 2.049671509419568, 2.465943701885408, 3.049408793944167, 3.2992496088845655, 3.6323670600249898, 3.931982674228493, 4.331800345215015, 4.865014285751386, 5.148342181928456, 5.298373890633229, 5.598022544756532, 5.798177736141952, 7.530714454565896, 7.730726900685113, 7.914039752475219, 8.463757614023052]",2017_Feb_22_1031,60.0484827242,famFaceGrey,001,21,
131,./greyInner/LeonardoDiCaprio1_1_cut.png,0,192,192,130,,,1.ja,2.035,None,dummy,0.972,None,None,None,None,None,Leonardo Dicaprio,"['lshift', 'l', 'e', 'o', 'n', 'a', 'r', 'd', 'o', 'space', 'lshift', 'd', 'i', 'c', 'a', 'p', 'r', 'i', 'o', 'return']","[1.3829474238445982, 1.732945386931533, 2.416163128655171, 2.63266281542019, 2.999311935651349, 3.2491225976555143, 3.5988321831973735, 4.248794764687773, 4.565125049673952, 4.8650219843839295, 5.398197431786684, 5.731429720704909, 6.364522055111593, 6.864264632429695, 7.0641683354915585, 7.8972599641710985, 8.280389267980354, 8.696906533266883, 8.863247131201206, 9.47976882319199]",2017_Feb_22_1031,60.0484827242,famFaceGrey,001,21,
60,./greyInner/ElvisPresley6_1_cut.png,0,193,193,59,,,1.ja,1.779,None,None,None,music,2.06,None,None,None,Elvis,"['lshift', 'e', 'l', 'v', 'i', 's', 'return']","[0.8666640363226179, 1.8997033143532462, 3.3657531930948608, 3.7822107940446585, 4.24864143380546, 4.431904565310106, 7.5140167849313]",2017_Feb_22_1031,60.0484827242,famFaceGrey,001,21,
170,./greyInner/RobertSeanLeonard(Wilson)8_1_cut.png,0,194,194,169,,,1.ja,6.76,None,dummy,1.495,None,None,None,None,None,,['return'],[0.8666338833863847],2017_Feb_22_1031,60.0484827242,famFaceGrey,001,21,
94,./greyInner/JanHofer7_1_cut.png,0,195,195,93,,,2.nein,3.007,None,None,None,host,0.724,None,None,None,,['return'],[0.7165309624106158],2017_Feb_22_1031,60.0484827242,famFaceGrey,001,21,
168,./greyInner/RobertSeanLeonard(Wilson)11_2_cut.png,0,196,196,167,,,1.ja,3.477,None,act,0.661,None,None,None,None,None,,['return'],[0.833337984571699],2017_Feb_22_1031,60.0484827242,famFaceGrey,001,21,
135,./greyInner/LeonardoDiCaprio7_1_cut.png,0,197,197,134,,,1.ja,1.652,None,act,0.673,None,None,None,None,None,Leonardo Dicaprio,"['lshift', 'l', 'e', 'o', 'n', 'a', 'r', 'd', 'o', 'space', 'lshift', 'd', 'i', 'c', 'a', 'p', 'r', 'i', 'o', 'return']","[0.8168440076406114, 1.43309143622173, 1.9663836460676976, 2.14954348775791, 2.4661358466837555, 2.7659484173054807, 3.0325180171930697, 3.5156607615062967, 3.7315054238424636, 4.082118314341642, 4.43195524791372, 4.665251724101836, 5.231708956154762, 5.731380962795811, 5.94798522250494, 7.214051845745416, 7.630742971552536, 8.280187499942258, 8.463514786650194, 8.996694083383773]",2017_Feb_22_1031,60.0484827242,famFaceGrey,001,21,
50,./greyInner/CristinMilioti(Tracy_Mutter)9_1_cut.png,0,198,198,49,,,1.ja,2.232,None,dummy,0.951,None,None,None,None,None,,['return'],[0.6501896908448543],2017_Feb_22_1031,60.0484827242,famFaceGrey,001,21,
41,./greyInner/CobieSmulders(Robin)12_1_cut.png,0,199,199,40,,,1.ja,1.572,None,act,0.764,None,None,None,None,None,Robin,"['lshift', 'r', 'o', 'b', 'i', 'n', 'return']","[0.8670945175690576, 1.2336756332952064, 1.86666692327708, 2.249912989529548, 2.616368681861786, 2.9995752926624846, 3.6826227023848332]",2017_Feb_22_1031,60.0484827242,famFaceGrey,001,21,
220,./greyInner/notfamousface5_1_cut.png,0,200,200,219,,,2.nein,2.874,None,None,None,host,0.786,None,None,None,,['return'],[0.6336113498255145],2017_Feb_22_1031,60.0484827242,famFaceGrey,001,21,
192,./greyInner/TomCruise4_1_cut.png,0,201,201,191,,,1.ja,1.908,None,dummy,1.058,None,None,None,None,None,Tom Crueso,"['lshift', 't', 'o', 'm', 'space', 'lshift', 'c', 'r', 'u', 'e', 's', 'o', 'return']","[0.8167554734682199, 1.149490238953149, 2.0994190427300055, 2.3826125338091515, 2.6156895992462523, 2.7992115969536826, 3.09909120973316, 3.498910484602675, 4.016590851271758, 4.215409048629226, 4.59847483880003, 4.864983170496998, 5.481516089639626]",2017_Feb_22_1031,60.0484827242,famFaceGrey,001,21,
2,./greyInner/AlysonHannigan(Lily)12_2_cut.png,0,202,202,1,,,1.ja,2.016,None,act,0.784,None,None,None,None,None,Lilly,"['lshift', 'l', 'i', 'l', 'l', 'y', 'return']","[0.832950487267226, 1.283122920372989, 1.6162592972978018, 2.5659311595663894, 2.71587497566361, 2.882334260706557, 3.3156386921182275]",2017_Feb_22_1031,60.0484827242,famFaceGrey,001,21,
204,./greyInner/Usher4_1_cut.png,0,203,203,203,,,1.ja,1.594,None,None,None,music,0.993,None,None,None,Usher,"['lshift', 'u', 's', 'h', 'e', 'r', 'return']","[1.1499313058156986, 1.8831134253996424, 2.832344541558996, 3.0659903427003883, 3.299020254111383, 3.4989826591627207, 4.498433811560972]",2017_Feb_22_1031,60.0484827242,famFaceGrey,001,21,
43,./greyInner/CobieSmulders(Robin)3_4_cut.png,0,204,204,42,,,1.ja,2.008,None,dummy,1.075,None,None,None,None,None,Robin,"['lshift', 'r', 'o', 'b', 'i', 'n', 'return']","[0.9832285518932622, 1.3997804609534796, 1.9829071344283875, 2.332724179868819, 2.699316201993497, 3.13240250578383, 3.648880283551989]",2017_Feb_22_1031,60.0484827242,famFaceGrey,001,21,
213,./greyInner/notfamousface12_2_cut.png,0,205,205,212,,,2.nein,3.998,None,None,None,music,1.552,None,None,None,,['return'],[1.1332929797354154],2017_Feb_22_1031,60.0484827242,famFaceGrey,001,21,
87,./greyInner/Ice-T(OdafinFinTutuola)12_1_cut.png,0,206,206,86,,,1.ja,1.813,None,dummy,2.029,None,None,None,None,None,,['return'],[0.7003677054308355],2017_Feb_22_1031,60.0484827242,famFaceGrey,001,21,
5,./greyInner/AlysonHannigan(Lily)8_3_cut.png,0,207,207,4,,,1.ja,1.798,None,act,1.012,None,None,None,None,None,Lilly,"['lshift', 'l', 'i', 'l', 'l', 'y', 'return']","[0.8002756106725428, 1.1999152510252316, 1.483451972308103, 2.366384480090346, 2.499670081975637, 2.64960491633974, 3.0160727981710806]",2017_Feb_22_1031,60.0484827242,famFaceGrey,001,21,
128,./greyInner/KatjaBurkard4_1_cut.png,0,208,208,127,,,1.ja,2.513,None,None,None,host,1.167,None,None,None,Punkt 12,"['lshift', 'p', 'u', 'n', 'k', 't', 'space', '1', '2', 'return']","[0.8830127017572522, 1.3665198475064244, 1.8163615606317762, 2.1994366533181164, 2.4493079419771675, 2.8330957987636793, 3.1489888661599252, 3.5821948193770368, 3.865293681563344, 4.331742926326115]",2017_Feb_22_1031,60.0484827242,famFaceGrey,001,21,
184,./greyInner/SigmarGabriel4_5_cut.png,0,209,209,183,,,1.ja,2.061,None,None,None,None,None,polit,1.621,None,Spd,"['lshift', 's', 'p', 'd', 'return']","[0.9999348824785557, 1.3666927457379643, 2.0664987725322135, 2.5329576405638363, 3.1492714697669726]",2017_Feb_22_1031,60.0484827242,famFaceGrey,001,21,
47,./greyInner/CristinMilioti(Tracy_Mutter)2_1_cut.png,0,210,210,46,,,1.ja,1.829,None,act,0.78,None,None,None,None,None,,['return'],[0.6503985159797594],2017_Feb_22_1031,60.0484827242,famFaceGrey,001,21,
66,./greyInner/EmmaWatson(HermioneGranger)11_2_cut.png,0,211,211,65,,,1.ja,1.91,None,act,0.811,None,None,None,None,None,Harry Poter,"['lshift', 'h', 'a', 'r', 'r', 'y', 'space', 'lshift', 'p', 'o', 't', 'e', 'r', 'backspace', 'backspace', 'e', 'r', 'return']","[0.9330694630625658, 1.5664784032851458, 1.9328170124208555, 2.465983478119597, 2.616023526992649, 2.7824812081526034, 6.2810218381055165, 7.297225192072801, 7.663965733430814, 7.8803143347322475, 8.330244261247572, 8.496960487769684, 8.646821543690749, 10.562790121766739, 10.745724457985489, 12.645181416417472, 12.895185827102978, 14.211157805402763]",2017_Feb_22_1031,60.0484827242,famFaceGrey,001,21,
158,./greyInner/NicoleKidman5_1_cut.png,0,212,212,157,,,1.ja,1.774,None,act,0.859,None,None,None,None,None,Nickole Kidmann,"['lshift', 'n', 'i', 'c', 'k', 'o', 'l', 'e', 'space', 'lshift', 'k', 'i', 'd', 'm', 'a', 'n', 'n', 'return']","[0.849937817605678, 1.3662125442060642, 1.8162778381374665, 2.1158767720335163, 2.4160855009104125, 2.715960943605751, 2.9657876444398426, 3.149110761063639, 3.365568105393322, 3.715567993116565, 4.048732919094618, 4.348502826527692, 5.264811106288107, 5.914564862672705, 6.1645185907545965, 6.381129586749012, 6.53090916556539, 6.947575591650093]",2017_Feb_22_1031,60.0484827242,famFaceGrey,001,21,
42,./greyInner/CobieSmulders(Robin)2_1_cut.png,0,213,213,41,,,1.ja,2.043,None,act,0.761,None,None,None,None,None,Robin,"['lshift', 'r', 'o', 'b', 'i', 'm', 'backspace', 'n', 'return']","[0.8665803137992043, 1.2332923061039764, 1.7663173096370883, 2.1160759738704655, 2.5159164199139923, 2.7658730349794496, 3.449037848680746, 3.881999049888691, 4.731743439595448]",2017_Feb_22_1031,60.0484827242,famFaceGrey,001,21,
64,./greyInner/EmilyDeschanel6_12_cut.png,0,214,214,63,,,2.nein,1.922,None,act,0.962,None,None,None,None,None,,['return'],[0.7669803534226958],2017_Feb_22_1031,60.0484827242,famFaceGrey,001,21,
178,./greyInner/Shakira3_1_cut.png,0,215,215,177,,,1.ja,1.696,None,None,None,music,1.279,None,None,None,Shakira,"['lshift', 's', 'h', 'a', 'k', 'i', 'r', 'a', 'return']","[1.0346851792710368, 1.8168196286715101, 3.0329449699202087, 3.266198462137254, 3.699456060276134, 3.9323926258657593, 4.265781132649863, 4.415771140484139, 4.915659029298695]",2017_Feb_22_1031,60.0484827242,famFaceGrey,001,21,
98,./greyInner/JasonSegel(Marshall)6_1_cut.png,0,216,216,97,,,1.ja,1.98,None,dummy,1.385,None,None,None,None,None,Murshel,"['lshift', 'm', 'i', 'backspace', 'u', 'r', 's', 'h', 'e', 'l', 'return']","[0.883702369988896, 1.3334346985502634, 1.7333858122874517, 2.366439653560519, 2.832740058278432, 3.2993307652068324, 3.8324776635854505, 4.132388070866, 4.349010614794679, 4.765085850871401, 5.448310328909429]",2017_Feb_22_1031,60.0484827242,famFaceGrey,001,21,
35,./greyInner/BritneySpears8_5_cut.png,0,217,217,34,,,1.ja,1.621,None,None,None,music,1.422,None,None,None,Breatny Speers,"['lshift', 'b', 'r', 'e', 'a', 't', 'n', 'y', 'space', 'lshift', 's', 'p', 'e', 'e', 'r', 's', 'return']","[0.7166650467552245, 1.166556800919352, 1.5330628550727852, 1.8329386185505427, 2.016065420320956, 2.7658807335828897, 3.3656646589224692, 3.582296505366685, 3.798705412540585, 4.598522313637659, 4.765088737854967, 5.897837040043669, 6.414276324707316, 6.680912645970238, 7.097501444281079, 7.330805619101739, 8.86337415847811]",2017_Feb_22_1031,60.0484827242,famFaceGrey,001,21,
194,./greyInner/TomCruise6_1_cut.png,0,218,218,193,,,1.ja,1.645,None,act,1.345,None,None,None,None,None,Tom Crueso,"['lshift', 't', 'o', 'm', 'space', 'lshift', 'c', 'r', 'u', 'e', 's', 'o', 'return']","[0.7836513986985665, 1.2168644089833833, 1.7167025775415823, 1.9998293472162914, 2.2996736746572424, 2.5162907654012088, 2.882775648351526, 3.26601016666973, 3.882477326755179, 4.098936595750274, 4.4653541157604195, 4.715410492121009, 5.864987661363557]",2017_Feb_22_1031,60.0484827242,famFaceGrey,001,21,
164,./greyInner/OmarEpps(DrEricForeman)5_2_cut.png,0,219,219,163,,,1.ja,1.633,None,dummy,0.696,None,None,None,None,None,,['return'],[0.6003430377750192],2017_Feb_22_1031,60.0484827242,famFaceGrey,001,21,
85,./greyInner/HughLaurie(DrHouse)9_2_cut.png,0,220,220,84,,,1.ja,2.004,None,act,1.073,None,None,None,None,None,Arzt,"['lshift', 'a', 'r', 'z', 't', 'return']","[1.0167550885525998, 1.449824391223956, 2.16637427941896, 2.899385104654357, 3.0992326719278935, 4.032270057388814]",2017_Feb_22_1031,60.0484827242,famFaceGrey,001,21,
148,./greyInner/MilaKunis4_1_cut.png,0,221,221,147,,,1.ja,2.395,None,dummy,0.647,None,None,None,None,None,,['return'],[3.016191806033021],2017_Feb_22_1031,60.0484827242,famFaceGrey,001,21,
67,./greyInner/EmmaWatson(HermioneGranger)16_1_cut.png,0,222,222,66,,,1.ja,1.961,None,dummy,1.227,None,None,None,None,None,Herry Poter,"['lshift', 'h', 'e', 'r', 'r', 'y', 'space', 'lshift', 'p', 'o', 't', 'e', 'r', 'return']","[0.8501883435819764, 1.383235159853939, 5.581634744652547, 6.164682507223915, 6.331275555799948, 7.147467105212854, 7.364054363803007, 7.814003857638454, 8.413978644646704, 8.697019446379272, 9.663116960349726, 9.879792432300746, 10.063000390364323, 10.87911206658464]",2017_Feb_22_1031,60.0484827242,famFaceGrey,001,21,
133,./greyInner/LeonardoDiCaprio3_1_cut.png,0,223,223,132,,,1.ja,1.745,None,dummy,0.931,None,None,None,None,None,Leonardo Dicaprio,"['lshift', 'l', 'e', 'o', 'n', 'a', 'r', 'd', 'o', 'space', 'lshift', 'd', 'i', 'c', 'a', 'p', 'r', 'i', 'o', 'return']","[0.9500426792365033, 1.4499186993343756, 1.8996834262215998, 2.1161985102517065, 2.4494000046688598, 2.799014640535461, 3.56558792933356, 3.8656507051782683, 4.115473877434852, 4.648463916382752, 5.381421813595807, 5.714651215530466, 6.38121780010988, 7.64725010030088, 7.863723804213805, 8.696892419131473, 9.146746642509243, 10.146205172757618, 10.329513854463585, 10.929186149791349]",2017_Feb_22_1031,60.0484827242,famFaceGrey,001,21,
