num,pic,trials.thisRepN,trials.thisTrialN,trials.thisN,trials.thisIndex,key_resp_2.keys,key_resp_2.rt,ratingBekannt.response,ratingBekannt.rt,key_resp_5.keys,ratingK1.response,ratingK1.rt,ratingK2.response,ratingK2.rt,ratingK3.response,ratingK3.rt,key_resp_6.keys,inputText,key_resp_4.keys,key_resp_4.rt,date,frameRate,expName,session,participant,
,,,,,,space,41.5307865059,,,,,,,,,,,,,,2017_Feb_23_1429,60.0249733322,famFaceGrey,001,22,
180,./greyInner/Shakira9_1_cut.png,0,0,0,179,,,1.ja,6.402,None,None,None,music,6.641,None,None,None,shakira,"['s', 'h', 'a', 'k', 'i', 'r', 'a', 'return']","[5.481904753961771, 5.615106525554438, 5.781272725114832, 6.081900712159268, 6.314824337168375, 6.681100178641373, 6.864535781339782, 8.163519781255218]",2017_Feb_23_1429,60.0249733322,famFaceGrey,001,22,
219,./greyInner/notfamousface4_2_cut.png,0,1,1,218,,,2.nein,6.063,None,None,None,host,8.674,None,None,None,,['return'],[2.3995090813850766],2017_Feb_23_1429,60.0249733322,famFaceGrey,001,22,
203,./greyInner/Usher2_1_cut.png,0,2,2,202,,,1.ja,2.127,None,None,None,music,1.593,None,None,None,usher,"['u', 's', 'h', 'e', 'r', 'return']","[1.6500655509794342, 1.9999326366250898, 2.216421843568696, 2.3999735678946763, 2.583041238254282, 3.116129967688039]",2017_Feb_23_1429,60.0249733322,famFaceGrey,001,22,
36,./greyInner/CarenMiosga1_1_cut.png,0,3,3,35,,,2.nein,9.726,None,None,None,None,None,polit,4.228,None,,['return'],[1.5663909366107873],2017_Feb_23_1429,60.0249733322,famFaceGrey,001,22,
223,./greyInner/notfamousface8_9_cut.png,0,4,4,222,,,2.nein,3.303,None,None,None,music,7.773,None,None,None,,['return'],[1.1749462135530848],2017_Feb_23_1429,60.0249733322,famFaceGrey,001,22,
124,./greyInner/KaleyCuoco(Penny)5_2_cut.png,0,5,5,123,,,1.ja,4.742,None,act,1.222,None,None,None,None,None,penny,"['p', 'e', 'n', 'n', 'y', 'return']","[1.6162857053955122, 1.9995252485950914, 2.4326483333502438, 2.599109648648664, 2.815874724652531, 3.8487964891492084]",2017_Feb_23_1429,60.0249733322,famFaceGrey,001,22,
125,./greyInner/KaleyCuoco(Penny)7_1_cut.png,0,6,6,124,,,1.ja,3.408,None,act,1.043,None,None,None,None,None,penny,"['p', 'e', 'n', 'n', 'y', 'return']","[1.43312629253478, 1.5996851243385208, 1.8829147554984047, 2.0326834264606077, 2.182826124543226, 3.0323867068323125]",2017_Feb_23_1429,60.0249733322,famFaceGrey,001,22,
77,./greyInner/GeorgeClooney15_1_cut.png,0,7,7,76,,,1.ja,20.801,None,act,2.89,None,None,None,None,None,,['return'],[4.581903117993988],2017_Feb_23_1429,60.0249733322,famFaceGrey,001,22,
17,./greyInner/BastianSchweinsteiger12_1_cut.png,0,8,8,16,,,1.ja,2.53,None,None,None,None,None,sport,2.296,None,schweini,"['s', 'c', 'h', 'w', 'e', 'i', 'n', 'i', 'return']","[2.082916295232735, 2.1995312792209916, 2.382641292273547, 2.7324807910126765, 2.9824826354861216, 3.1988332663440815, 3.399132808818649, 3.598979733568285, 4.63187006182352]",2017_Feb_23_1429,60.0249733322,famFaceGrey,001,22,
181,./greyInner/SigmarGabriel1_2_cut.png,0,9,9,180,,,1.ja,3.993,None,None,None,None,None,polit,6.278,None,,['return'],[1.5998435886590414],2017_Feb_23_1429,60.0249733322,famFaceGrey,001,22,
131,./greyInner/LeonardoDiCaprio1_1_cut.png,0,10,10,130,,,1.ja,1.587,None,act,1.075,None,None,None,None,None,leonardo dicaprio,"['l', 'e', 'o', 'n', 'a', 'r', 'd', 'o', 'space', 'd', 'i', 'c', 'a', 'p', 'r', 'i', 'o', 'return']","[1.4987090290342167, 1.7820089105707666, 1.998602049578949, 2.2652407230207245, 2.4984325184182126, 2.698304463850036, 3.064800359014953, 3.3149423834638583, 3.5979878880652905, 4.4976774070619285, 4.714108232414219, 5.463991549424918, 5.7138657242639965, 5.947060085885369, 6.646779501389119, 6.796680974433912, 7.013329287253782, 8.595999064611533]",2017_Feb_23_1429,60.0249733322,famFaceGrey,001,22,
80,./greyInner/GeorgeClooney4_2_cut.png,0,11,11,79,,,1.ja,6.199,None,dummy,1.517,None,None,None,None,None,george clooney,"['g', 'e', 'o', 'r', 'g', 'e', 'space', 'c', 'l', 'o', 'o', 'm', 'backspace', 'n', 'e', 'y', 'return']","[4.06540951639181, 4.298703319185734, 4.531874584793059, 4.931757372520224, 5.2149019975163355, 5.414810190859498, 5.78132982359466, 6.064456164246167, 6.347530218087286, 6.647722909417553, 6.797316435604898, 7.030771589721098, 7.580604287967617, 7.913863735440373, 8.130492801581568, 8.447024319140837, 10.312907688759424]",2017_Feb_23_1429,60.0249733322,famFaceGrey,001,22,
108,./greyInner/JoachimLoew15_1_cut.png,0,12,12,107,,,1.ja,10.474,None,None,None,None,None,sport,2.995,None,jürgen klopp,"['j', u'\xfc', 'r', 'g', 'e', 'n', 'space', 'k', 'l', 'o', 'p', 'p', 'return']","[3.6825587561002067, 4.1656054796580975, 4.43214342881538, 4.632052584492158, 4.715178347743404, 4.915289272767495, 5.165087102448069, 5.481281482353552, 5.681598346838655, 5.89816197427308, 6.247976131552605, 6.414575702159254, 7.064429539674165]",2017_Feb_23_1429,60.0249733322,famFaceGrey,001,22,
206,./greyInner/WillSmith1_1_cut.png,0,13,13,205,,,1.ja,1.629,None,act,1.547,None,None,None,None,None,will smith,"['w', 'i', 'l', 'l', 'space', 's', 'm', 'i', 't', 'h', 'return']","[4.4984447079814345, 4.948303742099597, 5.231572508172576, 5.38164720132454, 5.581463652166349, 5.814709338264038, 6.114495603898376, 6.3310771948990805, 6.647734136646704, 6.8475428888173155, 7.747207707909638]",2017_Feb_23_1429,60.0249733322,famFaceGrey,001,22,
175,./greyInner/SahraWagenknecht9_1_cut.png,0,14,14,174,,,1.ja,5.557,None,None,None,None,None,polit,1.642,None,,['return'],[4.531896397695618],2017_Feb_23_1429,60.0249733322,famFaceGrey,001,22,
115,./greyInner/JoshRadnor(Ted)9_1_cut.png,0,15,15,114,,,1.ja,1.646,None,act,1.179,None,None,None,None,None,ted,"['t', 'e', 'd', 'return']","[7.630934031688412, 7.830771653877036, 8.0973471340576, 8.630318137973973]",2017_Feb_23_1429,60.0249733322,famFaceGrey,001,22,
138,./greyInner/LisaEdelstein(DrLisaCuddy)2_2_cut.png,0,16,16,137,,,1.ja,2.257,None,act,0.924,None,None,None,None,None,,['return'],[3.71549431404992],2017_Feb_23_1429,60.0249733322,famFaceGrey,001,22,
81,./greyInner/HughLaurie(DrHouse)2_1_cut.png,0,17,17,80,,,1.ja,1.535,None,act,0.902,None,None,None,None,None,dr house,"['d', 'r', 'period', 'space', 'h', 'o', 'u', 's', 'e', 'return']","[2.01607161817401, 2.1996268710581717, 2.7657143517030818, 2.9825451871915902, 3.265657092834317, 3.6156123924233725, 3.882183702490238, 4.198698218816389, 4.382031172562165, 4.731723754988707]",2017_Feb_23_1429,60.0249733322,famFaceGrey,001,22,
39,./greyInner/CarenMiosga6_2_cut.png,0,18,18,38,,,2.nein,2.312,None,None,None,None,None,polit,2.311,None,,['return'],[2.0664687252701697],2017_Feb_23_1429,60.0249733322,famFaceGrey,001,22,
71,./greyInner/GuentherJauch2_1_cut.png,0,19,19,70,,,1.ja,1.596,None,None,None,host,1.762,None,None,None,,['return'],[17.2102366026279],2017_Feb_23_1429,60.0249733322,famFaceGrey,001,22,
1,./greyInner/AlysonHannigan(Lily)1_1_cut.png,0,20,20,0,,,1.ja,1.789,None,dummy,0.951,None,None,None,None,None,lily,"['l', 'i', 'l', 'y', 'return']","[9.263483822043781, 9.513373073447383, 9.763287345533172, 10.262993352518151, 10.94614201931654]",2017_Feb_23_1429,60.0249733322,famFaceGrey,001,22,
35,./greyInner/BritneySpears8_5_cut.png,0,21,21,34,,,1.ja,1.471,None,None,None,music,1.938,None,None,None,britney spears,"['b', 'r', 'i', 't', 'n', 'e', 'y', 'space', 's', 'p', 'e', 'a', 'r', 's', 'return']","[1.0667378579923934, 1.300055719134889, 1.5164342576767922, 1.7830719687844976, 2.232767406134826, 2.4161613076967114, 2.7659321599489886, 2.965932095793505, 3.182578804723562, 3.5323852633314345, 3.8488891939846326, 4.115385121227064, 4.498664440895482, 4.698486665740802, 5.081779458084384]",2017_Feb_23_1429,60.0249733322,famFaceGrey,001,22,
101,./greyInner/JimParsons(SheldonCooper)1_1_cut.png,0,22,22,100,,,1.ja,1.897,None,act,0.797,None,None,None,None,None,sheldon cooper,"['s', 'h', 'e', 'l', 'd', 'o', 'n', 'space', 'c', 'o', 'o', 'p', 'e', 'r', 'return']","[23.02443526235311, 23.29110761748234, 23.80747579489571, 24.040850112961834, 24.39068095069615, 24.590489061310564, 24.84054960815365, 25.007062247928843, 25.373715324301884, 25.739885309042165, 25.87348965699539, 26.073372829656364, 26.23989733821645, 26.439922294743155, 26.639648927751296]",2017_Feb_23_1429,60.0249733322,famFaceGrey,001,22,
53,./greyInner/DannFlorek(DonaldDonCragen)2_1_cut.png,0,23,23,52,,,2.nein,1.961,None,None,None,host,6.359,None,None,None,,['return'],[1.3669029624165887],2017_Feb_23_1429,60.0249733322,famFaceGrey,001,22,
58,./greyInner/ElvisPresley4_10_cut.png,0,24,24,57,,,1.ja,1.773,None,None,None,music,2.034,None,None,None,elvis presley,"['e', 'l', 'v', 'i', 's', 'space', 'p', 'r', 'e', 's', 'l', 'e', 'x', 'backspace', 'y', 'return']","[1.116950517751775, 1.333525372414897, 1.700068421942433, 1.9832714285298607, 2.233174152608626, 2.416301166893845, 2.8995243183385355, 3.1491899874927185, 3.3492216803570045, 3.599188239252726, 4.232368679110095, 4.365549920912144, 4.665534748113714, 5.131950737484658, 5.2652221178977925, 5.581484502734838]",2017_Feb_23_1429,60.0249733322,famFaceGrey,001,22,
67,./greyInner/EmmaWatson(HermioneGranger)16_1_cut.png,0,25,25,66,,,1.ja,1.573,None,act,0.944,None,None,None,None,None,emma watson,"['e', 'm', 'm', 'a', 'space', 'w', 'a', 't', 's', 'o', 'n', 'return']","[1.3167570244763738, 1.7331518585397134, 1.9163613127648205, 2.116103663894137, 2.3661876275291434, 4.315542879835448, 4.548789528267207, 4.798622322747178, 5.015089716788225, 5.3313351003921525, 5.5482634523859815, 6.197874140194926]",2017_Feb_23_1429,60.0249733322,famFaceGrey,001,22,
52,./greyInner/DannFlorek(DonaldDonCragen)10_1_cut.png,0,26,26,51,,,2.nein,2.07,None,None,None,host,2.802,None,None,None,,['return'],[1.2999418429531033],2017_Feb_23_1429,60.0249733322,famFaceGrey,001,22,
15,./greyInner/BarackObama5_2_cut.png,0,27,27,14,,,1.ja,1.394,None,None,None,None,None,polit,1.511,None,barak obama,"['b', 'a', 'r', 'a', 'k', 'space', 'o', 'b', 'a', 'm', 'a', 'return']","[1.0499550750441813, 1.6162228329121717, 1.8162644698936674, 1.999569195177628, 2.4158738906294275, 2.6157965189813694, 4.03175284955114, 4.515036307255286, 4.748288729690557, 4.898294776355215, 5.015686684602315, 5.564691775669871]",2017_Feb_23_1429,60.0249733322,famFaceGrey,001,22,
61,./greyInner/EmilyDeschanel15_1_cut.png,0,28,28,60,,,2.nein,4.359,None,dummy,1.078,None,None,None,None,None,,['return'],[2.232736611449127],2017_Feb_23_1429,60.0249733322,famFaceGrey,001,22,
190,./greyInner/TaylorSwift8_1_cut.png,0,29,29,189,,,1.ja,1.279,None,None,None,music,3.144,None,None,None,,['return'],[4.86506763122452],2017_Feb_23_1429,60.0249733322,famFaceGrey,001,22,
211,./greyInner/notfamousface10_4_cut.png,0,30,30,210,,,2.nein,2.947,None,None,None,None,None,polit,2.348,None,,['return'],[1.0666643998356449],2017_Feb_23_1429,60.0249733322,famFaceGrey,001,22,
117,./greyInner/JudithRakers2_1_cut.png,0,31,31,116,,,2.nein,4.23,None,act,2.484,None,None,None,None,None,,['return'],[1.0501536366118671],2017_Feb_23_1429,60.0249733322,famFaceGrey,001,22,
148,./greyInner/MilaKunis4_1_cut.png,0,32,32,147,,,1.ja,3.43,None,act,1.297,None,None,None,None,None,,['return'],[4.465808756661318],2017_Feb_23_1429,60.0249733322,famFaceGrey,001,22,
166,./greyInner/RobertSeanLeonard(Wilson)1_1_cut.png,0,33,33,165,,,1.ja,1.794,None,act,1.18,None,None,None,None,None,,['return'],[2.09962305379986],2017_Feb_23_1429,60.0249733322,famFaceGrey,001,22,
221,./greyInner/notfamousface6_8_cut.png,0,34,34,220,,,2.nein,3.732,None,dummy,5.768,None,None,None,None,None,,['return'],[1.0670281620609785],2017_Feb_23_1429,60.0249733322,famFaceGrey,001,22,
13,./greyInner/BarackObama2_1_cut.png,0,35,35,12,,,1.ja,1.914,None,None,None,None,None,polit,2.193,None,barack obama,"['b', 'a', 'r', 'a', 'k', 'space', 'backspace', 'backspace', 'c', 'k', 'space', 'o', 'b', 'a', 'm', 'a', 'return']","[1.3000133764417114, 1.5332093419528974, 1.7832352447744597, 1.933077694671283, 2.316213626584158, 2.599561945595269, 3.5824429873282497, 3.7824018635919856, 4.015612584889823, 4.948543684025935, 6.514725794173955, 7.314442932154634, 7.747514050877271, 7.997473552657993, 8.163967908088125, 8.280676559245876, 8.87960047744582]",2017_Feb_23_1429,60.0249733322,famFaceGrey,001,22,
174,./greyInner/SahraWagenknecht6_2_cut.png,0,36,36,173,,,1.ja,4.084,None,None,None,None,None,polit,1.32,None,,['return'],[1.2832835218596301],2017_Feb_23_1429,60.0249733322,famFaceGrey,001,22,
18,./greyInner/BastianSchweinsteiger14_1_cut.png,0,37,37,17,,,1.ja,1.414,None,None,None,None,None,sport,1.646,None,schweini,"['s', 'c', 'h', 'w', 'e', 'i', 'n', 'i', 'return']","[1.5831541521019972, 1.7663979295707577, 1.9663600136141213, 2.466149743650476, 2.6993704090659776, 2.849365549279355, 3.0492868945198097, 3.2491652555108885, 3.6323024705357057]",2017_Feb_23_1429,60.0249733322,famFaceGrey,001,22,
182,./greyInner/SigmarGabriel11_3_cut.png,0,38,38,181,,,1.ja,4.235,None,None,None,None,None,polit,1.625,None,,['return'],[6.264818579204075],2017_Feb_23_1429,60.0249733322,famFaceGrey,001,22,
205,./greyInner/Usher7_1_cut.png,0,39,39,204,,,1.ja,2.775,None,None,None,music,1.776,None,None,None,usher,"['u', 's', 'h', 'e', 'r', 'return']","[0.800008404383334, 0.9994861136819964, 1.233218740747816, 1.416213273728772, 1.5995805507182013, 2.082788304820042]",2017_Feb_23_1429,60.0249733322,famFaceGrey,001,22,
216,./greyInner/notfamousface14_6_cut.png,0,40,40,215,,,2.nein,3.617,None,None,None,music,3.868,None,None,None,,['return'],[1.2000153331873662],2017_Feb_23_1429,60.0249733322,famFaceGrey,001,22,
97,./greyInner/JasonSegel(Marshall)14_1_cut.png,0,41,41,96,,,1.ja,1.721,None,act,1.122,None,None,None,None,None,,['return'],[23.041082997773174],2017_Feb_23_1429,60.0249733322,famFaceGrey,001,22,
111,./greyInner/JoshRadnor(Ted)1_2_cut.png,0,42,42,110,,,1.ja,1.846,None,act,0.481,None,None,None,None,None,ted,"['t', 'e', 'd', 'return']","[1.383167368154318, 1.5831580014373685, 1.833034742500331, 3.0825474005596334]",2017_Feb_23_1429,60.0249733322,famFaceGrey,001,22,
73,./greyInner/GuentherJauch4_1_cut.png,0,43,43,72,,,1.ja,3.143,None,None,None,host,3.444,None,None,None,,['return'],[8.680377786638019],2017_Feb_23_1429,60.0249733322,famFaceGrey,001,22,
140,./greyInner/LisaEdelstein(DrLisaCuddy)9_1_cut.png,0,44,44,139,,,2.nein,2.78,None,act,2.996,None,None,None,None,None,,['return'],[1.283420173277591],2017_Feb_23_1429,60.0249733322,famFaceGrey,001,22,
139,./greyInner/LisaEdelstein(DrLisaCuddy)6_3_cut.png,0,45,45,138,,,1.ja,1.775,None,dummy,1.027,None,None,None,None,None,,['return'],[1.0999720602380876],2017_Feb_23_1429,60.0249733322,famFaceGrey,001,22,
179,./greyInner/Shakira7_1_cut.png,0,46,46,178,,,1.ja,1.312,None,dummy,0.863,None,None,None,None,None,shakira,"['left', 's', 'h', 'a', 'k', 'i', 'r', 'a', 'return']","[2.26578957413858, 4.132179131403973, 4.282022864412738, 4.431881032430283, 4.781826067124257, 4.981772433046444, 5.331694050948045, 5.531318676560204, 6.747532014444005]",2017_Feb_23_1429,60.0249733322,famFaceGrey,001,22,
102,./greyInner/JimParsons(SheldonCooper)10_1_cut.png,0,47,47,101,,,1.ja,1.68,None,dummy,0.946,None,None,None,None,None,sheldon,"['s', 'h', 'e', 'l', 'd', 'o', 'n', 'return']","[1.0335289972063038, 1.2834689315300238, 1.5333334830297645, 1.7998656581835348, 2.082808834610205, 2.266423431419753, 2.482676224994975, 2.8993135672080825]",2017_Feb_23_1429,60.0249733322,famFaceGrey,001,22,
207,./greyInner/WillSmith14_1_cut.png,0,48,48,206,,,1.ja,2.026,None,act,0.792,None,None,None,None,None,will smith,"['w', 'i', 'l', 'l', 'space', 's', 'm', 'i', 't', 'h', 'return']","[1.0833618558417584, 1.283164834008403, 1.5497695049848517, 1.7330354161340438, 1.9163112713999908, 2.132908580521871, 2.549405742759518, 2.74935210868216, 3.065824282315134, 3.2491113648106875, 3.5656034266785355]",2017_Feb_23_1429,60.0249733322,famFaceGrey,001,22,
31,./greyInner/BritneySpears1_1_cut.png,0,49,49,30,,,1.ja,1.492,None,None,None,music,1.609,None,None,None,britney spears,"['b', 'r', 'i', 't', 'n', 'e', 'y', 'space', 's', 'p', 'e', 'a', 'r', 's', 'return']","[1.2998148148740256, 1.5995946649491088, 1.8163587786184507, 2.132978830898992, 3.6156977193645616, 3.815542719446512, 4.415173311529088, 4.61535256226216, 4.831599902611742, 5.798115493544174, 6.0314266183486325, 6.381217038057912, 6.797741145645432, 7.031015060204936, 7.61406752568837]",2017_Feb_23_1429,60.0249733322,famFaceGrey,001,22,
134,./greyInner/LeonardoDiCaprio4_1_cut.png,0,50,50,133,,,1.ja,1.528,None,dummy,0.845,None,None,None,None,None,leonardo dicaprio,"['l', 'e', 'o', 'n', 'a', 'r', 's', 'backspace', 'd', 'o', 'space', 'd', 'i', 'c', 'a', 'p', 'r', 'i', 'o', 'return']","[1.7663270376378932, 1.9330456168736418, 2.1829281319396614, 2.716055033952671, 2.932535900669336, 3.149209234171394, 3.3657510487032596, 3.91560042740457, 4.115463711831126, 4.398693022213138, 4.6152412523042585, 5.39831578731264, 5.664613794543584, 6.047980365821786, 6.247920316184263, 6.614354621977782, 6.880962500733858, 7.130859450808657, 7.3307381325780625, 7.697028729837712]",2017_Feb_23_1429,60.0249733322,famFaceGrey,001,22,
105,./greyInner/JimParsons(SheldonCooper)9_3_cut.png,0,51,51,104,,,1.ja,2.207,None,act,0.886,None,None,None,None,None,sheldon,"['s', 'h', 'e', 'l', 'd', 'o', 'n', 'return']","[1.3000050362143156, 1.5999038949184978, 1.8164274251057577, 2.082811080056672, 2.349707017435321, 2.5494955605931864, 2.7825407604559587, 3.2821495717134894]",2017_Feb_23_1429,60.0249733322,famFaceGrey,001,22,
43,./greyInner/CobieSmulders(Robin)3_4_cut.png,0,52,52,42,,,1.ja,2.092,None,act,4.125,None,None,None,None,None,,['return'],[24.723682813453706],2017_Feb_23_1429,60.0249733322,famFaceGrey,001,22,
193,./greyInner/TomCruise5_1_cut.png,0,53,53,192,,,1.ja,2.693,None,act,1.128,None,None,None,None,None,tom cruise,"['t', 'o', 'm', 'space', 'c', 'r', 'u', 'i', 's', 'e', 'return']","[18.54299339101135, 18.72599369799582, 18.976007090476287, 19.275941876313937, 27.672548879346323, 27.988839171866857, 28.355582386851438, 29.055262667442094, 29.305283758594214, 29.50510309643778, 31.98743095655027]",2017_Feb_23_1429,60.0249733322,famFaceGrey,001,22,
204,./greyInner/Usher4_1_cut.png,0,54,54,203,,,1.ja,2.159,None,None,None,music,2.211,None,None,None,usher,"['u', 's', 'h', 'e', 'r', 'return']","[1.3668987923028908, 1.5669526188471536, 1.78355377730486, 1.9001533639502668, 2.116520996041345, 2.499860621969219]",2017_Feb_23_1429,60.0249733322,famFaceGrey,001,22,
56,./greyInner/ElvisPresley1_1_cut.png,0,55,55,55,,,1.ja,2.208,None,None,None,music,1.308,None,None,None,elvis presley,"['e', 'l', 'v', 'i', 's', 'space', 'p', 'r', 'e', 's', 'l', 'e', 'x', 'backspace', 'y', 'return']","[7.097525486612085, 7.414086836522529, 7.86386920470477, 8.230206956327038, 8.413449771461728, 8.613603359956869, 9.046726765489439, 9.34656178937621, 9.579570099771445, 9.846501322727818, 10.196264155531026, 10.379453079965515, 10.679428925383945, 11.112560350366493, 11.229194901811297, 11.462379960871203]",2017_Feb_23_1429,60.0249733322,famFaceGrey,001,22,
164,./greyInner/OmarEpps(DrEricForeman)5_2_cut.png,0,56,56,163,,,1.ja,3.612,None,act,3.051,None,None,None,None,None,,['return'],[4.648714434142676],2017_Feb_23_1429,60.0249733322,famFaceGrey,001,22,
178,./greyInner/Shakira3_1_cut.png,0,57,57,177,,,1.ja,3.112,None,None,None,music,1.846,None,None,None,britney spears,"['b', 'r', 'i', 't', 'n', 'e', 'y', 'space', 's', 'p', 'e', 'a', 'r', 's', 'return']","[1.1168353584580473, 1.3500483252018967, 1.583251668606863, 1.866554116367297, 2.3662793700304974, 2.5495401487319214, 2.8661505776731246, 3.116022827843608, 4.098983422514721, 4.31555506939867, 4.515425731718551, 4.8320159516470085, 5.081910014720506, 5.315153776150055, 5.714931348701157]",2017_Feb_23_1429,60.0249733322,famFaceGrey,001,22,
8,./greyInner/AngelaMerkel4_1_cut.png,0,58,58,7,,,1.ja,1.544,None,None,None,None,None,polit,1.594,None,angela merkel,"['a', 'n', 'g', 'e', 'l', 'a', 'space', 'm', 'e', 'r', 'k', 'e', 'l', 'return']","[1.1169360827429955, 1.3002167496788388, 1.533443509875724, 1.7333372682101071, 1.949931369551905, 2.133151730228292, 2.349809666387955, 2.6162972534029905, 2.7996215461434986, 2.982737333199566, 3.2494558803578, 3.3825649471150427, 3.615607580753476, 3.949068156017802]",2017_Feb_23_1429,60.0249733322,famFaceGrey,001,22,
149,./greyInner/MilaKunis5_2_cut.png,0,59,59,148,,,1.ja,3.226,None,act,0.794,None,None,None,None,None,,['return'],[20.592093271970498],2017_Feb_23_1429,60.0249733322,famFaceGrey,001,22,
168,./greyInner/RobertSeanLeonard(Wilson)11_2_cut.png,0,60,60,167,,,1.ja,1.943,None,act,1.044,None,None,None,None,None,wilson,"['w', 'i', 'l', 's', 'o', 'n', 'return']","[1.2997913980821068, 1.4663220014240324, 1.6831169097790735, 1.8330164581557256, 2.0161088284194193, 2.216055835897805, 2.6155543316094736]",2017_Feb_23_1429,60.0249733322,famFaceGrey,001,22,
68,./greyInner/EmmaWatson(HermioneGranger)3_1_cut.png,0,61,61,67,,,1.ja,1.66,None,act,0.711,None,None,None,None,None,emma watson,"['e', 'm', 'm', 'a', 'space', 'w', 'a', 't', 's', 'o', 'n', 'return']","[0.8836554318459093, 1.1833300667440199, 1.3168436345299597, 1.5168121341325786, 1.733364855115724, 2.4830637247905543, 2.7163206381169402, 2.9328893979991335, 3.8991592730017146, 4.08233472476104, 4.298925939101537, 4.615621694984384]",2017_Feb_23_1429,60.0249733322,famFaceGrey,001,22,
137,./greyInner/LisaEdelstein(DrLisaCuddy)10_1_cut.png,0,62,62,136,,,1.ja,1.678,None,act,0.512,None,None,None,None,None,,['return'],[1.233478250130247],2017_Feb_23_1429,60.0249733322,famFaceGrey,001,22,
45,./greyInner/CobieSmulders(Robin)5_1_cut.png,0,63,63,44,,,1.ja,2.279,None,act,0.714,None,None,None,None,None,,['return'],[1.1505263485423711],2017_Feb_23_1429,60.0249733322,famFaceGrey,001,22,
6,./greyInner/AngelaMerkel1_1_cut.png,0,64,64,5,,,1.ja,1.11,None,None,None,None,None,polit,0.942,None,angela merkel,"['a', 'n', 'g', 'e', 'l', 'a', 'space', 'm', 'e', 'r', 'k', 'e', 'l', 'return']","[1.2496480263653211, 1.4330146617990067, 1.7163183926713828, 1.8995400364597117, 2.132608653114403, 2.2990436646191483, 2.4990795275966775, 3.2320819035994646, 3.398949323816396, 3.615494346127889, 3.7986050007361882, 3.9154859096670407, 4.148639211707632, 4.548455277615631]",2017_Feb_23_1429,60.0249733322,famFaceGrey,001,22,
186,./greyInner/TaylorSwift1_2_cut.png,0,65,65,185,,,1.ja,1.749,None,None,None,music,1.133,None,None,None,,['return'],[5.065073020294676],2017_Feb_23_1429,60.0249733322,famFaceGrey,001,22,
21,./greyInner/BenedictCumberbatch16_1_cut.png,0,66,66,20,,,1.ja,2.144,None,act,1.395,None,None,None,None,None,sherlok holmes,"['s', 'h', 'e', 'r', 'l', 'o', 'l', 'backspace', 'k', 'space', 'h', 'o', 'l', 'm', 'e', 's', 'return']","[1.4331201977533965, 1.5996129492937143, 1.7662324081347833, 1.9661197509094563, 2.2160439671129097, 2.382716033541783, 3.432171336499323, 4.498503731128949, 4.831760291599949, 6.24773779351608, 6.864218531921324, 7.147414160615426, 7.4307672912964335, 7.6972609730928525, 7.88039311982584, 8.080393055670356, 8.413494038822591]",2017_Feb_23_1429,60.0249733322,famFaceGrey,001,22,
209,./greyInner/WillSmith5_1_cut.png,0,67,67,208,,,1.ja,1.513,None,act,2.295,None,None,None,None,None,will smith,"['w', 'o', 'backspace', 'i', 'l', 'l', 'space', 's', 'm', 'i', 't', 'h', 'return']","[0.8002643852082656, 0.9832974115465731, 1.8328785236258227, 2.1163038293511818, 2.3995453292964157, 2.5494577087920334, 2.7326873720298863, 3.2659066580999934, 3.5157493966967195, 3.7154404233501737, 3.965562238786788, 4.165414616761609, 4.48207187928756]",2017_Feb_23_1429,60.0249733322,famFaceGrey,001,22,
44,./greyInner/CobieSmulders(Robin)4_7_cut.png,0,68,68,43,,,1.ja,1.917,None,act,1.655,None,None,None,None,None,,['return'],[27.13984380037209],2017_Feb_23_1429,60.0249733322,famFaceGrey,001,22,
130,./greyInner/KatjaBurkard7_1_cut.png,0,69,69,129,,,2.nein,3.408,None,None,None,host,4.058,None,None,None,,['return'],[2.3993413145035447],2017_Feb_23_1429,60.0249733322,famFaceGrey,001,22,
11,./greyInner/BarackObama1_3_cut.png,0,70,70,10,,,1.ja,1.643,None,None,None,None,None,polit,0.955,None,barack obama,"['b', 'a', 'r', 'a', 'k', 'space', 'backspace', 'backspace', 'c', 'k', 'space', 'o', 'b', 'a', 'm', 'a', 'pound', 'return']","[1.3331798945346236, 1.5165577571974609, 1.6998794837145397, 1.8831720194352783, 2.1497054777009907, 2.365977197177017, 3.1661148750845314, 3.349152071536082, 3.5990438891635677, 3.815685786424183, 4.015428779109243, 4.648661826554871, 5.048550709063875, 5.699633126228491, 6.047858149412605, 6.181358886079124, 6.681806531745224, 7.914107526702537]",2017_Feb_23_1429,60.0249733322,famFaceGrey,001,22,
162,./greyInner/OmarEpps(DrEricForeman)2_2_cut.png,0,71,71,161,,,1.ja,1.702,None,act,0.686,None,None,None,None,None,,['return'],[1.4166434369949457],2017_Feb_23_1429,60.0249733322,famFaceGrey,001,22,
154,./greyInner/NeilPatrickHarris(Barney)2_2_cut.png,0,72,72,153,,,1.ja,2.245,None,act,1.047,None,None,None,None,None,barney,"['b', 'a', 'r', 'n', 'e', 'y', 'return']","[1.2830150306940595, 1.5166228751268136, 1.699593028981326, 2.0994046039982095, 2.2829005129560755, 2.61597679620445, 4.365309337430062]",2017_Feb_23_1429,60.0249733322,famFaceGrey,001,22,
90,./greyInner/Ice-T(OdafinFinTutuola)7_1_cut.png,0,73,73,89,,,2.nein,3.641,None,None,None,music,1.241,None,None,None,,['return'],[1.74968058532977],2017_Feb_23_1429,60.0249733322,famFaceGrey,001,22,
110,./greyInner/JoachimLoew8_1_cut.png,0,74,74,109,,,1.ja,1.376,None,None,None,None,None,sport,0.925,None,,"['j', u'\xfc', 'r', 'g', 'e', 'n', 'backspace', 'backspace', 'backspace', 'backspace', 'backspace', 'backspace', 'return']","[1.9163263479649686, 2.7992170451148013, 3.09911526226324, 3.782090067398258, 3.94883751665202, 4.19863727100028, 7.863957739426041, 8.930102158161844, 9.096700445656552, 9.263154062283775, 9.46312192033065, 9.779778541300402, 43.36623798967139]",2017_Feb_23_1429,60.0249733322,famFaceGrey,001,22,
104,./greyInner/JimParsons(SheldonCooper)8_1_cut.png,0,75,75,103,,,1.ja,1.659,None,dummy,1.01,None,None,None,None,None,sheldon,"['s', 'h', 'e', 'l', 'd', 'o', 'n', 'return']","[2.349727547225939, 2.5993951410478076, 3.4991712700980315, 3.7324291457589425, 4.198690840923064, 4.415438274137614, 4.648644825322208, 4.964990933210629]",2017_Feb_23_1429,60.0249733322,famFaceGrey,001,22,
196,./greyInner/UrsulavonderLeyen1_1_cut.png,0,76,76,195,,,2.nein,2.642,None,None,None,host,2.912,None,None,None,,['return'],[1.0003894244632647],2017_Feb_23_1429,60.0249733322,famFaceGrey,001,22,
96,./greyInner/JasonSegel(Marshall)11_1_cut.png,0,77,77,95,,,1.ja,1.929,None,act,2.045,None,None,None,None,None,marshall,"['m', 'a', 'r', 's', 'h', 'a', 'l', 'l', 'return']","[11.928754249105168, 12.112188889469508, 12.378732291852884, 12.64525548522306, 12.994962502658382, 13.128177746925758, 13.528086838447507, 13.711472720559414, 14.611120538419073]",2017_Feb_23_1429,60.0249733322,famFaceGrey,001,22,
185,./greyInner/SigmarGabriel8_2_cut.png,0,78,78,184,,,1.ja,3.963,None,None,None,None,None,polit,1.656,None,,['return'],[0.6833969489521223],2017_Feb_23_1429,60.0249733322,famFaceGrey,001,22,
133,./greyInner/LeonardoDiCaprio3_1_cut.png,0,79,79,132,,,1.ja,1.296,None,act,0.494,None,None,None,None,None,leonardo,"['l', 'e', 'o', 'n', 'a', 'r', 'd', 'o', 'return']","[1.3499633190385794, 1.4999337593476412, 1.6998217436785126, 1.9162111886716957, 2.1496326611004406, 2.3496271437193172, 2.732821457223963, 2.9493013616061035, 3.6656730034219436]",2017_Feb_23_1429,60.0249733322,famFaceGrey,001,22,
2,./greyInner/AlysonHannigan(Lily)12_2_cut.png,0,80,80,1,,,1.ja,2.116,None,dummy,0.534,None,None,None,None,None,lily,"['l', 'i', 'l', 'y', 'return']","[1.0666589466104597, 1.2499178006437432, 1.4664503126145974, 1.8662169787144194, 2.099419039006989]",2017_Feb_23_1429,60.0249733322,famFaceGrey,001,22,
72,./greyInner/GuentherJauch3_1_cut.png,0,81,81,71,,,1.ja,1.264,None,None,None,host,1.451,None,None,None,,['return'],[23.490663596607646],2017_Feb_23_1429,60.0249733322,famFaceGrey,001,22,
116,./greyInner/JudithRakers1_1_cut.png,0,82,82,115,,,2.nein,2.878,None,None,None,host,3.594,None,None,None,,['return'],[1.0333698913300395],2017_Feb_23_1429,60.0249733322,famFaceGrey,001,22,
50,./greyInner/CristinMilioti(Tracy_Mutter)9_1_cut.png,0,83,83,49,,,1.ja,8.6,None,act,4.934,None,None,None,None,None,,['return'],[1.1829355098334418],2017_Feb_23_1429,60.0249733322,famFaceGrey,001,22,
91,./greyInner/JanHofer1_3_cut.png,0,84,84,90,,,1.ja,3.163,None,None,None,host,3.463,None,None,None,,['return'],[1.4166546642240974],2017_Feb_23_1429,60.0249733322,famFaceGrey,001,22,
214,./greyInner/notfamousface1_2_cut.png,0,85,85,213,,,1.ja,6.071,None,act,0.657,None,None,None,None,None,,['return'],[1.5832539140528752],2017_Feb_23_1429,60.0249733322,famFaceGrey,001,22,
109,./greyInner/JoachimLoew4_1_cut.png,0,86,86,108,,,1.ja,1.309,None,None,None,None,None,sport,1.21,None,,['return'],[12.645237200878455],2017_Feb_23_1429,60.0249733322,famFaceGrey,001,22,
94,./greyInner/JanHofer7_1_cut.png,0,87,87,93,,,1.ja,2.142,None,None,None,host,1.276,None,None,None,,['return'],[1.4497316852616677],2017_Feb_23_1429,60.0249733322,famFaceGrey,001,22,
165,./greyInner/OmarEpps(DrEricForeman)9_1_cut.png,0,88,88,164,,,1.ja,2.346,None,act,0.579,None,None,None,None,None,will,"['w', 'i', 'l', 'l', 'return']","[4.531760708611273, 5.031591498228863, 5.414646273313792, 5.581284337277339, 6.297706020457099]",2017_Feb_23_1429,60.0249733322,famFaceGrey,001,22,
37,./greyInner/CarenMiosga13_1_cut.png,0,89,89,36,,,2.nein,11.905,None,dummy,2.509,None,None,None,None,None,,['return'],[1.3496935447601572],2017_Feb_23_1429,60.0249733322,famFaceGrey,001,22,
65,./greyInner/EmilyDeschanel8_3_cut.png,0,90,90,64,,,2.nein,5.317,None,None,None,host,4.251,None,None,None,,['return'],[1.5667726624023999],2017_Feb_23_1429,60.0249733322,famFaceGrey,001,22,
51,./greyInner/DannFlorek(DonaldDonCragen)1_1_cut.png,0,91,91,50,,,2.nein,2.012,None,act,1.78,None,None,None,None,None,,['return'],[1.4332619816191254],2017_Feb_23_1429,60.0249733322,famFaceGrey,001,22,
27,./greyInner/Beyonce11_2_cut.png,0,92,92,26,,,1.ja,2.277,None,None,None,music,1.76,None,None,None,beyonce,"['b', 'e', 'y', 'o', 'n', 'c', 'e', 'return']","[1.1662980393089128, 1.3499081452264363, 1.8163552500609512, 2.165737319406162, 2.382325646744448, 2.8160120176262353, 3.132566631199552, 4.115498676630523]",2017_Feb_23_1429,60.0249733322,famFaceGrey,001,22,
41,./greyInner/CobieSmulders(Robin)12_1_cut.png,0,93,93,40,,,1.ja,1.536,None,dummy,0.571,None,None,None,None,None,,['return'],[0.7171678127529049],2017_Feb_23_1429,60.0249733322,famFaceGrey,001,22,
86,./greyInner/Ice-T(OdafinFinTutuola)10_1_cut.png,0,94,94,85,,,2.nein,2.563,None,None,None,music,0.847,None,None,None,,['return'],[0.6501605012604159],2017_Feb_23_1429,60.0249733322,famFaceGrey,001,22,
25,./greyInner/BenedictCumberbatch6_5_cut.png,0,95,95,24,,,1.ja,1.092,None,act,0.443,None,None,None,None,None,sherlock,"['s', 'h', 'e', 'r', 'l', 'o', 'k', 'backspace', 'c', 'k', 'return']","[1.2832328389395116, 1.4331865987942365, 1.5998631561151342, 1.7830113417467146, 2.03273475093647, 2.2162717194755714, 2.999347537595895, 4.431991380054114, 4.6485171556873865, 4.998588897681657, 6.081423073751921]",2017_Feb_23_1429,60.0249733322,famFaceGrey,001,22,
119,./greyInner/JudithRakers7_1_cut.png,0,96,96,118,,,2.nein,2.761,None,None,None,host,1.378,None,None,None,,['return'],[1.4170184264489762],2017_Feb_23_1429,60.0249733322,famFaceGrey,001,22,
70,./greyInner/EmmaWatson(HermioneGranger)9_1_cut.png,0,97,97,69,,,1.ja,2.03,None,act,0.713,None,None,None,None,None,emma watson,"['e', 'm', 'm', 'a', 'space', 'w', 'a', 't', 's', 'o', 'n', 'return']","[1.0835812679779337, 1.3665709572114793, 1.5332728559924362, 1.6497726806874198, 1.8332256053963647, 2.482972303067527, 2.699572499191163, 2.899382855251588, 3.3491963388969452, 3.56585908672605, 3.7824733970805937, 4.082186204558184]",2017_Feb_23_1429,60.0249733322,famFaceGrey,001,22,
85,./greyInner/HughLaurie(DrHouse)9_2_cut.png,0,98,98,84,,,1.ja,1.471,None,act,0.83,None,None,None,None,None,dr house,"['d', 'r', 'space', 'h', 'o', 'u', 's', 'e', 'return']","[1.1500224063415772, 1.3498959556636692, 1.5333014052321232, 2.382854609627884, 2.766112437171614, 3.1826468096546705, 3.44920977949414, 3.649059591245532, 3.8653903338690725]",2017_Feb_23_1429,60.0249733322,famFaceGrey,001,22,
22,./greyInner/BenedictCumberbatch2_2_cut.png,0,99,99,21,,,1.ja,1.633,None,act,0.635,None,None,None,None,None,sherlock,"['s', 'h', 'e', 'r', 'l', 'o', 'c', 'l', 'backspace', 'k', 'return']","[0.9168825769761497, 1.2666428435554735, 1.399997626243021, 1.5999423882753945, 1.86627439797212, 2.0663814736603854, 2.2497837154496665, 2.499538240102993, 3.0657694292813176, 3.3992405902185965, 3.682486901833272]",2017_Feb_23_1429,60.0249733322,famFaceGrey,001,22,
153,./greyInner/NeilPatrickHarris(Barney)13_4_cut.png,0,100,100,152,,,1.ja,1.248,None,dummy,0.673,None,None,None,None,None,barney,"['b', 'a', 'r', 'n', 'e', 'y', 'return']","[0.8500850542804983, 1.349805817052129, 1.5665099452398863, 2.0337721469127246, 2.2160414008890257, 2.516006660634048, 2.9657778015866825]",2017_Feb_23_1429,60.0249733322,famFaceGrey,001,22,
151,./greyInner/NeilPatrickHarris(Barney)1_1_cut.png,0,101,101,150,,,1.ja,1.544,None,dummy,0.629,None,None,None,None,None,barney,"['b', 'a', 'r', 'n', 'e', 'y', 'return']","[0.9504276130815015, 1.4834890763868316, 1.7000203052457437, 2.2830118229135223, 2.5330351595116554, 2.7671238501311564, 3.1994587833978585]",2017_Feb_23_1429,60.0249733322,famFaceGrey,001,22,
14,./greyInner/BarackObama4_1_cut.png,0,102,102,13,,,1.ja,1.529,None,None,None,None,None,polit,1.114,None,barack obama,"['b', 'a', 'r', 'a', 'c', 'k', 'space', 'o', 'b', 'a', 'm', 'a', 'return']","[2.3661173771524773, 2.6160326115718817, 2.999229812078738, 3.1159532190231403, 3.6657721238161685, 3.89892093496519, 4.082066875150758, 4.281919573903906, 4.714929744811343, 4.91523730673498, 5.114871234908605, 5.19828152822447, 5.548226562918444]",2017_Feb_23_1429,60.0249733322,famFaceGrey,001,22,
213,./greyInner/notfamousface12_2_cut.png,0,103,103,212,,,2.nein,3.001,None,act,4.534,None,None,None,None,None,,['return'],[1.4832860239284855],2017_Feb_23_1429,60.0249733322,famFaceGrey,001,22,
152,./greyInner/NeilPatrickHarris(Barney)11_2_cut.png,0,104,104,151,,,1.ja,2.462,None,dummy,0.696,None,None,None,None,None,barney,"['b', 'a', 'r', 'n', 'e', 'y', 'return']","[0.9501466115739277, 1.3999533588821578, 1.5998868936853796, 2.0829605625931435, 2.2995530600451275, 2.5993627424718397, 3.1658560072569344]",2017_Feb_23_1429,60.0249733322,famFaceGrey,001,22,
143,./greyInner/MariskaHargitay(Liv)4_4_cut.png,0,105,105,142,,,2.nein,2.095,None,None,None,host,4.244,None,None,None,,['return'],[1.0335931528015863],2017_Feb_23_1429,60.0249733322,famFaceGrey,001,22,
167,./greyInner/RobertSeanLeonard(Wilson)10_1_cut.png,0,106,106,166,,,1.ja,1.287,None,act,0.455,None,None,None,None,None,wilson,"['w', 'i', 'l', 's', 'o', 'n', 'return']","[1.766665137624841, 1.9328640565390742, 2.132753323981433, 2.299355140034095, 2.4495135562374344, 2.6993559740567434, 3.115806623487515]",2017_Feb_23_1429,60.0249733322,famFaceGrey,001,22,
28,./greyInner/Beyonce3_2_cut.png,0,107,107,27,,,1.ja,1.627,None,None,None,music,1.26,None,None,None,beyonce,"['b', 'e', 'y', 'o', 'n', 'c', 'e', 'return']","[0.8499849715517485, 1.2331545851525334, 1.7163854352684211, 2.082794720379752, 2.3160606154897323, 2.9493305524024436, 3.1157180887662435, 3.74894536220836]",2017_Feb_23_1429,60.0249733322,famFaceGrey,001,22,
129,./greyInner/KatjaBurkard5_3_cut.png,0,108,108,128,,,1.ja,10.215,None,None,None,host,0.785,None,None,None,,['return'],[0.9667789496511432],2017_Feb_23_1429,60.0249733322,famFaceGrey,001,22,
122,./greyInner/KaleyCuoco(Penny)14_2_cut.png,0,109,109,121,,,1.ja,1.411,None,dummy,1.027,None,None,None,None,None,penny,"['p', 'e', 'n', 'n', 'y', 'return']","[1.0829053887810005, 1.2666454097793576, 1.6164486606076025, 1.7831473516089318, 1.9496170071347478, 2.182932943609103]",2017_Feb_23_1429,60.0249733322,famFaceGrey,001,22,
75,./greyInner/GuentherJauch9_1_cut.png,0,110,110,74,,,1.ja,5.935,None,None,None,host,1.47,None,None,None,,['return'],[2.4327246785082934],2017_Feb_23_1429,60.0249733322,famFaceGrey,001,22,
78,./greyInner/GeorgeClooney16_1_cut.png,0,111,111,77,,,2.nein,4.623,None,dummy,1.509,None,None,None,None,None,,['return'],[0.8999843139572477],2017_Feb_23_1429,60.0249733322,famFaceGrey,001,22,
33,./greyInner/BritneySpears5_1_cut.png,0,112,112,32,,,1.ja,1.328,None,act,0.512,None,None,None,None,None,britney spears,"['b', 'r', 'e', 'backspace', 'i', 't', 'n', 'e', 'y', 'space', 's', 'p', 'a', 'backspace', 'e', 'a', 'r', 's', 'return']","[1.8497969956579254, 2.1162893943424024, 2.332936103272914, 2.982742465647334, 3.8323858086541804, 4.132292686807432, 4.665316298312064, 4.881944722897515, 5.1649802833817375, 5.465044021965696, 6.731222379011342, 6.931095928333434, 7.264313674669211, 8.130388227961703, 8.58024341274404, 8.79697384472638, 9.113529420633313, 9.31340296995495, 10.796017284800655]",2017_Feb_23_1429,60.0249733322,famFaceGrey,001,22,
4,./greyInner/AlysonHannigan(Lily)5_4_cut.png,0,113,113,3,,,1.ja,1.468,None,act,0.868,None,None,None,None,None,lily,"['l', 'i', 'l', 'y', 'return']","[2.049581047923766, 2.3661074330352676, 2.59919080547661, 2.7659199703857666, 3.6487628716172367]",2017_Feb_23_1429,60.0249733322,famFaceGrey,001,22,
195,./greyInner/TomCruise7_1_cut.png,0,114,114,194,,,1.ja,1.931,None,act,0.679,None,None,None,None,None,tom cruise,"['t', 'o', 'm', 'space', 'c', 'r', 'u', 'i', 's', 'e', 'return']","[1.0668167693743271, 1.5498962122856028, 1.7999060762081172, 1.9829933140244975, 2.3328725892329203, 2.6162654963827663, 3.0326869550181073, 3.532339071302431, 3.782450301066092, 3.9655824477986243, 4.481951908323936]",2017_Feb_23_1429,60.0249733322,famFaceGrey,001,22,
222,./greyInner/notfamousface7_cut.png,0,115,115,221,,,2.nein,4.147,None,None,None,music,6.913,None,None,None,,['return'],[1.01677508427656],2017_Feb_23_1429,60.0249733322,famFaceGrey,001,22,
88,./greyInner/Ice-T(OdafinFinTutuola)5_1_cut.png,0,116,116,87,,,2.nein,2.529,None,None,None,music,0.847,None,None,None,,['return'],[1.1502337990277738],2017_Feb_23_1429,60.0249733322,famFaceGrey,001,22,
200,./greyInner/UrsulavonderLeyen8_2_cut.png,0,117,117,199,,,2.nein,4.642,None,dummy,2.676,None,None,None,None,None,,['return'],[0.8332907233252627],2017_Feb_23_1429,60.0249733322,famFaceGrey,001,22,
9,./greyInner/AngelaMerkel5_1_cut.png,0,118,118,8,,,1.ja,1.229,None,None,None,None,None,polit,0.862,None,angela merkel,"['a', 'n', 'g', 'e', 'l', 'a', 'space', 'm', 'e', 'r', 'k', 'e', 'l', 'return']","[1.516538831296657, 1.6998140450068604, 1.9496965600733347, 2.166029227364561, 2.3996633755914445, 2.5496819325971956, 2.766217973126004, 3.515821892519398, 3.649074347032183, 3.8657204144064963, 4.082348518214076, 4.198921159509609, 4.415508845292152, 5.081871200585283]",2017_Feb_23_1429,60.0249733322,famFaceGrey,001,22,
126,./greyInner/KatjaBurkard1_1_cut.png,0,119,119,125,,,2.nein,5.559,None,None,None,host,2.893,None,None,None,,['return'],[1.0498922025608408],2017_Feb_23_1429,60.0249733322,famFaceGrey,001,22,
172,./greyInner/SahraWagenknecht2_2_cut.png,0,120,120,171,,,1.ja,1.684,None,None,None,None,None,polit,0.819,None,,['return'],[0.8349241247810824],2017_Feb_23_1429,60.0249733322,famFaceGrey,001,22,
48,./greyInner/CristinMilioti(Tracy_Mutter)4_2_cut.png,0,121,121,47,,,1.ja,3.459,None,act,4.643,None,None,None,None,None,,['return'],[2.0329592955204134],2017_Feb_23_1429,60.0249733322,famFaceGrey,001,22,
158,./greyInner/NicoleKidman5_1_cut.png,0,122,122,157,,,1.ja,3.506,None,dummy,4.308,None,None,None,None,None,,['return'],[15.677535372989041],2017_Feb_23_1429,60.0249733322,famFaceGrey,001,22,
32,./greyInner/BritneySpears14_2_cut.png,0,123,123,31,,,1.ja,2.693,None,None,None,music,1.394,None,None,None,britney spears,"['b', 'r', 'i', 't', 'n', 'e', 'y', 'space', 's', 'p', 'e', 'a', 'r', 's', 'return']","[1.183460944158469, 1.3666556425969247, 1.6498454972875152, 1.91644856437415, 2.282908211627273, 2.4994602910546746, 2.8160687953277375, 3.0158967941770243, 3.7324147107497083, 4.098879811228471, 4.282164006722269, 4.565199567206491, 4.782023345579546, 4.948550420363517, 5.315067807652667]",2017_Feb_23_1429,60.0249733322,famFaceGrey,001,22,
62,./greyInner/EmilyDeschanel3_1_cut.png,0,124,124,61,,,2.nein,3.95,None,act,0.984,None,None,None,None,None,,['return'],[1.116541525831508],2017_Feb_23_1429,60.0249733322,famFaceGrey,001,22,
79,./greyInner/GeorgeClooney3_1_cut.png,0,125,125,78,,,1.ja,1.329,None,act,1.912,None,None,None,None,None,george clooney,"['g', 'e', 'o', 'r', 'g', 'e', 'space', 'c', 'l', 'o', 'o', 'n', 'e', 'y', 'return']","[1.4003912208199836, 1.6169028822223481, 2.03350461807986, 2.366304390712685, 2.7498339172025226, 2.9497318456506036, 3.149769954074145, 3.5661654296932284, 3.9487865129540296, 4.332519733459321, 4.498877758249364, 4.865562591642174, 5.232670851963576, 5.481955757659762, 5.848572265343591]",2017_Feb_23_1429,60.0249733322,famFaceGrey,001,22,
156,./greyInner/NicoleKidman14_1_cut.png,0,126,126,155,,,1.ja,6.559,None,act,4.511,None,None,None,None,None,kylie ,"['k', 'y', 'l', 'i', 'e', 'space', 'm', 'i', 'n', 'o', 'g', 'u', 'e', 'backspace', 'backspace', 'backspace', 'g', 'e', 'backspace', 'backspace', 'backspace', 'backspace', 'backspace', 'backspace', 'return']","[6.880917591816797, 7.264251443741159, 7.497443559916974, 8.296881941835636, 8.4636832817896, 9.513212684459177, 10.129594623247613, 10.32951628926594, 10.546118410057261, 10.779328810577681, 11.145841065419063, 11.445482339408045, 11.678990101112504, 13.944679271744008, 14.194581675044901, 14.461186025243023, 15.993873461428393, 16.143752800792754, 17.442964873849178, 18.309520273328417, 18.509561268753714, 18.676102457768593, 19.04268143442914, 19.292596027292802, 20.45884915768511]",2017_Feb_23_1429,60.0249733322,famFaceGrey,001,22,
169,./greyInner/RobertSeanLeonard(Wilson)2_6_cut.png,0,127,127,168,,,1.ja,3.977,None,act,1.132,None,None,None,None,None,wilson,"['w', 'i', 'l', 's', 'o', 'n', 'return']","[2.732822740335905, 2.9491351986143854, 3.18258297483726, 3.4992995812885965, 3.6658045223921363, 3.865662353593052, 4.265551877657799]",2017_Feb_23_1429,60.0249733322,famFaceGrey,001,22,
3,./greyInner/AlysonHannigan(Lily)14_2_cut.png,0,128,128,2,,,1.ja,1.563,None,act,0.83,None,None,None,None,None,lily,"['l', 'i', 'l', 'y', 'return']","[1.2498321529237728, 1.4674944449275245, 1.699898088837017, 2.049709359114331, 10.896227041519069]",2017_Feb_23_1429,60.0249733322,famFaceGrey,001,22,
142,./greyInner/MariskaHargitay(Liv)14_1_cut.png,0,129,129,141,,,2.nein,1.812,None,None,None,host,5.127,None,None,None,,['return'],[1.3332665045882095],2017_Feb_23_1429,60.0249733322,famFaceGrey,001,22,
57,./greyInner/ElvisPresley2_1_cut.png,0,130,130,56,,,1.ja,2.286,None,None,None,music,8.232,None,None,None,elvis presley,"['e', 'l', 'v', 'i', 's', 'space', 'p', 'r', 'e', 's', 'l', 'e', 'y', 'return']","[2.5663123460062707, 3.1158733453066816, 3.882279935882707, 4.26560288135579, 5.831617224622278, 6.048187267616413, 6.864451416731754, 7.247776607650849, 7.480887566998263, 8.097252183776163, 8.613760220387121, 8.847026436275428, 9.146971487007704, 9.696688705182623]",2017_Feb_23_1429,60.0249733322,famFaceGrey,001,22,
144,./greyInner/MariskaHargitay(Liv)6_5_cut.png,0,131,131,143,,,2.nein,3.753,None,dummy,3.245,None,None,None,None,None,,['return'],[1.699891352499435],2017_Feb_23_1429,60.0249733322,famFaceGrey,001,22,
76,./greyInner/GeorgeClooney11_1_cut.png,0,132,132,75,,,1.ja,1.497,None,act,0.946,None,None,None,None,None,george clooney,"['g', 'e', 'o', 'r', 'g', 'e', 'space', 'c', 'l', 'o', 'o', 'n', 'e', 'y', 'return']","[1.683216030173753, 2.0161986462530876, 2.49948948185056, 2.8326408271454966, 3.1323238022714577, 3.399116449142184, 3.665742933020738, 4.248504452879843, 4.8318212394156035, 5.181759216994124, 5.348359749934389, 5.581664779957919, 5.79821493471718, 6.081382976505665, 7.297553650918871]",2017_Feb_23_1429,60.0249733322,famFaceGrey,001,22,
42,./greyInner/CobieSmulders(Robin)2_1_cut.png,0,133,133,41,,,1.ja,1.86,None,act,1.827,None,None,None,None,None,,['return'],[9.280421861532432],2017_Feb_23_1429,60.0249733322,famFaceGrey,001,22,
118,./greyInner/JudithRakers4_3_cut.png,0,134,134,117,,,2.nein,3.062,None,None,None,host,4.778,None,None,None,,['return'],[1.3840286570211902],2017_Feb_23_1429,60.0249733322,famFaceGrey,001,22,
63,./greyInner/EmilyDeschanel5_1_cut.png,0,135,135,62,,,2.nein,3.009,None,None,None,host,3.309,None,None,None,,['return'],[1.0834449373378447],2017_Feb_23_1429,60.0249733322,famFaceGrey,001,22,
197,./greyInner/UrsulavonderLeyen4_1_cut.png,0,136,136,196,,,1.ja,4.527,None,None,None,None,None,polit,0.979,None,,['return'],[1.583247498493165],2017_Feb_23_1429,60.0249733322,famFaceGrey,001,22,
184,./greyInner/SigmarGabriel4_5_cut.png,0,137,137,183,,,1.ja,1.543,None,None,None,None,None,polit,1.025,None,,['return'],[0.9167520203400272],2017_Feb_23_1429,60.0249733322,famFaceGrey,001,22,
99,./greyInner/JasonSegel(Marshall)7_1_cut.png,0,138,138,98,,,1.ja,1.645,None,act,0.828,None,None,None,None,None,marshall,"['m', 'a', 'r', 's', 'h', 'a', 'l', 'l', 'return']","[2.932547127898488, 3.1991912545659034, 3.415679819953766, 3.6822591494701555, 4.032098327431868, 4.1819147943124335, 4.498572377616256, 4.648410657399381, 5.4981447805735115]",2017_Feb_23_1429,60.0249733322,famFaceGrey,001,22,
157,./greyInner/NicoleKidman3_1_cut.png,0,139,139,156,,,1.ja,6.326,None,act,2.255,None,None,None,None,None,kylie,"['k', 'y', 'l', 'i', 'e', 'return']","[0.9834157786194737, 1.3665725611008384, 1.5997242592511611, 1.9496413862611917, 2.1328979948489177, 3.3989990444019895]",2017_Feb_23_1429,60.0249733322,famFaceGrey,001,22,
55,./greyInner/DannFlorek(DonaldDonCragen)8_1_cut.png,0,140,140,54,,,2.nein,1.715,None,None,None,host,2.966,None,None,None,,['return'],[1.1000464807289063],2017_Feb_23_1429,60.0249733322,famFaceGrey,001,22,
12,./greyInner/BarackObama11_2_cut.png,0,141,141,11,,,1.ja,1.686,None,None,None,None,None,polit,0.632,None,barack obama,"['b', 'a', 'r', 'a', 'c', 'k', 'space', 'o', 'b', 'a', 'm', 'a', 'return']","[1.0833371559374427, 1.3832915092316398, 1.5831182249685298, 1.7997857844670762, 2.616273836610617, 2.74936301513344, 2.9327620491426387, 3.1659756574422317, 3.4324231472105566, 3.7155302411833873, 3.8824493066545074, 4.01555292018611, 4.348854710352043]",2017_Feb_23_1429,60.0249733322,famFaceGrey,001,22,
19,./greyInner/BastianSchweinsteiger3_1_cut.png,0,142,142,18,,,1.ja,1.596,None,None,None,None,None,sport,0.68,None,schweini,"['s', 'c', 'h', 'm', 'backspace', 'w', 'e', 'i', 'n', 'i', 'return']","[1.2502927900977738, 1.4335304727851508, 1.616881710875532, 1.983116813545621, 2.4831554672919083, 2.699733529735113, 2.8995894362678882, 3.0663285452942546, 3.2661148430065623, 3.4661359501974403, 3.8824813844521486]",2017_Feb_23_1429,60.0249733322,famFaceGrey,001,22,
210,./greyInner/WillSmith6_1_cut.png,0,143,143,209,,,1.ja,1.562,None,act,1.595,None,None,None,None,None,will smith,"['w', 'i', 'l', 'l', 'space', 's', 'm', 'i', 't', 'h', 'return']","[0.6500700418710039, 1.533079106094192, 2.0495653298030447, 2.1993907784672047, 2.4658629681393904, 3.032507640129097, 3.3488476532361346, 3.582297995682893, 3.865287364138112, 4.115277019048335, 4.4652550938740205]",2017_Feb_23_1429,60.0249733322,famFaceGrey,001,22,
217,./greyInner/notfamousface2_cut.png,0,144,144,216,,,2.nein,8.907,None,dummy,3.398,None,None,None,None,None,,['return'],[1.3333762106558424],2017_Feb_23_1429,60.0249733322,famFaceGrey,001,22,
16,./greyInner/BastianSchweinsteiger1_1_cut.png,0,145,145,15,,,1.ja,1.607,None,None,None,None,None,sport,0.724,None,schweini,"['s', 'c', 'h', 'w', 'e', 'i', 'n', 'i', 'return']","[0.9173239674719298, 1.1164998246949835, 1.3664035111073645, 1.9327816165991862, 2.1659689211051045, 2.315876488930826, 2.4993390369795634, 2.6825475288706, 3.149036334842094]",2017_Feb_23_1429,60.0249733322,famFaceGrey,001,22,
20,./greyInner/BastianSchweinsteiger6_2_cut.png,0,146,146,19,,,1.ja,1.408,None,None,None,None,None,sport,0.632,None,schweini,"['s', 'c', 'h', 'w', 'e', 'i', 'n', 'i', 'return']","[0.7167880116285232, 0.8834235093686402, 1.0665274276393575, 1.4496973620180142, 1.6830995877680834, 1.849645588452404, 2.0662368027929006, 2.24933109772428, 2.649243397025657]",2017_Feb_23_1429,60.0249733322,famFaceGrey,001,22,
38,./greyInner/CarenMiosga2_11_cut.png,0,147,147,37,,,2.nein,3.807,None,dummy,3.226,None,None,None,None,None,,['return'],[1.3831032125594902],2017_Feb_23_1429,60.0249733322,famFaceGrey,001,22,
198,./greyInner/UrsulavonderLeyen5_1_cut.png,0,148,148,197,,,1.ja,2.642,None,None,None,None,None,polit,1.109,None,,['return'],[0.9166872231890011],2017_Feb_23_1429,60.0249733322,famFaceGrey,001,22,
120,./greyInner/JudithRakers8_1_cut.png,0,149,149,119,,,2.nein,2.375,None,None,None,host,1.276,None,None,None,,['return'],[0.6666019764415978],2017_Feb_23_1429,60.0249733322,famFaceGrey,001,22,
7,./greyInner/AngelaMerkel3_1_cut.png,0,150,150,6,,,1.ja,1.786,None,None,None,None,None,polit,0.721,None,angela merkel,"['a', 'n', 'g', 'e', 'l', 'a', 'space', 'm', 'e', 'r', 'k', 'e', 'l', 'return']","[1.4831333336114767, 1.666576314203212, 1.8998053198461093, 2.116330453923183, 2.3329547083949365, 2.5325110082981155, 2.7494153019433725, 3.332524224350891, 3.4824192818359734, 3.6821513680697535, 3.882259406092544, 4.01556029807989, 4.182068126185186, 4.582011540950134]",2017_Feb_23_1429,60.0249733322,famFaceGrey,001,22,
107,./greyInner/JoachimLoew12_1_cut.png,0,151,151,106,,,1.ja,5.362,None,None,None,None,None,sport,0.663,None,,['return'],[0.7169423058353459],2017_Feb_23_1429,60.0249733322,famFaceGrey,001,22,
208,./greyInner/WillSmith4_1_cut.png,0,152,152,207,,,1.ja,1.625,None,act,0.442,None,None,None,None,None,will smith,"['w', 'i', 'l', 'l', 'space', 's', 'm', 'i', 't', 'h', 'return']","[0.7499914191894277, 1.0830285675242521, 1.4164596312143658, 1.5830685043824815, 1.7997193834262362, 2.399395525981163, 2.7324955467997825, 2.9325519395679294, 3.2324450242686, 3.448984272576581, 3.8001197143407808]",2017_Feb_23_1429,60.0249733322,famFaceGrey,001,22,
177,./greyInner/Shakira2_1_cut.png,0,153,153,176,,,1.ja,1.829,None,None,None,music,1.479,None,None,None,shakira,"['s', 'h', 'a', 'k', 'i', 'r', 'a', 'return']","[0.9836172271889154, 1.2333916400766611, 1.4666979532121331, 1.7997014198595025, 2.083086949116023, 2.849360096053715, 3.0827834931501457, 4.082230471919047]",2017_Feb_23_1429,60.0249733322,famFaceGrey,001,22,
59,./greyInner/ElvisPresley5_2_cut.png,0,154,154,58,,,1.ja,1.495,None,None,None,music,0.716,None,None,None,elvis presley,"['e', 'l', 'v', 'i', 's', 'space', 'p', 'r', 'e', 's', 'l', 'e', 'y', 'return']","[0.8001662271476562, 1.0998934696340257, 1.5329549650177796, 1.8663234770024246, 2.0661245305013836, 2.2827834289946622, 2.6661378107096425, 2.8658086283503508, 3.0491168821922656, 3.56549051283082, 3.9321291541950814, 4.065228276835114, 4.498515279136427, 4.99839386467238]",2017_Feb_23_1429,60.0249733322,famFaceGrey,001,22,
212,./greyInner/notfamousface11_1_cut.png,0,155,155,211,,,2.nein,2.584,None,dummy,1.618,None,None,None,None,None,,['return'],[1.0833397221617815],2017_Feb_23_1429,60.0249733322,famFaceGrey,001,22,
199,./greyInner/UrsulavonderLeyen7_1_cut.png,0,156,156,198,,,1.ja,4.312,None,None,None,None,None,polit,0.73,None,,['return'],[0.6834646331053591],2017_Feb_23_1429,60.0249733322,famFaceGrey,001,22,
147,./greyInner/MilaKunis10_1_cut.png,0,157,157,146,,,1.ja,2.48,None,dummy,0.864,None,None,None,None,None,,['return'],[0.8333487841391616],2017_Feb_23_1429,60.0249733322,famFaceGrey,001,22,
224,./greyInner/notfamousface9_1_cut.png,0,158,158,223,,,2.nein,7.108,None,None,None,music,1.977,None,None,None,,['return'],[1.0992548006829566],2017_Feb_23_1429,60.0249733322,famFaceGrey,001,22,
136,./greyInner/LisaEdelstein(DrLisaCuddy)1_1_cut.png,0,159,159,135,,,1.ja,1.683,None,act,1.33,None,None,None,None,None,,['return'],[0.7003365923305864],2017_Feb_23_1429,60.0249733322,famFaceGrey,001,22,
26,./greyInner/Beyonce1_1_cut.png,0,160,160,25,,,1.ja,1.953,None,None,None,music,1.482,None,None,None,beyonce,"['b', 'e', 'y', 'o', 'n', 'b', 'backspace', 'c', 'e', 'return']","[0.9502585630875728, 1.099987778358809, 1.5159700919443821, 1.8663112874392027, 2.1330943109701366, 3.048564181738584, 3.9656510942859313, 4.165360405283536, 4.582133115803117]",2017_Feb_23_1429,60.0249733322,famFaceGrey,001,22,
82,./greyInner/HughLaurie(DrHouse)4_1_cut.png,0,161,161,81,,,1.ja,1.125,None,act,0.71,None,None,None,None,None,dr house,"['s', 'backspace', 'd', 'r', 'space', 'h', 'o', 'u', 's', 'e', 'return']","[0.9999666390908715, 1.5497964503351795, 1.7328330052309866, 3.249052341663628, 3.4823233692209214, 3.7654772967784993, 4.081979944319755, 4.31529588079411, 4.615026331060562, 4.81498360343403, 5.064894346961864]",2017_Feb_23_1429,60.0249733322,famFaceGrey,001,22,
29,./greyInner/Beyonce5_3_cut.png,0,162,162,28,,,1.ja,1.394,None,None,None,music,1.477,None,None,None,beyonce,"['b', 'e', 'y', 'o', 'n', 'c', 'e', 'return']","[0.8995846245979919, 1.066016107545238, 2.049079030390658, 2.248923068138538, 2.4487391982024747, 3.3652105378128, 3.531790540962902, 4.5148040640001454]",2017_Feb_23_1429,60.0249733322,famFaceGrey,001,22,
123,./greyInner/KaleyCuoco(Penny)3_1_cut.png,0,163,163,122,,,1.ja,1.279,None,act,0.779,None,None,None,None,None,penny,"['p', 'e', 'n', 'n', 'y', 'return']","[0.8833747511162073, 1.1332062624842365, 1.366506801615742, 1.533134279906335, 1.783022568976321, 2.0828466864118127]",2017_Feb_23_1429,60.0249733322,famFaceGrey,001,22,
150,./greyInner/MilaKunis7_3_cut.png,0,164,164,149,,,1.ja,9.487,None,act,0.841,None,None,None,None,None,,['return'],[0.9666878487055328],2017_Feb_23_1429,60.0249733322,famFaceGrey,001,22,
192,./greyInner/TomCruise4_1_cut.png,0,165,165,191,,,1.ja,1.258,None,act,0.923,None,None,None,None,None,tom cruise,"['t', 'o', 'm', 'space', 'c', 'r', 'u', 'i', 's', 'e', 'return']","[1.2332383082043634, 1.38312502546205, 1.6163684661137268, 1.8495695640726808, 2.0993584119696607, 2.3493634642227335, 2.767068676319468, 2.982612871344827, 3.1991489118731806, 3.3656506451970927, 3.615605014529592]",2017_Feb_23_1429,60.0249733322,famFaceGrey,001,22,
183,./greyInner/SigmarGabriel3_3_cut.png,0,166,166,182,,,1.ja,1.269,None,None,None,None,None,polit,0.607,None,,['return'],[1.1000952389808845],2017_Feb_23_1429,60.0249733322,famFaceGrey,001,22,
218,./greyInner/notfamousface3_3_cut.png,0,167,167,217,,,2.nein,3.179,None,None,None,music,4.263,None,None,None,,['return'],[0.8336050857424198],2017_Feb_23_1429,60.0249733322,famFaceGrey,001,22,
194,./greyInner/TomCruise6_1_cut.png,0,168,168,193,,,1.ja,11.226,None,act,0.729,None,None,None,None,None,tom cruise,"['t', 'o', 'm', 'space', 'c', 'r', 'u', 'i', 's', 'e', 'return']","[1.333256239693128, 1.5498936460617188, 1.7831098205856506, 1.949855665949599, 2.1996236632780892, 2.4829456784950708, 2.9160318737826856, 3.0991316219401597, 3.3158511474707666, 3.4991080768363645, 3.9490989507030463]",2017_Feb_23_1429,60.0249733322,famFaceGrey,001,22,
98,./greyInner/JasonSegel(Marshall)6_1_cut.png,0,169,169,97,,,1.ja,1.707,None,dummy,0.478,None,None,None,None,None,marshall,"['m', 'a', 'r', 's', 'h', 'a', 'l', 'l', 'return']","[1.1834683220522493, 1.3833665712782022, 1.633325752280598, 1.9998024007663844, 2.266392315956182, 2.432812892451693, 2.716146776454025, 2.8827392899452207, 3.16600356512663]",2017_Feb_23_1429,60.0249733322,famFaceGrey,001,22,
141,./greyInner/MariskaHargitay(Liv)13_1_cut.png,0,170,170,140,,,2.nein,2.128,None,act,2.262,None,None,None,None,None,,['return'],[0.8167469199702282],2017_Feb_23_1429,60.0249733322,famFaceGrey,001,22,
30,./greyInner/Beyonce8_3_cut.png,0,171,171,29,,,1.ja,1.263,None,None,None,music,0.829,None,None,None,beyonce,"['b', 'e', 'y', 'o', 'n', 'c', 'e', 'return']","[1.050164543063147, 1.2333284468154488, 3.149077073645458, 3.3659874620720984, 3.582498802696591, 4.015552920186565, 4.215584933828268, 4.648577461947298]",2017_Feb_23_1429,60.0249733322,famFaceGrey,001,22,
132,./greyInner/LeonardoDiCaprio2_1_cut.png,0,172,172,131,,,1.ja,1.676,None,dummy,0.46,None,None,None,None,None,leonardo,"['l', 'e', 'o', 'n', 'a', 'r', 'd', 'o', 'return']","[0.8835367439946822, 1.0997834427880662, 1.3832664885494523, 1.683051471071849, 1.9495791553340496, 2.382652519502699, 2.715763125994272, 2.965853825967315, 3.7988937009149595]",2017_Feb_23_1429,60.0249733322,famFaceGrey,001,22,
103,./greyInner/JimParsons(SheldonCooper)6_1_cut.png,0,173,173,102,,,1.ja,1.395,None,dummy,0.663,None,None,None,None,None,sheldon,"['s', 'h', 'e', 'l', 'd', 'o', 'n', 'return']","[0.7502182092184739, 1.016831861978062, 1.1833294251882762, 1.449926076715201, 2.049759400478706, 2.2163307426235406, 2.432916824516269, 2.832520535404001]",2017_Feb_23_1429,60.0249733322,famFaceGrey,001,22,
100,./greyInner/JasonSegel(Marshall)9_1_cut.png,0,174,174,99,,,1.ja,1.679,None,dummy,0.696,None,None,None,None,None,marshall,"['m', 'a', 'r', 's', 'h', 'a', 'l', 'l', 'return']","[0.9503570419265088, 1.1835549321053804, 1.3501426339271347, 2.1663881779199983, 2.416390663949187, 2.5662507566348722, 3.1493885490599496, 3.332717332692482, 3.649037778342972]",2017_Feb_23_1429,60.0249733322,famFaceGrey,001,22,
83,./greyInner/HughLaurie(DrHouse)5_3_cut.png,0,175,175,82,,,1.ja,1.16,None,act,0.644,None,None,None,None,None,dr house,"['d', 'r', 'space', 'h', 'o', 'u', 'd', 'backspace', 's', 'e', 'return']","[1.2003752460768737, 1.9666451852349383, 2.149701307587293, 2.582996650115547, 2.9661531118190396, 3.2162524727973505, 3.6492713047096004, 4.3657632382664815, 4.548947671809401, 4.732246302311978, 4.931870286367939]",2017_Feb_23_1429,60.0249733322,famFaceGrey,001,22,
188,./greyInner/TaylorSwift3_1_cut.png,0,176,176,187,,,1.ja,1.827,None,None,None,music,4.26,None,None,None,,['return'],[1.9162070185579978],2017_Feb_23_1429,60.0249733322,famFaceGrey,001,22,
201,./greyInner/Usher1_1_cut.png,0,177,177,200,,,1.ja,1.216,None,None,None,music,0.733,None,None,None,usher,"['u', 's', 'h', 'e', 'r', 'return']","[0.949935218887731, 1.2499267824268827, 1.4831445608406284, 1.5663700860422978, 1.783056571441648, 2.232963401478173]",2017_Feb_23_1429,60.0249733322,famFaceGrey,001,22,
114,./greyInner/JoshRadnor(Ted)7_1_cut.png,0,178,178,113,,,1.ja,1.508,None,dummy,0.493,None,None,None,None,None,ted,"['t', 'e', 'd', 'return']","[1.2997933227497924, 1.4832866654842292, 1.7830681194486715, 2.1663079834261225]",2017_Feb_23_1429,60.0249733322,famFaceGrey,001,22,
163,./greyInner/OmarEpps(DrEricForeman)3_1_cut.png,0,179,179,162,,,1.ja,1.833,None,act,1.209,None,None,None,None,None,,['return'],[0.6504447105476174],2017_Feb_23_1429,60.0249733322,famFaceGrey,001,22,
84,./greyInner/HughLaurie(DrHouse)8_1_cut.png,0,180,180,83,,,1.ja,2.009,None,act,1.209,None,None,None,None,None,dr house,"['d', 'r', 'space', 'h', 'o', 'u', 's', 'e', 'return']","[1.099937416217017, 1.3164388127238453, 1.5169686737854136, 2.149539956265471, 2.565945376001764, 2.782753757031969, 3.182116563659747, 3.3656824022164074, 3.698702870096895]",2017_Feb_23_1429,60.0249733322,famFaceGrey,001,22,
5,./greyInner/AlysonHannigan(Lily)8_3_cut.png,0,181,181,4,,,1.ja,1.378,None,act,0.737,None,None,None,None,None,lily,"['l', 'i', 'l', 'y', 'return']","[0.7666911206410987, 0.9834834627727105, 1.1667028611150272, 1.449892074249874, 1.783176863182689]",2017_Feb_23_1429,60.0249733322,famFaceGrey,001,22,
121,./greyInner/KaleyCuoco(Penny)10_1_cut.png,0,182,182,120,,,1.ja,1.236,None,act,0.659,None,None,None,None,None,penny,"['p', 'e', 'n', 'n', 'y', 'return']","[0.9497276755369057, 1.1831677530885827, 1.4830441573340067, 1.6330315988761868, 1.8662262812754307, 2.1828152180924008]",2017_Feb_23_1429,60.0249733322,famFaceGrey,001,22,
89,./greyInner/Ice-T(OdafinFinTutuola)6_1_cut.png,0,183,183,88,,,2.nein,1.372,None,None,None,music,1.336,None,None,None,,['return'],[1.0665389756468358],2017_Feb_23_1429,60.0249733322,famFaceGrey,001,22,
66,./greyInner/EmmaWatson(HermioneGranger)11_2_cut.png,0,184,184,65,,,1.ja,1.078,None,act,0.512,None,None,None,None,None,emma watson,"['e', 'm', 'm', 'a', 'space', 'w', 'a', 't', 's', 'o', 'n', 'return']","[1.1666425548555708, 1.4663864777971867, 1.6328076958488964, 1.8329446038892456, 2.032556077604113, 2.2826650619217617, 2.4992360672495124, 2.7992362917939317, 3.3990433117633074, 3.5823281488128487, 3.7822344174883256, 4.198703351263703]",2017_Feb_23_1429,60.0249733322,famFaceGrey,001,22,
191,./greyInner/TomCruise1_1_cut.png,0,185,185,190,,,1.ja,1.93,None,dummy,0.73,None,None,None,None,None,tom cruise,"['t', 'o', 'm', 'space', 'c', 'r', 'u', 'i', 's', 'e', 'return']","[1.4832318124504127, 1.9329991040672212, 2.1828559568953096, 2.3499229010135423, 2.732735488726121, 2.999367425830769, 3.3324677674272607, 3.532485666838056, 3.6990271766312617, 3.8822584437584737, 4.11551279086143]",2017_Feb_23_1429,60.0249733322,famFaceGrey,001,22,
189,./greyInner/TaylorSwift7_1_cut.png,0,186,186,188,,,1.ja,3.08,None,None,None,music,0.731,None,None,None,,['return'],[0.6170125882899811],2017_Feb_23_1429,60.0249733322,famFaceGrey,001,22,
173,./greyInner/SahraWagenknecht5_1_cut.png,0,187,187,172,,,1.ja,1.478,None,None,None,None,None,polit,0.877,None,,['return'],[0.76678414625394],2017_Feb_23_1429,60.0249733322,famFaceGrey,001,22,
93,./greyInner/JanHofer5_1_cut.png,0,188,188,92,,,1.ja,2.094,None,None,None,host,1.311,None,None,None,,['return'],[0.8673740248750619],2017_Feb_23_1429,60.0249733322,famFaceGrey,001,22,
215,./greyInner/notfamousface13_1_cut.png,0,189,189,214,,,2.nein,4.011,None,None,None,host,4.015,None,None,None,,['return'],[1.233526687604808],2017_Feb_23_1429,60.0249733322,famFaceGrey,001,22,
159,./greyInner/NicoleKidman7_1_cut.png,0,190,190,158,,,1.ja,2.344,None,act,1.246,None,None,None,None,None,kylie,"['k', 'y', 'l', 'i', 'e', 'return']","[2.0664517240370515, 2.399634184795559, 2.5995462274745478, 2.8661159336515993, 3.3656782321027094, 7.3143547182107795]",2017_Feb_23_1429,60.0249733322,famFaceGrey,001,22,
87,./greyInner/Ice-T(OdafinFinTutuola)12_1_cut.png,0,191,191,86,,,2.nein,1.68,None,None,None,music,5.328,None,None,None,,['return'],[0.8334004293938051],2017_Feb_23_1429,60.0249733322,famFaceGrey,001,22,
145,./greyInner/MariskaHargitay(Liv)8_8_cut.png,0,192,192,144,,,2.nein,3.009,None,dummy,2.745,None,None,None,None,None,,['return'],[0.8666532367624313],2017_Feb_23_1429,60.0249733322,famFaceGrey,001,22,
127,./greyInner/KatjaBurkard10_1_cut.png,0,193,193,126,,,2.nein,3.629,None,dummy,1.697,None,None,None,None,None,,['return'],[0.7503891838796335],2017_Feb_23_1429,60.0249733322,famFaceGrey,001,22,
54,./greyInner/DannFlorek(DonaldDonCragen)5_1_cut.png,0,194,194,53,,,2.nein,1.245,None,None,None,None,None,polit,2.478,None,,['return'],[0.9171247643485003],2017_Feb_23_1429,60.0249733322,famFaceGrey,001,22,
74,./greyInner/GuentherJauch7_1_cut.png,0,195,195,73,,,1.ja,1.695,None,None,None,host,1.629,None,None,None,,['return'],[1.4497743487322623],2017_Feb_23_1429,60.0249733322,famFaceGrey,001,22,
171,./greyInner/SahraWagenknecht12_1_cut.png,0,196,196,170,,,1.ja,5.778,None,None,None,None,None,polit,1.18,None,,['return'],[0.9501636128065911],2017_Feb_23_1429,60.0249733322,famFaceGrey,001,22,
112,./greyInner/JoshRadnor(Ted)3_1_cut.png,0,197,197,111,,,1.ja,1.359,None,dummy,1.024,None,None,None,None,None,ted,"['t', 'e', 'd', 'return']","[1.0669072287637391, 1.300242091138898, 1.5667380183813293, 1.8997148604566974]",2017_Feb_23_1429,60.0249733322,famFaceGrey,001,22,
160,./greyInner/NicoleKidman8_2_cut.png,0,198,198,159,,,1.ja,2.261,None,act,1.027,None,None,None,None,None,kylie,"['k', 'y', 'l', 'i', 'e', 'return']","[0.8833805251201738, 1.4164111937402595, 1.8662083177091517, 2.099469721927562, 2.2659066580999934, 3.232286880726406]",2017_Feb_23_1429,60.0249733322,famFaceGrey,001,22,
24,./greyInner/BenedictCumberbatch4_1_cut.png,0,199,199,23,,,1.ja,1.821,None,dummy,1.906,None,None,None,None,None,shelock,"['s', 'h', 'e', 'l', 'o', 'c', 'k', 'return']","[0.8335797442823605, 1.1334907925493098, 1.3000124141076412, 1.6164881162985694, 1.883052369249981, 2.2495694357612592, 2.4662668276118893, 2.7994929141750617]",2017_Feb_23_1429,60.0249733322,famFaceGrey,001,22,
161,./greyInner/OmarEpps(DrEricForeman)1_5_cut.png,0,200,200,160,,,1.ja,1.896,None,dummy,0.766,None,None,None,None,None,,['return'],[1.2166204051359273],2017_Feb_23_1429,60.0249733322,famFaceGrey,001,22,
46,./greyInner/CristinMilioti(Tracy_Mutter)10_1_cut.png,0,201,201,45,,,1.ja,1.377,None,dummy,0.944,None,None,None,None,None,,['return'],[0.9830950006430612],2017_Feb_23_1429,60.0249733322,famFaceGrey,001,22,
49,./greyInner/CristinMilioti(Tracy_Mutter)8_1_cut.png,0,202,202,48,,,1.ja,4.97,None,act,0.655,None,None,None,None,None,,['return'],[0.9012664635288274],2017_Feb_23_1429,60.0249733322,famFaceGrey,001,22,
92,./greyInner/JanHofer3_1_cut.png,0,203,203,91,,,1.ja,4.112,None,None,None,host,2.079,None,None,None,,['return'],[0.7835640421999415],2017_Feb_23_1429,60.0249733322,famFaceGrey,001,22,
220,./greyInner/notfamousface5_1_cut.png,0,204,204,219,,,2.nein,2.986,None,None,None,None,None,polit,2.938,None,,['return'],[0.6336401146973003],2017_Feb_23_1429,60.0249733322,famFaceGrey,001,22,
155,./greyInner/NeilPatrickHarris(Barney)3_7_cut.png,0,205,205,154,,,1.ja,1.423,None,dummy,0.465,None,None,None,None,None,barney,"['b', 'a', 'r', 'n', 'e', 'x', 'backspace', 'y', 'return']","[0.9505565658282649, 1.3170142884137022, 1.500394396522097, 2.050126691261994, 2.2668654634712766, 2.533255533981446, 3.033050396465569, 3.282872605272132, 3.5490721336645947]",2017_Feb_23_1429,60.0249733322,famFaceGrey,001,22,
60,./greyInner/ElvisPresley6_1_cut.png,0,206,206,59,,,1.ja,1.412,None,None,None,music,0.612,None,None,None,elvis,"['e', 'l', 'v', 'i', 's', 'return']","[0.9168816146425343, 1.1334840562117279, 1.7333404759897348, 1.949938105889487, 2.166409028488488, 2.48297101995513]",2017_Feb_23_1429,60.0249733322,famFaceGrey,001,22,
64,./greyInner/EmilyDeschanel6_12_cut.png,0,207,207,63,,,2.nein,2.31,None,act,2.876,None,None,None,None,None,,['return'],[0.9668267455695059],2017_Feb_23_1429,60.0249733322,famFaceGrey,001,22,
170,./greyInner/RobertSeanLeonard(Wilson)8_1_cut.png,0,208,208,169,,,1.ja,1.595,None,act,1.362,None,None,None,None,None,wilson,"['w', 'i', 'l', 's', 'o', 'n', 'return']","[0.9838921339146509, 1.2338080098902537, 1.4337280720187664, 1.8335595352700693, 2.016725042912185, 2.2499675212302463, 2.616449302163801]",2017_Feb_23_1429,60.0249733322,famFaceGrey,001,22,
69,./greyInner/EmmaWatson(HermioneGranger)4_1_cut.png,0,209,209,68,,,1.ja,1.409,None,act,1.115,None,None,None,None,None,emma watson,"['e', 'm', 'm', 'a', 'space', 'w', 'a', 't', 's', 'o', 'n', 'return']","[1.18316903620007, 1.4998099390491006, 1.6663350891649316, 1.832910601423464, 2.0161556620041665, 3.0156343977923825, 3.2488611579892677, 3.565563650209697, 4.115324494189281, 4.598423825334976, 4.881784654687181, 5.44809411369215]",2017_Feb_23_1429,60.0249733322,famFaceGrey,001,22,
10,./greyInner/AngelaMerkel6_1_cut.png,0,210,210,9,,,1.ja,1.598,None,None,None,None,None,polit,0.768,None,angela merkel,"['a', 'n', 'g', 'e', 'l', 'a', 'space', 'm', 'e', 'r', 'k', 'e', 'l', 'return']","[1.16676797904438, 1.3998741267223522, 1.6665307637308615, 1.866234942281153, 2.116270789219925, 2.249673367825835, 2.499582828241728, 2.7493745631404636, 2.916033798450826, 3.115898045211452, 3.3158549968070474, 3.432497888479247, 3.6157432698378216, 3.9490594950120794]",2017_Feb_23_1429,60.0249733322,famFaceGrey,001,22,
187,./greyInner/TaylorSwift2_1_cut.png,0,211,211,186,,,1.ja,1.394,None,None,None,music,3.594,None,None,None,,['return'],[1.083863231819123],2017_Feb_23_1429,60.0249733322,famFaceGrey,001,22,
40,./greyInner/CarenMiosga9_1_cut.png,0,212,212,39,,,2.nein,4.828,None,None,None,None,None,polit,1.945,None,,['return'],[1.0500359110947102],2017_Feb_23_1429,60.0249733322,famFaceGrey,001,22,
146,./greyInner/MilaKunis1_3_cut.png,0,213,213,145,,,1.ja,1.72,None,act,1.098,None,None,None,None,None,,['return'],[1.2169289935495726],2017_Feb_23_1429,60.0249733322,famFaceGrey,001,22,
106,./greyInner/JoachimLoew1_1_cut.png,0,214,214,105,,,1.ja,1.287,None,None,None,None,None,sport,0.687,None,,['return'],[0.6673817877021975],2017_Feb_23_1429,60.0249733322,famFaceGrey,001,22,
135,./greyInner/LeonardoDiCaprio7_1_cut.png,0,215,215,134,,,1.ja,5.485,None,act,0.938,None,None,None,None,None,leonardo,"['l', 'e', 'o', 'm', 'backspace', 'n', 'a', 'r', 'd', 'o', 'return']","[0.9499278409944054, 1.1665309241197974, 1.4331808247907247, 1.6829969388159043, 2.2328617148600642, 2.932549694122372, 3.1822323645092183, 3.3990542182145873, 3.6654885560851653, 3.982068511118541, 4.331960617446384]",2017_Feb_23_1429,60.0249733322,famFaceGrey,001,22,
47,./greyInner/CristinMilioti(Tracy_Mutter)2_1_cut.png,0,216,216,46,,,1.ja,1.579,None,act,0.546,None,None,None,None,None,,['return'],[0.7667584840160089],2017_Feb_23_1429,60.0249733322,famFaceGrey,001,22,
128,./greyInner/KatjaBurkard4_1_cut.png,0,217,217,127,,,1.ja,2.467,None,None,None,host,0.9,None,None,None,,['return'],[1.2334660605674799],2017_Feb_23_1429,60.0249733322,famFaceGrey,001,22,
176,./greyInner/Shakira1_1_cut.png,0,218,218,175,,,1.ja,1.726,None,None,None,music,0.793,None,None,None,shakira,"['s', 'h', 'a', 'k', 'i', 'r', 'a', 'return']","[1.8662522642916883, 2.182784423406247, 2.3159377575243525, 3.2991235383351523, 3.4989431969565885, 3.915466662988365, 4.315369338950404, 4.91506536973975]",2017_Feb_23_1429,60.0249733322,famFaceGrey,001,22,
113,./greyInner/JoshRadnor(Ted)6_2_cut.png,0,219,219,112,,,1.ja,1.496,None,act,0.413,None,None,None,None,None,ted,"['t', 'e', 'd', 'return']","[1.016537387795779, 1.1834224508015723, 1.4831769594161415, 1.833112049992451]",2017_Feb_23_1429,60.0249733322,famFaceGrey,001,22,
34,./greyInner/BritneySpears7_1_cut.png,0,220,220,33,,,1.ja,1.264,None,None,None,music,1.014,None,None,None,britney,"['b', 'r', 'i', 't', 'n', 'e', 'y', 'return']","[2.2162900038206317, 2.466106438623683, 2.7160203899311455, 2.999308723460672, 3.4824584167490684, 3.6490050589895873, 3.949006245868077, 4.265402715898745]",2017_Feb_23_1429,60.0249733322,famFaceGrey,001,22,
202,./greyInner/Usher11_1_cut.png,0,221,221,201,,,1.ja,1.544,None,None,None,music,0.612,None,None,None,usher,"['u', 's', 'h', 'e', 'r', 'return']","[1.2002270466518894, 1.4167489729493354, 1.6665955608818876, 1.749916998698609, 1.9664081303103558, 2.233040708970748]",2017_Feb_23_1429,60.0249733322,famFaceGrey,001,22,
95,./greyInner/JanHofer9_2_cut.png,0,222,222,94,,,1.ja,1.763,None,None,None,host,0.595,None,None,None,,['return'],[1.0501488249424256],2017_Feb_23_1429,60.0249733322,famFaceGrey,001,22,
23,./greyInner/BenedictCumberbatch3_9_cut.png,0,223,223,22,,,1.ja,1.604,None,act,0.445,None,None,None,None,None,sherlock,"['s', 'h', 'e', 'r', 'l', 'o', 'c', 'k', 'return']","[1.1000583495138017, 1.466580548472848, 1.6330858103542596, 1.8496718922469881, 2.116271109997797, 2.2994577889867287, 2.549398685644519, 2.8325991260085175, 3.1991838766725778]",2017_Feb_23_1429,60.0249733322,famFaceGrey,001,22,
