num,pic,trials.thisRepN,trials.thisTrialN,trials.thisN,trials.thisIndex,key_resp_2.keys,key_resp_2.rt,ratingBekannt.response,ratingBekannt.rt,key_resp_5.keys,key_resp_5.rt,ratingK1.response,ratingK1.rt,ratingK2.response,ratingK2.rt,ratingK3.response,ratingK3.rt,key_resp_6.keys,key_resp_6.rt,inputText,key_resp_4.keys,key_resp_4.rt,date,frameRate,expName,session,participant,
,,,,,,space,39.6991009556,,,,,,,,,,,,,,,,2017_Feb_23_1634,60.0514519629,famFaceGrey,001,23,
174,./greyInner/SahraWagenknecht6_2_cut.png,0,0,0,173,,,None,None,2,8.11358716067,None,None,None,None,None,None,3,9.56294096947,,['return'],[3.782603312161882],2017_Feb_23_1634,60.0514519629,famFaceGrey,001,23,
87,./greyInner/Ice-T(OdafinFinTutuola)12_1_cut.png,0,1,1,86,,,None,None,1,19.8923523643,None,None,None,None,None,None,2,7.54734955593,,['return'],[2.5159886970668595],2017_Feb_23_1634,60.0514519629,famFaceGrey,001,23,
224,./greyInner/notfamousface9_1_cut.png,0,2,2,223,,,None,None,2,29.8549788431,None,None,None,None,None,None,2,4.61550589413,,['return'],[1.6332317643336864],2017_Feb_23_1634,60.0514519629,famFaceGrey,001,23,
209,./greyInner/WillSmith5_1_cut.png,0,3,3,208,,,None,None,1,2.73261327232,None,None,None,None,None,None,2,4.18208608975,Usher,"['lshift', 'u', 's', 'h', 'e', 'r', 'return']","[2.866026436595348, 3.016053013050623, 3.2658765049691283, 3.565890202189621, 3.7490602007237612, 3.8490207129543705, 5.065223144387346]",2017_Feb_23_1634,60.0514519629,famFaceGrey,001,23,
96,./greyInner/JasonSegel(Marshall)11_1_cut.png,0,4,4,95,,,None,None,1,12.2787294369,None,None,None,None,None,None,1,1.93274504791,Marshall,"['lshift', 'm', 'a', 'r', 's', 'h', 'a', 'l', 'l', 'return']","[3.349062574479831, 3.449024049044965, 3.665504594982849, 3.94887023600495, 4.198719390162296, 4.532014443990192, 4.665099452398863, 4.965057655028431, 7.813882372640364, 9.94656255924383]",2017_Feb_23_1634,60.0514519629,famFaceGrey,001,23,
152,./greyInner/NeilPatrickHarris(Barney)11_2_cut.png,0,5,5,151,,,None,None,2,3.24913317771,None,None,None,None,None,None,1,7.13076706675,,['return'],[1.416416005409701],2017_Feb_23_1634,60.0514519629,famFaceGrey,001,23,
207,./greyInner/WillSmith14_1_cut.png,0,6,6,206,,,None,None,1,4.34862150476,None,None,None,None,None,None,1,9.27996507369,,['return'],[1.0000205297910725],2017_Feb_23_1634,60.0514519629,famFaceGrey,001,23,
197,./greyInner/UrsulavonderLeyen4_1_cut.png,0,7,7,196,,,None,None,1,8.18012966487,None,None,None,None,None,None,4,3.49886460635,Ursula von der Layen,"['lshift', 'u', 'r', 's', 'u', 'l', 'a', 'space', 'v', 'o', 'n', 'space', 'd', 'e', 'r', 'space', 'lshift', 'l', 'e', 'y', 'e', 'n', 'backspace', 'backspace', 'backspace', 'backspace', 'e', 'i', 'e', 'n', 'backspace', 'backspace', 'backspace', 'backspace', 'a', 'y', 'e', 'n', 'return']","[24.27373043294574, 24.390587604306347, 24.706830742463353, 24.923376406331954, 25.172915368184476, 25.573251415193226, 25.756792553846026, 25.889876920698953, 26.173193161912423, 26.356394275910134, 26.62286357858102, 26.77300403121808, 26.856286654900032, 27.07284579144107, 27.139277948022936, 27.306133178675736, 27.639202725587893, 27.756005685469063, 28.00587697330593, 28.738799154814842, 29.005510003302334, 29.23864983266685, 40.08421544603698, 40.48405268329225, 40.650679840804514, 40.8005049686908, 42.08341542576454, 42.25012630632955, 42.3833348142598, 42.54976661798355, 45.281986937279726, 45.46548765790794, 45.94867039132805, 46.13184520153118, 46.981365686573554, 47.447781034388754, 47.76449956550641, 47.964443365206535, 49.74699086199871]",2017_Feb_23_1634,60.0514519629,famFaceGrey,001,23,
202,./greyInner/Usher11_1_cut.png,0,8,8,201,,,None,None,2,4.21538412681,None,None,None,None,None,None,5,7.6473793562,,['return'],[1.416265560537795],2017_Feb_23_1634,60.0514519629,famFaceGrey,001,23,
26,./greyInner/Beyonce1_1_cut.png,0,9,9,25,,,None,None,2,11.595783181,None,None,None,None,None,None,3,6.66392283878,,['return'],[0.7500376112184313],2017_Feb_23_1634,60.0514519629,famFaceGrey,001,23,
57,./greyInner/ElvisPresley2_1_cut.png,0,10,10,56,,,None,None,1,10.1962740996,None,None,None,None,None,None,2,2.54935345595,Elvis,"['lshift', 'e', 'l', 'v', 'i', 's', 'return']","[2.299537662702278, 2.3993782039706275, 2.799240461907175, 3.199184839006193, 3.565550498313314, 3.732481753346292, 8.813654620276793]",2017_Feb_23_1634,60.0514519629,famFaceGrey,001,23,
124,./greyInner/KaleyCuoco(Penny)5_2_cut.png,0,11,11,123,,,None,None,1,20.9584018328,None,None,None,None,None,None,1,5.63121824097,,['return'],[2.816077456333005],2017_Feb_23_1634,60.0514519629,famFaceGrey,001,23,
22,./greyInner/BenedictCumberbatch2_2_cut.png,0,12,12,21,,,None,None,1,3.88222732829,None,None,None,None,None,None,2,2.28291174019,,['return'],[1.0502383219973126],2017_Feb_23_1634,60.0514519629,famFaceGrey,001,23,
189,./greyInner/TaylorSwift7_1_cut.png,0,13,13,188,,,None,None,2,7.73056382183,None,None,None,None,None,None,1,3.26565741361,,['return'],[1.4831885074236197],2017_Feb_23_1634,60.0514519629,famFaceGrey,001,23,
31,./greyInner/BritneySpears1_1_cut.png,0,14,14,30,,,None,None,1,2.66603612409,None,None,None,None,None,None,2,2.91584870956,Britney Spears,"['lshift', 'b', 'r', 'i', 't', 'n', 'e', 'y', 'space', 'lshift', 's', 'p', 'e', 'a', 'r', 's', 'return']","[1.5500553181627765, 1.650020962841154, 1.9998505174644379, 2.166490506095215, 2.399700265059437, 2.7825487799054827, 2.932869188987752, 3.5992918505398848, 3.8158984622241405, 4.082394710243534, 4.199028620132594, 4.582245708874325, 4.915355994588026, 5.032025510830863, 5.198407593970842, 5.315341752044333, 8.097405194872408]",2017_Feb_23_1634,60.0514519629,famFaceGrey,001,23,
9,./greyInner/AngelaMerkel5_1_cut.png,0,15,15,8,,,None,None,1,2.46593482241,None,None,None,None,None,None,4,2.48270766124,Angela Merkel,"['lshift', 'a', 'n', 'g', 'e', 'l', 'a', 'space', 'lshift', 'm', 'e', 'r', 'k', 'e', 'l', 'return']","[1.3995058736054489, 1.749375846253315, 1.9661723584977153, 2.199232634924556, 2.3492560036011128, 2.6491401065177342, 2.8324082631133933, 3.048897470056545, 3.298790891572935, 3.432234208981754, 3.682144631733536, 3.7988192804241407, 4.015253634333931, 4.098765935046686, 4.215174658796968, 5.56475432737534]",2017_Feb_23_1634,60.0514519629,famFaceGrey,001,23,
7,./greyInner/AngelaMerkel3_1_cut.png,0,16,16,6,,,None,None,1,13.0285925449,None,None,None,None,None,None,4,4.58185628441,Angela Merkel,"['lshift', 'a', 'n', 'g', 'e', 'l', 'a', 'space', 'lshift', 'm', 'e', 'r', 'k', 'e', 'l', 'return']","[4.181977987573191, 4.398691418322414, 4.615203400502651, 4.848477956618808, 5.031625821471607, 5.231424629524554, 5.448091547468721, 5.6148482992830395, 5.781319237921707, 5.914476421376094, 6.147990598639808, 6.280901745385563, 6.44800589974875, 6.547728394720252, 6.680661675147348, 11.079261350969318]",2017_Feb_23_1634,60.0514519629,famFaceGrey,001,23,
147,./greyInner/MilaKunis10_1_cut.png,0,17,17,146,,,None,None,2,2.89931260487,None,None,None,None,None,None,3,8.21368336198,,['return'],[1.3169382640335243],2017_Feb_23_1634,60.0514519629,famFaceGrey,001,23,
66,./greyInner/EmmaWatson(HermioneGranger)11_2_cut.png,0,18,18,65,,,None,None,2,4.43216877028,None,None,None,None,None,None,2,4.28199784373,,['return'],[1.0499092037953233],2017_Feb_23_1634,60.0514519629,famFaceGrey,001,23,
90,./greyInner/Ice-T(OdafinFinTutuola)7_1_cut.png,0,19,19,89,,,None,None,1,13.6123224935,None,None,None,None,None,None,2,4.1156972382,,['return'],[0.7333600434467371],2017_Feb_23_1634,60.0514519629,famFaceGrey,001,23,
105,./greyInner/JimParsons(SheldonCooper)9_3_cut.png,0,20,20,104,,,None,None,1,7.34753887909,None,None,None,None,None,None,1,1.54994208354,,['return'],[0.7668707563079806],2017_Feb_23_1634,60.0514519629,famFaceGrey,001,23,
143,./greyInner/MariskaHargitay(Liv)4_4_cut.png,0,21,21,142,,,None,None,2,7.56419039969,None,None,None,None,None,None,3,3.73231334491,,['return'],[1.1664789580881916],2017_Feb_23_1634,60.0514519629,famFaceGrey,001,23,
54,./greyInner/DannFlorek(DonaldDonCragen)5_1_cut.png,0,22,22,53,,,None,None,2,3.83186935611,None,None,None,None,None,None,4,4.09858277082,,['return'],[0.9501982568290259],2017_Feb_23_1634,60.0514519629,famFaceGrey,001,23,
134,./greyInner/LeonardoDiCaprio4_1_cut.png,0,23,23,133,,,None,None,1,2.5159809984,None,None,None,None,None,None,1,1.46644967106,Leonard DiCaprio,"['lshift', 'l', 'e', 'o', 'n', 'a', 'r', 'd', 'space', 'lshift', 'd', 'i', 'lshift', 'c', 'a', 'r', 'backspace', 'p', 'r', 'i', 'o', 'return']","[1.366318504942683, 1.6494634507162118, 1.9162047731115308, 2.1493413946973305, 2.465889913488354, 2.615988664989345, 2.782658485972206, 2.98252048728682, 3.199043375918336, 3.5488924979963485, 3.682277113035525, 4.0985433151308825, 6.864291348521874, 7.04736575521747, 7.197480866394471, 7.713889782611659, 8.480249860380354, 8.796805757065158, 9.146728658079155, 9.46312641122131, 9.646541804908338, 12.162149096961002]",2017_Feb_23_1634,60.0514519629,famFaceGrey,001,23,
53,./greyInner/DannFlorek(DonaldDonCragen)2_1_cut.png,0,24,24,52,,,None,None,2,2.84900627795,None,None,None,None,None,None,4,1.666241422,,['return'],[0.9335556538571836],2017_Feb_23_1634,60.0514519629,famFaceGrey,001,23,
115,./greyInner/JoshRadnor(Ted)9_1_cut.png,0,25,25,114,,,None,None,1,13.645008807,None,None,None,None,None,None,1,1.81599822417,Ted Mosby,"['lshift', 't', 'e', 's', 'space', 'lshift', 'm', 'o', 's', 'b', 'y', 'backspace', 'backspace', 'backspace', 'backspace', 'backspace', 'backspace', 'backspace', 'd', 'space', 'lshift', 'm', 'o', 's', 'b', 'y', 'return']","[2.7165073309006402, 2.8498034112180903, 3.083070268661686, 3.382915878222775, 3.599324249114943, 3.9490742508005496, 4.0825133980943065, 4.3157507439646, 4.4823191991072235, 4.765633836432244, 5.032246526858216, 13.778641062597671, 14.411752535188498, 14.544894642078361, 14.711622523875121, 14.861591681072241, 14.994724806178056, 15.361179320983865, 16.160695651951755, 16.427564323203114, 16.993883405546512, 17.060658473783405, 17.27729363470644, 17.443778687576923, 17.943617496643128, 18.143585996245747, 20.39263031845985]",2017_Feb_23_1634,60.0514519629,famFaceGrey,001,23,
71,./greyInner/GuentherJauch2_1_cut.png,0,26,26,70,,,None,None,1,17.9430234158,None,None,None,None,None,None,3,3.36569298789,Günther Jauch,"['lshift', 'g', u'\xfc', 'n', 't', 'h', 'e', 'r', 'space', 'lshift', 'j', 'a', 'u', 'c', 'h', 'return']","[5.764469412377366, 5.847783151521071, 6.7309696059655835, 7.264065392515477, 7.497210675106544, 7.697417512745233, 7.830524013279501, 7.947114618140404, 8.08056306799699, 8.446848532808872, 8.713403803978508, 8.913578563819101, 9.113401750999401, 9.346658022768679, 9.563203365858499, 11.495645278580923]",2017_Feb_23_1634,60.0514519629,famFaceGrey,001,23,
25,./greyInner/BenedictCumberbatch6_5_cut.png,0,27,27,24,,,None,None,1,6.06477020588,None,None,None,None,None,None,2,13.2616133657,,['return'],[0.950131214231078],2017_Feb_23_1634,60.0514519629,famFaceGrey,001,23,
44,./greyInner/CobieSmulders(Robin)4_7_cut.png,0,28,28,43,,,None,None,1,8.44859613122,None,None,None,None,None,None,1,2.06628588183,Robin ,"['lshift', 'r', 'o', 'b', 'i', 'n', 'space', 'return']","[1.3831542162570258, 1.616312329966604, 2.132806573124981, 2.9325849796987313, 3.265683717405409, 3.6489739435255615, 3.981847815870424, 5.29829849737871]",2017_Feb_23_1634,60.0514519629,famFaceGrey,001,23,
77,./greyInner/GeorgeClooney15_1_cut.png,0,29,29,76,,,None,None,2,4.96529535151,None,None,None,None,None,None,1,3.88188377508,,['return'],[0.5501185114226246],2017_Feb_23_1634,60.0514519629,famFaceGrey,001,23,
170,./greyInner/RobertSeanLeonard(Wilson)8_1_cut.png,0,30,30,169,,,None,None,2,8.68027417535,None,None,None,None,None,None,5,3.91533321935,,['return'],[0.9835238807991118],2017_Feb_23_1634,60.0514519629,famFaceGrey,001,23,
155,./greyInner/NeilPatrickHarris(Barney)3_7_cut.png,0,31,31,154,,,None,None,1,4.7321401248,None,None,None,None,None,None,1,0.650291378675,Barney ,"['lshift', 'b', 'a', 'r', 'n', 'e', 'y', 'space', 'return']","[1.3165578213520348, 1.3834018568541069, 1.5831984194628603, 1.7826918468817894, 2.216319194614698, 2.4329784138863033, 2.98240949810679, 4.748606941442631, 7.797344664066259]",2017_Feb_23_1634,60.0514519629,famFaceGrey,001,23,
127,./greyInner/KatjaBurkard10_1_cut.png,0,32,32,126,,,None,None,1,9.86270927154,None,None,None,None,None,None,1,1.1499341924,,['return'],[0.9668174430080398],2017_Feb_23_1634,60.0514519629,famFaceGrey,001,23,
73,./greyInner/GuentherJauch4_1_cut.png,0,33,33,72,,,None,None,1,5.23166136367,None,None,None,None,None,None,3,4.0651166461,Günther Jauch,"['lshift', 'g', u'\xfc', 'n', 't', 'h', 'e', 'r', 'space', 'lshift', 'j', 'a', 'u', 'c', 'h', 'return']","[1.4167486521710089, 2.1664048583752447, 2.682888515861123, 3.0326333850971423, 3.282569470084127, 3.4824738140923728, 3.615763158071786, 3.698992853387608, 3.8490739620992827, 4.198877854483726, 4.348873636252392, 4.515428297943799, 4.6653656981216045, 4.865369804079819, 5.048716872055593, 10.062964225879114]",2017_Feb_23_1634,60.0514519629,famFaceGrey,001,23,
204,./greyInner/Usher4_1_cut.png,0,34,34,203,,,None,None,1,10.7459425596,None,None,None,None,None,None,2,4.53184282777,Usher,"['lshift', 'u', 's', 'h', 'e', 'r', 'return']","[1.3497432653457508, 1.6496632953967492, 2.182834785548039, 2.3825261329784553, 2.5158895766726346, 2.6159973259946128, 3.0324258417458623]",2017_Feb_23_1634,60.0514519629,famFaceGrey,001,23,
176,./greyInner/Shakira1_1_cut.png,0,35,35,175,,,None,None,2,8.04693944129,None,None,None,None,None,None,1,6.16434867155,,['return'],[1.1333105153280485],2017_Feb_23_1634,60.0514519629,famFaceGrey,001,23,
49,./greyInner/CristinMilioti(Tracy_Mutter)8_1_cut.png,0,36,36,48,,,None,None,1,9.3799448326,None,None,None,None,None,None,1,2.4160082966,,['return'],[0.583469797631551],2017_Feb_23_1634,60.0514519629,famFaceGrey,001,23,
93,./greyInner/JanHofer5_1_cut.png,0,37,37,92,,,None,None,2,4.39855893702,None,None,None,None,None,None,3,10.6460709028,,['return'],[0.6999099576205481],2017_Feb_23_1634,60.0514519629,famFaceGrey,001,23,
168,./greyInner/RobertSeanLeonard(Wilson)11_2_cut.png,0,38,38,167,,,None,None,2,12.4617852385,None,None,None,None,None,None,1,1.28331688277,,['return'],[0.9667459095198865],2017_Feb_23_1634,60.0514519629,famFaceGrey,001,23,
122,./greyInner/KaleyCuoco(Penny)14_2_cut.png,0,39,39,121,,,None,None,1,12.9951058904,None,None,None,None,None,None,1,1.83313803301,,['return'],[4.381773267068638],2017_Feb_23_1634,60.0514519629,famFaceGrey,001,23,
113,./greyInner/JoshRadnor(Ted)6_2_cut.png,0,40,40,112,,,None,None,1,11.2125583936,None,None,None,None,None,None,1,3.31556340963,,['return'],[0.7337497886874189],2017_Feb_23_1634,60.0514519629,famFaceGrey,001,23,
18,./greyInner/BastianSchweinsteiger14_1_cut.png,0,41,41,17,,,None,None,2,7.28074552651,None,None,None,None,None,None,5,4.03168131606,,['return'],[1.133573553266615],2017_Feb_23_1634,60.0514519629,famFaceGrey,001,23,
55,./greyInner/DannFlorek(DonaldDonCragen)8_1_cut.png,0,42,42,54,,,None,None,2,5.53090423141,None,None,None,None,None,None,4,3.81555490901,,['return'],[0.9499653720176866],2017_Feb_23_1634,60.0514519629,famFaceGrey,001,23,
139,./greyInner/LisaEdelstein(DrLisaCuddy)6_3_cut.png,0,43,43,138,,,None,None,2,9.24658138891,None,None,None,None,None,None,5,10.5296570466,,['return'],[0.5334178476368834],2017_Feb_23_1634,60.0514519629,famFaceGrey,001,23,
8,./greyInner/AngelaMerkel4_1_cut.png,0,44,44,7,,,None,None,2,17.7766102172,None,None,None,None,None,None,4,2.89909094729,,['return'],[0.7500607072324783],2017_Feb_23_1634,60.0514519629,famFaceGrey,001,23,
201,./greyInner/Usher1_1_cut.png,0,45,45,200,,,None,None,2,11.0123210821,None,None,None,None,None,None,2,3.21597243362,,['return'],[0.35023886732051324],2017_Feb_23_1634,60.0514519629,famFaceGrey,001,23,
210,./greyInner/WillSmith6_1_cut.png,0,46,46,209,,,None,None,1,12.0617625916,None,None,None,None,None,None,1,1.10001568604,Will Smith,"['lshift', 'w', 'i', 'l', 'l', 'space', 'lshift', 's', 'm', 'i', 't', 'h', 'return']","[6.480922531798569, 6.564323201775551, 7.1474613149785, 7.563855828262604, 7.747073301938144, 8.063706506114613, 8.263507880392353, 8.580173803922662, 8.946500328316688, 9.213306127083342, 9.546518420194843, 9.79625658517034, 11.245694117027597]",2017_Feb_23_1634,60.0514519629,famFaceGrey,001,23,
222,./greyInner/notfamousface7_cut.png,0,47,47,221,,,None,None,2,6.13137173324,None,None,None,None,None,None,5,4.26545436115,,['return'],[1.2834737432003749],2017_Feb_23_1634,60.0514519629,famFaceGrey,001,23,
45,./greyInner/CobieSmulders(Robin)5_1_cut.png,0,48,48,44,,,None,None,2,8.66328192438,None,None,None,None,None,None,1,3.96479814565,,['return'],[0.8832810839467129],2017_Feb_23_1634,60.0514519629,famFaceGrey,001,23,
78,./greyInner/GeorgeClooney16_1_cut.png,0,49,49,77,,,None,None,2,3.83215581085,None,None,None,None,None,None,3,5.68171414769,,['return'],[0.7667992228198273],2017_Feb_23_1634,60.0514519629,famFaceGrey,001,23,
194,./greyInner/TomCruise6_1_cut.png,0,50,50,193,,,None,None,1,8.16350855403,None,None,None,None,None,None,1,0.733309360527,,['return'],[23.807674677242176],2017_Feb_23_1634,60.0514519629,famFaceGrey,001,23,
50,./greyInner/CristinMilioti(Tracy_Mutter)9_1_cut.png,0,51,51,49,,,None,None,1,7.36430786859,None,None,None,None,None,None,1,0.916316724626,,['return'],[1.1500519179153343],2017_Feb_23_1634,60.0514519629,famFaceGrey,001,23,
70,./greyInner/EmmaWatson(HermioneGranger)9_1_cut.png,0,52,52,69,,,None,None,2,4.831693249,None,None,None,None,None,None,1,6.44780573429,,['return'],[1.4334310316135088],2017_Feb_23_1634,60.0514519629,famFaceGrey,001,23,
86,./greyInner/Ice-T(OdafinFinTutuola)10_1_cut.png,0,53,53,85,,,None,None,1,9.7794013064,None,None,None,None,None,None,1,0.866310004329,,['return'],[1.116658609793376],2017_Feb_23_1634,60.0514519629,famFaceGrey,001,23,
198,./greyInner/UrsulavonderLeyen5_1_cut.png,0,54,54,197,,,None,None,1,6.4477502397,None,None,None,None,None,None,4,2.71622344239,,['return'],[1.0669717051368934],2017_Feb_23_1634,60.0514519629,famFaceGrey,001,23,
23,./greyInner/BenedictCumberbatch3_9_cut.png,0,55,55,22,,,None,None,1,8.63018629823,None,None,None,None,None,None,2,1.88282205066,,['return'],[0.8001787374887499],2017_Feb_23_1634,60.0514519629,famFaceGrey,001,23,
179,./greyInner/Shakira7_1_cut.png,0,56,56,178,,,None,None,1,9.99613270071,None,None,None,None,None,None,1,6.91391570147,,['return'],[1.2000442032058345],2017_Feb_23_1634,60.0514519629,famFaceGrey,001,23,
116,./greyInner/JudithRakers1_1_cut.png,0,57,57,115,,,None,None,2,4.21523785206,None,None,None,None,None,None,3,5.34812044956,,['return'],[0.5834768547465501],2017_Feb_23_1634,60.0514519629,famFaceGrey,001,23,
21,./greyInner/BenedictCumberbatch16_1_cut.png,0,58,58,20,,,None,None,2,8.5966576218,None,None,None,None,None,None,1,6.06462104413,,['return'],[0.8165711336387176],2017_Feb_23_1634,60.0514519629,famFaceGrey,001,23,
40,./greyInner/CarenMiosga9_1_cut.png,0,59,59,39,,,None,None,2,1.64944356248,None,None,None,None,None,None,4,5.51487591827,,['return'],[0.6335268800721678],2017_Feb_23_1634,60.0514519629,famFaceGrey,001,23,
2,./greyInner/AlysonHannigan(Lily)12_2_cut.png,0,60,60,1,,,None,None,2,6.08121360573,None,None,None,None,None,None,3,2.54941440376,,['return'],[1.0663125063947518],2017_Feb_23_1634,60.0514519629,famFaceGrey,001,23,
19,./greyInner/BastianSchweinsteiger3_1_cut.png,0,61,61,18,,,None,None,2,3.78213401398,None,None,None,None,None,None,3,4.28189711945,,['return'],[0.533755306068997],2017_Feb_23_1634,60.0514519629,famFaceGrey,001,23,
181,./greyInner/SigmarGabriel1_2_cut.png,0,62,62,180,,,None,None,1,15.977185308,None,None,None,None,None,None,4,1.84928375089,,['return'],[0.41731899541264283],2017_Feb_23_1634,60.0514519629,famFaceGrey,001,23,
167,./greyInner/RobertSeanLeonard(Wilson)10_1_cut.png,0,63,63,166,,,None,None,1,4.66511356663,None,None,None,None,None,None,1,1.43319558058,,['return'],[1.2004605730198818],2017_Feb_23_1634,60.0514519629,famFaceGrey,001,23,
123,./greyInner/KaleyCuoco(Penny)3_1_cut.png,0,64,64,122,,,None,None,1,5.86481710362,None,None,None,None,None,None,1,0.883525837542,,['return'],[0.45060388057936507],2017_Feb_23_1634,60.0514519629,famFaceGrey,001,23,
82,./greyInner/HughLaurie(DrHouse)4_1_cut.png,0,65,65,81,,,None,None,2,4.23217204221,None,None,None,None,None,None,2,4.69837631812,,['return'],[0.6665644454187714],2017_Feb_23_1634,60.0514519629,famFaceGrey,001,23,
187,./greyInner/TaylorSwift2_1_cut.png,0,66,66,186,,,None,None,2,6.26453533225,None,None,None,None,None,None,1,1.6163803349,,['return'],[0.6999551873177552],2017_Feb_23_1634,60.0514519629,famFaceGrey,001,23,
30,./greyInner/Beyonce8_3_cut.png,0,67,67,29,,,None,None,2,4.18215249079,None,None,None,None,None,None,5,6.76428271959,,['return'],[0.783567570757441],2017_Feb_23_1634,60.0514519629,famFaceGrey,001,23,
163,./greyInner/OmarEpps(DrEricForeman)3_1_cut.png,0,68,68,162,,,None,None,2,7.11416969347,None,None,None,None,None,None,2,2.44933680757,,['return'],[0.5168730819477787],2017_Feb_23_1634,60.0514519629,famFaceGrey,001,23,
121,./greyInner/KaleyCuoco(Penny)10_1_cut.png,0,69,69,120,,,None,None,1,6.13134414633,None,None,None,None,None,None,1,0.933240008328,,['return'],[0.40070847023889655],2017_Feb_23_1634,60.0514519629,famFaceGrey,001,23,
103,./greyInner/JimParsons(SheldonCooper)6_1_cut.png,0,70,70,102,,,None,None,2,1.74964080886,None,None,None,None,None,None,3,2.84900274939,,['return'],[0.5004248704299243],2017_Feb_23_1634,60.0514519629,famFaceGrey,001,23,
62,./greyInner/EmilyDeschanel3_1_cut.png,0,71,71,61,,,None,None,1,7.69720130839,None,None,None,None,None,None,1,1.13319278981,,['return'],[0.5168236821391474],2017_Feb_23_1634,60.0514519629,famFaceGrey,001,23,
191,./greyInner/TomCruise1_1_cut.png,0,72,72,190,,,None,None,1,4.78174009863,None,None,None,None,None,None,1,3.03267476546,,['return'],[0.6837039334768633],2017_Feb_23_1634,60.0514519629,famFaceGrey,001,23,
69,./greyInner/EmmaWatson(HermioneGranger)4_1_cut.png,0,73,73,68,,,None,None,2,3.34923066214,None,None,None,None,None,None,1,4.36529843098,,['return'],[1.3163711285706086],2017_Feb_23_1634,60.0514519629,famFaceGrey,001,23,
211,./greyInner/notfamousface10_4_cut.png,0,74,74,210,,,None,None,2,3.73206057186,None,None,None,None,None,None,3,8.86343455055,,['return'],[0.8667058443515998],2017_Feb_23_1634,60.0514519629,famFaceGrey,001,23,
199,./greyInner/UrsulavonderLeyen7_1_cut.png,0,75,75,198,,,None,None,2,4.18203893539,None,None,None,None,None,None,1,2.39932655872,,['return'],[0.8835210258730513],2017_Feb_23_1634,60.0514519629,famFaceGrey,001,23,
58,./greyInner/ElvisPresley4_10_cut.png,0,76,76,57,,,None,None,1,5.66530795808,None,None,None,None,None,None,2,2.44915364335,Elvis,"['lshift', 'e', 'l', 'v', 'i', 's', 'return']","[3.6995051358153432, 4.365947044047061, 4.915702114023588, 5.315471025569423, 5.565335897845216, 5.865288647250054, 6.764529397858496]",2017_Feb_23_1634,60.0514519629,famFaceGrey,001,23,
126,./greyInner/KatjaBurkard1_1_cut.png,0,77,77,125,,,None,None,2,3.29905296718,None,None,None,None,None,None,3,3.31583542935,,['return'],[1.3166258262845076],2017_Feb_23_1634,60.0514519629,famFaceGrey,001,23,
117,./greyInner/JudithRakers2_1_cut.png,0,78,78,116,,,None,None,2,2.99911850212,None,None,None,None,None,None,4,10.5795360973,,['return'],[0.5003029747986147],2017_Feb_23_1634,60.0514519629,famFaceGrey,001,23,
180,./greyInner/Shakira9_1_cut.png,0,79,79,179,,,None,None,2,5.69826532894,None,None,None,None,None,None,1,3.26598075781,,['return'],[0.5501297386526858],2017_Feb_23_1634,60.0514519629,famFaceGrey,001,23,
106,./greyInner/JoachimLoew1_1_cut.png,0,80,80,105,,,None,None,1,18.676245204,None,None,None,None,None,None,5,3.83189020668,Joachim Löw,"['lshift', 'j', 'o', 'a', 'c', 'h', 'i', 'm', 'space', 'lshift', 'l', u'\xf6', 'w', 'return']","[2.2827468603045418, 2.3994054700979177, 2.6326351172974682, 2.782583103147772, 3.0990604092294234, 3.2655121011885058, 3.6488789932445798, 3.9321442307591497, 4.14868604529147, 7.080777347686308, 7.280796209430264, 7.98042580710171, 8.313632646984843, 11.345704349845619]",2017_Feb_23_1634,60.0514519629,famFaceGrey,001,23,
47,./greyInner/CristinMilioti(Tracy_Mutter)2_1_cut.png,0,81,81,46,,,None,None,1,6.84756630561,None,None,None,None,None,None,1,0.999884199151,,['return'],[0.43396544772076595],2017_Feb_23_1634,60.0514519629,famFaceGrey,001,23,
76,./greyInner/GeorgeClooney11_1_cut.png,0,82,82,75,,,None,None,1,2.915850955,None,None,None,None,None,None,1,1.69987948371,,['return'],[0.3669292662107182],2017_Feb_23_1634,60.0514519629,famFaceGrey,001,23,
172,./greyInner/SahraWagenknecht2_2_cut.png,0,83,83,171,,,None,None,1,3.49921649979,None,None,None,None,None,None,4,2.74928795309,,['return'],[0.18375060667131038],2017_Feb_23_1634,60.0514519629,famFaceGrey,001,23,
144,./greyInner/MariskaHargitay(Liv)6_5_cut.png,0,84,84,143,,,None,None,2,5.83131858033,None,None,None,None,None,None,1,4.23220764857,,['return'],[0.7997344599898497],2017_Feb_23_1634,60.0514519629,famFaceGrey,001,23,
148,./greyInner/MilaKunis4_1_cut.png,0,85,85,147,,,None,None,2,3.69879493338,None,None,None,None,None,None,2,3.9153980165,,['return'],[0.4335731362552906],2017_Feb_23_1634,60.0514519629,famFaceGrey,001,23,
213,./greyInner/notfamousface12_2_cut.png,0,86,86,212,,,None,None,2,3.46578662298,None,None,None,None,None,None,5,4.44863751158,,['return'],[0.9332849172442366],2017_Feb_23_1634,60.0514519629,famFaceGrey,001,23,
43,./greyInner/CobieSmulders(Robin)3_4_cut.png,0,87,87,42,,,None,None,1,5.31515538004,None,None,None,None,None,None,1,1.13356040137,,['return'],[2.8991724248990067],2017_Feb_23_1634,60.0514519629,famFaceGrey,001,23,
37,./greyInner/CarenMiosga13_1_cut.png,0,88,88,36,,,None,None,2,4.18203123672,None,None,None,None,None,None,4,7.4306303191,,['return'],[0.26693122295728244],2017_Feb_23_1634,60.0514519629,famFaceGrey,001,23,
190,./greyInner/TaylorSwift8_1_cut.png,0,89,89,189,,,None,None,1,4.56466258487,None,None,None,None,None,None,2,1.86659100584,,['return'],[0.26732866686870693],2017_Feb_23_1634,60.0514519629,famFaceGrey,001,23,
16,./greyInner/BastianSchweinsteiger1_1_cut.png,0,90,90,15,,,None,None,1,2.9483707847,None,None,None,None,None,None,5,4.48164877314,,['return'],[0.5668249492136965],2017_Feb_23_1634,60.0514519629,famFaceGrey,001,23,
130,./greyInner/KatjaBurkard7_1_cut.png,0,91,91,129,,,None,None,2,10.646167457,None,None,None,None,None,None,3,4.33208989097,,['return'],[0.683406893069332],2017_Feb_23_1634,60.0514519629,famFaceGrey,001,23,
39,./greyInner/CarenMiosga6_2_cut.png,0,92,92,38,,,None,None,2,4.18197670446,None,None,None,None,None,None,4,3.2320555998,,['return'],[0.7999378332278866],2017_Feb_23_1634,60.0514519629,famFaceGrey,001,23,
67,./greyInner/EmmaWatson(HermioneGranger)16_1_cut.png,0,93,93,66,,,None,None,2,5.71500352375,None,None,None,None,None,None,1,2.96585639219,,['return'],[1.0501722417338897],2017_Feb_23_1634,60.0514519629,famFaceGrey,001,23,
14,./greyInner/BarackObama4_1_cut.png,0,94,94,13,,,None,None,1,5.59806519556,None,None,None,None,None,None,4,3.41536674065,,['return'],[0.8669332759345707],2017_Feb_23_1634,60.0514519629,famFaceGrey,001,23,
79,./greyInner/GeorgeClooney3_1_cut.png,0,95,95,78,,,None,None,2,4.99827421449,None,None,None,None,None,None,1,1.14980588121,,['return'],[0.4669683690462989],2017_Feb_23_1634,60.0514519629,famFaceGrey,001,23,
28,./greyInner/Beyonce3_2_cut.png,0,96,96,27,,,None,None,1,10.4126279383,None,None,None,None,None,None,1,0.850191873347,,['return'],[0.899936518038885],2017_Feb_23_1634,60.0514519629,famFaceGrey,001,23,
10,./greyInner/AngelaMerkel6_1_cut.png,0,97,97,9,,,None,None,2,4.39891371746,None,None,None,None,None,None,4,2.49943911971,,['return'],[0.7001158970833785],2017_Feb_23_1634,60.0514519629,famFaceGrey,001,23,
88,./greyInner/Ice-T(OdafinFinTutuola)5_1_cut.png,0,98,98,87,,,None,None,1,5.66477386275,None,None,None,None,None,None,2,4.34871741738,,['return'],[0.6504132743048103],2017_Feb_23_1634,60.0514519629,famFaceGrey,001,23,
133,./greyInner/LeonardoDiCaprio3_1_cut.png,0,99,99,132,,,None,None,1,2.7324038043,None,None,None,None,None,None,1,5.66472895384,,['return'],[0.8333195933446405],2017_Feb_23_1634,60.0514519629,famFaceGrey,001,23,
3,./greyInner/AlysonHannigan(Lily)14_2_cut.png,0,100,100,2,,,None,None,1,5.69804142591,None,None,None,None,None,None,1,1.03323452302,,['return'],[0.7671062073422945],2017_Feb_23_1634,60.0514519629,famFaceGrey,001,23,
206,./greyInner/WillSmith1_1_cut.png,0,101,101,205,,,None,None,1,2.88258756196,None,None,None,None,None,None,1,4.81516131443,,['return'],[0.7170430301193846],2017_Feb_23_1634,60.0514519629,famFaceGrey,001,23,
173,./greyInner/SahraWagenknecht5_1_cut.png,0,102,102,172,,,None,None,2,4.79801669393,None,None,None,None,None,None,5,10.2128997014,,['return'],[0.5334929096843553],2017_Feb_23_1634,60.0514519629,famFaceGrey,001,23,
32,./greyInner/BritneySpears14_2_cut.png,0,103,103,31,,,None,None,1,7.03088354123,None,None,None,None,None,None,2,1.54973165318,,['return'],[0.38353177193675947],2017_Feb_23_1634,60.0514519629,famFaceGrey,001,23,
61,./greyInner/EmilyDeschanel15_1_cut.png,0,104,104,60,,,None,None,2,4.31490164466,None,None,None,None,None,None,1,1.98280886669,,['return'],[0.6001457615129766],2017_Feb_23_1634,60.0514519629,famFaceGrey,001,23,
193,./greyInner/TomCruise5_1_cut.png,0,105,105,192,,,None,None,1,5.53144666697,None,None,None,None,None,None,1,1.31658893682,,['return'],[0.5001820415018301],2017_Feb_23_1634,60.0514519629,famFaceGrey,001,23,
220,./greyInner/notfamousface5_1_cut.png,0,106,106,219,,,None,None,2,4.21690878454,None,None,None,None,None,None,4,2.31632910666,,['return'],[3.9322735042842396],2017_Feb_23_1634,60.0514519629,famFaceGrey,001,23,
85,./greyInner/HughLaurie(DrHouse)9_2_cut.png,0,107,107,84,,,None,None,2,5.26465851099,None,None,None,None,None,None,5,9.99640921133,,['return'],[0.7168884151360544],2017_Feb_23_1634,60.0514519629,famFaceGrey,001,23,
159,./greyInner/NicoleKidman7_1_cut.png,0,108,108,158,,,None,None,1,6.28100182811,None,None,None,None,None,None,1,0.733448578167,,['return'],[0.45040146967585315],2017_Feb_23_1634,60.0514519629,famFaceGrey,001,23,
183,./greyInner/SigmarGabriel3_3_cut.png,0,109,109,182,,,None,None,1,4.03227732154,None,None,None,None,None,None,4,1.93330576781,,['return'],[0.7835290774019086],2017_Feb_23_1634,60.0514519629,famFaceGrey,001,23,
104,./greyInner/JimParsons(SheldonCooper)8_1_cut.png,0,110,110,103,,,None,None,1,6.08107374653,None,None,None,None,None,None,1,0.850329807876,,['return'],[0.7168002011931094],2017_Feb_23_1634,60.0514519629,famFaceGrey,001,23,
156,./greyInner/NicoleKidman14_1_cut.png,0,111,111,155,,,None,None,1,6.4642802496,None,None,None,None,None,None,1,0.983168458799,Nicole Kidman,"['lshift', 'n', 'i', 'c', 'o', 'l', 'e', 'space', 'lshift', 'k', 'i', 'd', 'm', 'a', 'n', 'return']","[0.9668100651142595, 1.2000445239827968, 1.649708204313356, 1.8995313754530798, 2.199650929405834, 2.3992646485658042, 2.56621386716688, 2.749391885150544, 3.099239403340107, 3.7490794474015274, 4.015699194942499, 4.348661602009088, 4.665159758658774, 4.815123462631163, 4.948384898927543, 7.414107045535275]",2017_Feb_23_1634,60.0514519629,famFaceGrey,001,23,
74,./greyInner/GuentherJauch7_1_cut.png,0,112,112,73,,,None,None,1,6.18111060393,None,None,None,None,None,None,3,3.08278060615,Günther Jauch,"['lshift', 'g', u'\xfc', 'n', 't', 'h', 'e', 'r', 'space', 'lshift', 'j', 'a', 'u', 'c', 'h', 'return']","[1.183238003464794, 1.5663688029289915, 2.0995579358695977, 2.4328042314464255, 2.699371371398229, 2.9159189599340607, 3.0657267658098135, 3.182423227404797, 3.3323741002568568, 3.7653932529483427, 3.88211216900163, 4.098684457439958, 4.215217322267563, 4.448538391188777, 4.631905988955623, 9.196654542327451]",2017_Feb_23_1634,60.0514519629,famFaceGrey,001,23,
186,./greyInner/TaylorSwift1_2_cut.png,0,113,113,185,,,None,None,2,11.7121065778,None,None,None,None,None,None,2,2.98253011063,,['return'],[1.3665995064511662],2017_Feb_23_1634,60.0514519629,famFaceGrey,001,23,
157,./greyInner/NicoleKidman3_1_cut.png,0,114,114,156,,,None,None,1,7.76371494258,None,None,None,None,None,None,1,1.24980969847,,['return'],[0.583712305782683],2017_Feb_23_1634,60.0514519629,famFaceGrey,001,23,
17,./greyInner/BastianSchweinsteiger12_1_cut.png,0,115,115,16,,,None,None,2,4.0323783666,None,None,None,None,None,None,1,0.850107187962,,['return'],[0.6001874626490462],2017_Feb_23_1634,60.0514519629,famFaceGrey,001,23,
131,./greyInner/LeonardoDiCaprio1_1_cut.png,0,116,116,130,,,None,None,1,6.38116507203,None,None,None,None,None,None,1,1.0332451087,,['return'],[0.5667790779625648],2017_Feb_23_1634,60.0514519629,famFaceGrey,001,23,
208,./greyInner/WillSmith4_1_cut.png,0,117,117,207,,,None,None,1,2.86620895927,None,None,None,None,None,None,1,1.81621988176,,['return'],[0.5834303419396747],2017_Feb_23_1634,60.0514519629,famFaceGrey,001,23,
36,./greyInner/CarenMiosga1_1_cut.png,0,118,118,35,,,None,None,2,2.46575550752,None,None,None,None,None,None,4,5.58141200691,,['return'],[0.41688754903407244],2017_Feb_23_1634,60.0514519629,famFaceGrey,001,23,
46,./greyInner/CristinMilioti(Tracy_Mutter)10_1_cut.png,0,119,119,45,,,None,None,2,5.56451791401,None,None,None,None,None,None,1,2.13292365709,,['return'],[0.6166776960817515],2017_Feb_23_1634,60.0514519629,famFaceGrey,001,23,
15,./greyInner/BarackObama5_2_cut.png,0,120,120,14,,,None,None,1,9.76306761262,None,None,None,None,None,None,4,6.93095927692,,['return'],[0.35021994141970936],2017_Feb_23_1634,60.0514519629,famFaceGrey,001,23,
212,./greyInner/notfamousface11_1_cut.png,0,121,121,211,,,None,None,2,3.01586471638,None,None,None,None,None,None,1,1.44981540831,,['return'],[0.4836372758127254],2017_Feb_23_1634,60.0514519629,famFaceGrey,001,23,
102,./greyInner/JimParsons(SheldonCooper)10_1_cut.png,0,122,122,101,,,None,None,1,3.54889057333,None,None,None,None,None,None,1,0.749944264828,Sheldon,"['lshift', 's', 'h', 'e', 'l', 'd', 'o', 'n', 'return']","[1.0333455122035957, 1.682867665291269, 2.1494889525674807, 2.332894402135935, 2.616031649238721, 2.8993164542098384, 3.181814711584593, 3.549108381575934, 10.096442860942261]",2017_Feb_23_1634,60.0514519629,famFaceGrey,001,23,
145,./greyInner/MariskaHargitay(Liv)8_8_cut.png,0,123,123,144,,,None,None,2,3.53230378573,None,None,None,None,None,None,3,3.54890276289,,['return'],[0.9501777270379534],2017_Feb_23_1634,60.0514519629,famFaceGrey,001,23,
6,./greyInner/AngelaMerkel1_1_cut.png,0,124,124,5,,,None,None,1,5.78138788441,None,None,None,None,None,None,4,2.09968945484,,['return'],[0.7335855503642961],2017_Feb_23_1634,60.0514519629,famFaceGrey,001,23,
135,./greyInner/LeonardoDiCaprio7_1_cut.png,0,125,125,134,,,None,None,1,3.39887907344,None,None,None,None,None,None,1,0.78337863253,,['return'],[0.6168400097376434],2017_Feb_23_1634,60.0514519629,famFaceGrey,001,23,
42,./greyInner/CobieSmulders(Robin)2_1_cut.png,0,126,126,41,,,None,None,1,2.23274719712,None,None,None,None,None,None,1,0.616962867703,,['return'],[0.5335176095868519],2017_Feb_23_1634,60.0514519629,famFaceGrey,001,23,
34,./greyInner/BritneySpears7_1_cut.png,0,127,127,33,,,None,None,1,3.11572386277,None,None,None,None,None,None,2,1.16667816121,,['return'],[0.3172933652513166],2017_Feb_23_1634,60.0514519629,famFaceGrey,001,23,
128,./greyInner/KatjaBurkard4_1_cut.png,0,128,128,127,,,None,None,2,5.24827958752,None,None,None,None,None,None,3,3.98226803502,,['return'],[0.7334088016996247],2017_Feb_23_1634,60.0514519629,famFaceGrey,001,23,
24,./greyInner/BenedictCumberbatch4_1_cut.png,0,129,129,23,,,None,None,1,8.18038917426,None,None,None,None,None,None,1,0.983464536872,,['return'],[0.6833886087242718],2017_Feb_23_1634,60.0514519629,famFaceGrey,001,23,
223,./greyInner/notfamousface8_9_cut.png,0,130,130,222,,,None,None,2,3.01591956941,None,None,None,None,None,None,5,6.11470988359,,['return'],[0.6169782650467823],2017_Feb_23_1634,60.0514519629,famFaceGrey,001,23,
153,./greyInner/NeilPatrickHarris(Barney)13_4_cut.png,0,131,131,152,,,None,None,1,2.66595945815,None,None,None,None,None,None,1,1.36662099857,,['return'],[2.5160457955480524],2017_Feb_23_1634,60.0514519629,famFaceGrey,001,23,
83,./greyInner/HughLaurie(DrHouse)5_3_cut.png,0,132,132,82,,,None,None,1,3.51569486444,None,None,None,None,None,None,1,0.833363219148,,['return'],[0.5999969205313391],2017_Feb_23_1634,60.0514519629,famFaceGrey,001,23,
184,./greyInner/SigmarGabriel4_5_cut.png,0,133,133,183,,,None,None,1,1.40001238203,None,None,None,None,None,None,4,2.26642118597,,['return'],[0.3838435681282135],2017_Feb_23_1634,60.0514519629,famFaceGrey,001,23,
162,./greyInner/OmarEpps(DrEricForeman)2_2_cut.png,0,134,134,161,,,None,None,2,11.3623354048,None,None,None,None,None,None,2,3.66520851691,,['return'],[0.5335910677440552],2017_Feb_23_1634,60.0514519629,famFaceGrey,001,23,
95,./greyInner/JanHofer9_2_cut.png,0,135,135,94,,,None,None,2,2.99914897603,None,None,None,None,None,None,4,5.58127150616,,['return'],[0.48362027457915246],2017_Feb_23_1634,60.0514519629,famFaceGrey,001,23,
13,./greyInner/BarackObama2_1_cut.png,0,136,136,12,,,None,None,1,4.31534945072,None,None,None,None,None,None,4,4.26540175356,,['return'],[0.6502878501160012],2017_Feb_23_1634,60.0514519629,famFaceGrey,001,23,
120,./greyInner/JudithRakers8_1_cut.png,0,137,137,119,,,None,None,2,5.31496066781,None,None,None,None,None,None,3,7.84751754736,,['return'],[0.3331834230921231],2017_Feb_23_1634,60.0514519629,famFaceGrey,001,23,
221,./greyInner/notfamousface6_8_cut.png,0,138,138,220,,,None,None,2,2.84934758571,None,None,None,None,None,None,5,3.13244633946,,['return'],[0.5169163869759359],2017_Feb_23_1634,60.0514519629,famFaceGrey,001,23,
81,./greyInner/HughLaurie(DrHouse)2_1_cut.png,0,139,139,80,,,None,None,1,5.98127875574,None,None,None,None,None,None,1,0.766780617698,Dr House,"['lshift', 'd', 'r', 'period', 'space', 'lshift', 'h', 'i', 'u', 's', 'e', 'backspace', 'backspace', 'backspace', 'backspace', 'o', 'u', 's', 'e', 'return']","[1.8329904751390131, 1.999560854950687, 2.2328854524294, 2.982643024473873, 3.232495386411756, 3.798880549018577, 3.8822112893958547, 4.132102465468051, 4.331877535951207, 4.531949967617038, 4.731938355454986, 5.814718961602921, 5.998097465822866, 6.147964615624005, 6.281090683613002, 7.364000242509064, 7.6140463543433725, 7.847163729249587, 8.080554086214761, 9.196736982268703]",2017_Feb_23_1634,60.0514519629,famFaceGrey,001,23,
158,./greyInner/NicoleKidman5_1_cut.png,0,140,140,157,,,None,None,1,2.54949556059,None,None,None,None,None,None,1,1.03349499474,,['return'],[0.7334123302571243],2017_Feb_23_1634,60.0514519629,famFaceGrey,001,23,
137,./greyInner/LisaEdelstein(DrLisaCuddy)10_1_cut.png,0,141,141,136,,,None,None,2,4.48198077834,None,None,None,None,None,None,1,3.24900647041,,['return'],[0.5170729266264971],2017_Feb_23_1634,60.0514519629,famFaceGrey,001,23,
125,./greyInner/KaleyCuoco(Penny)7_1_cut.png,0,142,142,124,,,None,None,1,9.29666124659,None,None,None,None,None,None,1,4.19868955781,Penny,"['lshift', 'p', 'e', 'n', 'n', 'y', 'return']","[1.2331901915076742, 1.3497192069989978, 1.7828541605376813, 2.066237444349099, 2.2160548735628254, 3.582229669973458, 4.648427337853718]",2017_Feb_23_1634,60.0514519629,famFaceGrey,001,23,
33,./greyInner/BritneySpears5_1_cut.png,0,143,143,32,,,None,None,1,3.81549492353,None,None,None,None,None,None,2,1.59891974809,,['return'],[0.7505267976321193],2017_Feb_23_1634,60.0514519629,famFaceGrey,001,23,
101,./greyInner/JimParsons(SheldonCooper)1_1_cut.png,0,144,144,100,,,None,None,1,2.68252443286,None,None,None,None,None,None,1,0.466802526833,,['return'],[0.3836764428033348],2017_Feb_23_1634,60.0514519629,famFaceGrey,001,23,
178,./greyInner/Shakira3_1_cut.png,0,145,145,177,,,None,None,2,2.66599634762,None,None,None,None,None,None,1,2.06617457187,,['return'],[0.5502346330504224],2017_Feb_23_1634,60.0514519629,famFaceGrey,001,23,
169,./greyInner/RobertSeanLeonard(Wilson)2_6_cut.png,0,146,146,168,,,None,None,2,3.94853694769,None,None,None,None,None,None,1,0.900025373539,,['return'],[0.20037043440606794],2017_Feb_23_1634,60.0514519629,famFaceGrey,001,23,
112,./greyInner/JoshRadnor(Ted)3_1_cut.png,0,147,147,111,,,None,None,1,1.93271008311,None,None,None,None,None,None,1,1.14970868548,,['return'],[0.9496927107375086],2017_Feb_23_1634,60.0514519629,famFaceGrey,001,23,
100,./greyInner/JasonSegel(Marshall)9_1_cut.png,0,148,148,99,,,None,None,1,5.26503253811,None,None,None,None,None,None,1,0.549806715229,,['return'],[0.5170687565132539],2017_Feb_23_1634,60.0514519629,famFaceGrey,001,23,
192,./greyInner/TomCruise4_1_cut.png,0,149,149,191,,,None,None,1,1.63321572543,None,None,None,None,None,None,1,0.750034724217,,['return'],[0.28350967033293273],2017_Feb_23_1634,60.0514519629,famFaceGrey,001,23,
114,./greyInner/JoshRadnor(Ted)7_1_cut.png,0,150,150,113,,,None,None,1,1.24993031099,None,None,None,None,None,None,1,1.33339321189,,['return'],[0.3336722887288488],2017_Feb_23_1634,60.0514519629,famFaceGrey,001,23,
166,./greyInner/RobertSeanLeonard(Wilson)1_1_cut.png,0,151,151,165,,,None,None,2,2.74941754739,None,None,None,None,None,None,1,12.6788037291,,['return'],[0.3838179058911919],2017_Feb_23_1634,60.0514519629,famFaceGrey,001,23,
140,./greyInner/LisaEdelstein(DrLisaCuddy)9_1_cut.png,0,152,152,139,,,None,None,2,8.69678782558,None,None,None,None,None,None,3,1.29987512113,,['return'],[0.5334380566509935],2017_Feb_23_1634,60.0514519629,famFaceGrey,001,23,
56,./greyInner/ElvisPresley1_1_cut.png,0,153,153,55,,,None,None,1,6.93098910927,None,None,None,None,None,None,2,6.46430751573,,['return'],[3.8320226879841357],2017_Feb_23_1634,60.0514519629,famFaceGrey,001,23,
182,./greyInner/SigmarGabriel11_3_cut.png,0,154,154,181,,,None,None,2,3.51552324822,None,None,None,None,None,None,4,2.9493597432,,['return'],[0.3671541315707145],2017_Feb_23_1634,60.0514519629,famFaceGrey,001,23,
136,./greyInner/LisaEdelstein(DrLisaCuddy)1_1_cut.png,0,155,155,135,,,None,None,2,5.49813387412,None,None,None,None,None,None,1,1.08299584817,,['return'],[0.9001248147105798],2017_Feb_23_1634,60.0514519629,famFaceGrey,001,23,
97,./greyInner/JasonSegel(Marshall)14_1_cut.png,0,156,156,96,,,None,None,2,9.26329199681,None,None,None,None,None,None,1,0.633119171263,,['return'],[0.3666437738120294],2017_Feb_23_1634,60.0514519629,famFaceGrey,001,23,
110,./greyInner/JoachimLoew8_1_cut.png,0,157,157,109,,,None,None,1,3.13258908566,None,None,None,None,None,None,5,3.93208071672,,['return'],[0.666243346662668],2017_Feb_23_1634,60.0514519629,famFaceGrey,001,23,
75,./greyInner/GuentherJauch9_1_cut.png,0,158,158,74,,,None,None,1,3.8661560309,None,None,None,None,None,None,3,1.93256669536,,['return'],[0.8500507310363901],2017_Feb_23_1634,60.0514519629,famFaceGrey,001,23,
151,./greyInner/NeilPatrickHarris(Barney)1_1_cut.png,0,159,159,150,,,None,None,1,2.11606805754,None,None,None,None,None,None,1,5.36418436907,Barney,"['lshift', 'b', 'a', 'r', 'n', 'e', 'y', 'return']","[1.0832014668540069, 1.116583547747723, 1.5330601801942976, 1.7657105023681652, 2.698885392765078, 2.8658294789183856, 3.4154469351433363, 4.34862759954558]",2017_Feb_23_1634,60.0514519629,famFaceGrey,001,23,
89,./greyInner/Ice-T(OdafinFinTutuola)6_1_cut.png,0,160,160,88,,,None,None,1,6.7478341873,None,None,None,None,None,None,1,0.61694747036,,['return'],[0.33355905410280684],2017_Feb_23_1634,60.0514519629,famFaceGrey,001,23,
154,./greyInner/NeilPatrickHarris(Barney)2_2_cut.png,0,161,161,153,,,None,None,1,1.71648968811,None,None,None,None,None,None,1,1.06658677157,,['return'],[0.3837402776207455],2017_Feb_23_1634,60.0514519629,famFaceGrey,001,23,
41,./greyInner/CobieSmulders(Robin)12_1_cut.png,0,162,162,40,,,None,None,2,4.14872678409,None,None,None,None,None,None,1,0.916652899945,,['return'],[0.3504432028912561],2017_Feb_23_1634,60.0514519629,famFaceGrey,001,23,
196,./greyInner/UrsulavonderLeyen1_1_cut.png,0,163,163,195,,,None,None,1,2.89921861693,None,None,None,None,None,None,4,2.09945079603,,['return'],[0.4169735175328242],2017_Feb_23_1634,60.0514519629,famFaceGrey,001,23,
214,./greyInner/notfamousface1_2_cut.png,0,164,164,213,,,None,None,2,4.23202063501,None,None,None,None,None,None,2,1.99957240296,,['return'],[1.0832592068891245],2017_Feb_23_1634,60.0514519629,famFaceGrey,001,23,
138,./greyInner/LisaEdelstein(DrLisaCuddy)2_2_cut.png,0,165,165,137,,,None,None,2,4.24875401814,None,None,None,None,None,None,3,1.15037911145,,['return'],[0.5001714558293315],2017_Feb_23_1634,60.0514519629,famFaceGrey,001,23,
80,./greyInner/GeorgeClooney4_2_cut.png,0,166,166,79,,,None,None,1,1.48304864823,None,None,None,None,None,None,1,0.750160789961,,['return'],[0.36698155302110536],2017_Feb_23_1634,60.0514519629,famFaceGrey,001,23,
98,./greyInner/JasonSegel(Marshall)6_1_cut.png,0,167,167,97,,,None,None,1,1.93283614885,None,None,None,None,None,None,1,0.950004506929,,['return'],[0.7496590932059917],2017_Feb_23_1634,60.0514519629,famFaceGrey,001,23,
12,./greyInner/BarackObama11_2_cut.png,0,168,168,11,,,None,None,1,1.78358104343,None,None,None,None,None,None,4,2.44966817122,,['return'],[1.2168411003840447],2017_Feb_23_1634,60.0514519629,famFaceGrey,001,23,
92,./greyInner/JanHofer3_1_cut.png,0,169,169,91,,,None,None,2,7.11413986112,None,None,None,None,None,None,3,1.38285300574,,['return'],[0.46691159134388727],2017_Feb_23_1634,60.0514519629,famFaceGrey,001,23,
188,./greyInner/TaylorSwift3_1_cut.png,0,170,170,187,,,None,None,1,5.53140753206,None,None,None,None,None,None,2,1.98266644127,Taylor Swift,"['lshift', 't', 'a', 'y', 'l', 'o', 'r', 'space', 'lshift', 's', 'w', 'i', 'f', 't', 'return']","[1.0834157465415046, 1.2333842621828808, 1.5499007031776273, 1.9997475477321132, 2.3329434811657848, 2.5495042215989088, 2.8659388642081467, 2.999229170522085, 3.3658893040119438, 4.698613693819425, 5.131939831033378, 5.5148961272789165, 5.981502017211824, 6.181284144809979, 7.430838504007625]",2017_Feb_23_1634,60.0514519629,famFaceGrey,001,23,
203,./greyInner/Usher2_1_cut.png,0,171,171,202,,,None,None,2,2.89917659501,None,None,None,None,None,None,2,3.19914506254,,['return'],[0.9167071114225109],2017_Feb_23_1634,60.0514519629,famFaceGrey,001,23,
164,./greyInner/OmarEpps(DrEricForeman)5_2_cut.png,0,172,172,163,,,None,None,2,1.71636041459,None,None,None,None,None,None,1,1.98288841963,,['return'],[1.1499531182980718],2017_Feb_23_1634,60.0514519629,famFaceGrey,001,23,
219,./greyInner/notfamousface4_2_cut.png,0,173,173,218,,,None,None,2,3.79888279446,None,None,None,None,None,None,3,1.23337014795,,['return'],[0.6166472221739241],2017_Feb_23_1634,60.0514519629,famFaceGrey,001,23,
65,./greyInner/EmilyDeschanel8_3_cut.png,0,174,174,64,,,None,None,2,5.54817042677,None,None,None,None,None,None,1,0.800046256185,,['return'],[0.4835679877705843],2017_Feb_23_1634,60.0514519629,famFaceGrey,001,23,
171,./greyInner/SahraWagenknecht12_1_cut.png,0,175,175,170,,,None,None,2,4.1987043136,None,None,None,None,None,None,5,5.74766064641,,['return'],[0.3503200241484592],2017_Feb_23_1634,60.0514519629,famFaceGrey,001,23,
52,./greyInner/DannFlorek(DonaldDonCragen)10_1_cut.png,0,176,176,51,,,None,None,2,3.04912746786,None,None,None,None,None,None,4,2.56590303331,,['return'],[0.6169526028097607],2017_Feb_23_1634,60.0514519629,famFaceGrey,001,23,
1,./greyInner/AlysonHannigan(Lily)1_1_cut.png,0,177,177,0,,,None,None,2,8.79680575707,None,None,None,None,None,None,1,1.11669614082,,['return'],[0.5169109337493865],2017_Feb_23_1634,60.0514519629,famFaceGrey,001,23,
195,./greyInner/TomCruise7_1_cut.png,0,178,178,194,,,None,None,1,2.83249070305,None,None,None,None,None,None,1,1.33306505602,,['return'],[0.5668483660047059],2017_Feb_23_1634,60.0514519629,famFaceGrey,001,23,
48,./greyInner/CristinMilioti(Tracy_Mutter)4_2_cut.png,0,179,179,47,,,None,None,1,4.88155946855,None,None,None,None,None,None,1,0.816673461813,,['return'],[0.3003957437904319],2017_Feb_23_1634,60.0514519629,famFaceGrey,001,23,
165,./greyInner/OmarEpps(DrEricForeman)9_1_cut.png,0,180,180,164,,,None,None,2,3.38234874276,None,None,None,None,None,None,5,1.48307174424,,['return'],[0.30050384596688673],2017_Feb_23_1634,60.0514519629,famFaceGrey,001,23,
51,./greyInner/DannFlorek(DonaldDonCragen)1_1_cut.png,0,181,181,50,,,None,None,2,4.88176316256,None,None,None,None,None,None,4,6.19780260671,,['return'],[0.6338813397360354],2017_Feb_23_1634,60.0514519629,famFaceGrey,001,23,
185,./greyInner/SigmarGabriel8_2_cut.png,0,182,182,184,,,None,None,2,3.64906568603,None,None,None,None,None,None,1,14.1614838034,,['return'],[0.16730143281893106],2017_Feb_23_1634,60.0514519629,famFaceGrey,001,23,
216,./greyInner/notfamousface14_6_cut.png,0,183,183,215,,,None,None,2,2.58267138125,None,None,None,None,None,None,2,5.74813764326,,['return'],[0.6168913342135056],2017_Feb_23_1634,60.0514519629,famFaceGrey,001,23,
63,./greyInner/EmilyDeschanel5_1_cut.png,0,184,184,62,,,None,None,1,4.24873765847,None,None,None,None,None,None,1,0.683295262335,,['return'],[0.3503780849623581],2017_Feb_23_1634,60.0514519629,famFaceGrey,001,23,
38,./greyInner/CarenMiosga2_11_cut.png,0,185,185,37,,,None,None,2,3.31601666891,None,None,None,None,None,None,1,9.74633839959,,['return'],[0.30029117016965756],2017_Feb_23_1634,60.0514519629,famFaceGrey,001,23,
64,./greyInner/EmilyDeschanel6_12_cut.png,0,186,186,63,,,None,None,2,6.23148589812,None,None,None,None,None,None,1,0.317102823135,,['return'],[0.35053719083771284],2017_Feb_23_1634,60.0514519629,famFaceGrey,001,23,
91,./greyInner/JanHofer1_3_cut.png,0,187,187,90,,,None,None,2,2.53260467547,None,None,None,None,None,None,3,3.34901317467,,['return'],[0.5334390189836995],2017_Feb_23_1634,60.0514519629,famFaceGrey,001,23,
72,./greyInner/GuentherJauch3_1_cut.png,0,188,188,71,,,None,None,1,3.38229196506,None,None,None,None,None,None,3,2.69917665917,,['return'],[0.26691550483519677],2017_Feb_23_1634,60.0514519629,famFaceGrey,001,23,
160,./greyInner/NicoleKidman8_2_cut.png,0,189,189,159,,,None,None,2,14.1947176849,None,None,None,None,None,None,1,3.2158810119,,['return'],[1.1164934091357281],2017_Feb_23_1634,60.0514519629,famFaceGrey,001,23,
200,./greyInner/UrsulavonderLeyen8_2_cut.png,0,190,190,199,,,None,None,2,12.9950888892,None,None,None,None,None,None,1,2.51587161311,,['return'],[0.316745476467986],2017_Feb_23_1634,60.0514519629,famFaceGrey,001,23,
27,./greyInner/Beyonce11_2_cut.png,0,191,191,26,,,None,None,2,14.7277602223,None,None,None,None,None,None,2,4.51540584349,,['return'],[0.7499779465142637],2017_Feb_23_1634,60.0514519629,famFaceGrey,001,23,
161,./greyInner/OmarEpps(DrEricForeman)1_5_cut.png,0,192,192,160,,,None,None,2,5.33153879441,None,None,None,None,None,None,1,0.866237829283,,['return'],[0.5001089041234081],2017_Feb_23_1634,60.0514519629,famFaceGrey,001,23,
84,./greyInner/HughLaurie(DrHouse)8_1_cut.png,0,193,193,83,,,None,None,2,8.06378060583,None,None,None,None,None,None,1,1.86658170327,,['return'],[1.4329072011769313],2017_Feb_23_1634,60.0514519629,famFaceGrey,001,23,
11,./greyInner/BarackObama1_3_cut.png,0,194,194,10,,,None,None,1,6.66442453554,None,None,None,None,None,None,4,4.64898035909,,['return'],[0.667013213807877],2017_Feb_23_1634,60.0514519629,famFaceGrey,001,23,
149,./greyInner/MilaKunis5_2_cut.png,0,195,195,148,,,None,None,2,4.08210023606,None,None,None,None,None,None,2,2.53272560877,,['return'],[0.7166747770024813],2017_Feb_23_1634,60.0514519629,famFaceGrey,001,23,
205,./greyInner/Usher7_1_cut.png,0,196,196,204,,,None,None,2,4.14868636607,None,None,None,None,None,None,2,1.74976013827,,['return'],[0.6833395296944218],2017_Feb_23_1634,60.0514519629,famFaceGrey,001,23,
60,./greyInner/ElvisPresley6_1_cut.png,0,197,197,59,,,None,None,1,2.49942853404,None,None,None,None,None,None,2,2.08289287844,,['return'],[1.7999885161480051],2017_Feb_23_1634,60.0514519629,famFaceGrey,001,23,
35,./greyInner/BritneySpears8_5_cut.png,0,198,198,34,,,None,None,1,4.1819892148,None,None,None,None,None,None,2,2.8492924119,,['return'],[1.0180665364077868],2017_Feb_23_1634,60.0514519629,famFaceGrey,001,23,
107,./greyInner/JoachimLoew12_1_cut.png,0,199,199,106,,,None,None,2,6.38122890684,None,None,None,None,None,None,5,1.48308265069,,['return'],[0.7335419245573576],2017_Feb_23_1634,60.0514519629,famFaceGrey,001,23,
119,./greyInner/JudithRakers7_1_cut.png,0,200,200,118,,,None,None,2,4.56477742339,None,None,None,None,None,None,3,1.26638044717,,['return'],[0.35015097415453056],2017_Feb_23_1634,60.0514519629,famFaceGrey,001,23,
218,./greyInner/notfamousface3_3_cut.png,0,201,201,217,,,None,None,2,3.93234247155,None,None,None,None,None,None,3,8.74660207909,,['return'],[0.2670832717176381],2017_Feb_23_1634,60.0514519629,famFaceGrey,001,23,
29,./greyInner/Beyonce5_3_cut.png,0,202,202,28,,,None,None,2,4.86512152193,None,None,None,None,None,None,2,2.66627991535,,['return'],[0.5665744216130406],2017_Feb_23_1634,60.0514519629,famFaceGrey,001,23,
68,./greyInner/EmmaWatson(HermioneGranger)3_1_cut.png,0,203,203,67,,,None,None,2,7.04889458305,None,None,None,None,None,None,1,1.21689050019,,['return'],[0.7668213564993493],2017_Feb_23_1634,60.0514519629,famFaceGrey,001,23,
94,./greyInner/JanHofer7_1_cut.png,0,204,204,93,,,None,None,2,3.3656054155,None,None,None,None,None,None,4,2.33298004986,,['return'],[0.4833274042885023],2017_Feb_23_1634,60.0514519629,famFaceGrey,001,23,
141,./greyInner/MariskaHargitay(Liv)13_1_cut.png,0,205,205,140,,,None,None,2,4.49852297781,None,None,None,None,None,None,1,1.46637717523,,['return'],[0.5839740606097621],2017_Feb_23_1634,60.0514519629,famFaceGrey,001,23,
5,./greyInner/AlysonHannigan(Lily)8_3_cut.png,0,206,206,4,,,None,None,2,3.11612483524,None,None,None,None,None,None,1,1.11655564006,,['return'],[0.4670212974124297],2017_Feb_23_1634,60.0514519629,famFaceGrey,001,23,
175,./greyInner/SahraWagenknecht9_1_cut.png,0,207,207,174,,,None,None,2,2.71583850882,None,None,None,None,None,None,5,3.04922819215,,['return'],[0.9334167569923011],2017_Feb_23_1634,60.0514519629,famFaceGrey,001,23,
217,./greyInner/notfamousface2_cut.png,0,208,208,216,,,None,None,2,3.21528757264,None,None,None,None,None,None,3,4.84823127836,,['return'],[0.6833690412677242],2017_Feb_23_1634,60.0514519629,famFaceGrey,001,23,
146,./greyInner/MilaKunis1_3_cut.png,0,209,209,145,,,None,None,2,9.17987625027,None,None,None,None,None,None,2,0.800097901438,,['return'],[0.5670238315578899],2017_Feb_23_1634,60.0514519629,famFaceGrey,001,23,
215,./greyInner/notfamousface13_1_cut.png,0,210,210,214,,,None,None,2,2.04951015599,None,None,None,None,None,None,1,4.03280500131,,['return'],[0.7834989242710435],2017_Feb_23_1634,60.0514519629,famFaceGrey,001,23,
99,./greyInner/JasonSegel(Marshall)7_1_cut.png,0,211,211,98,,,None,None,1,2.39940450777,None,None,None,None,None,None,1,0.800138961018,,['return'],[0.7000889517330506],2017_Feb_23_1634,60.0514519629,famFaceGrey,001,23,
132,./greyInner/LeonardoDiCaprio2_1_cut.png,0,212,212,131,,,None,None,1,3.0490148748,None,None,None,None,None,None,1,0.650221769854,,['return'],[0.5836045243795525],2017_Feb_23_1634,60.0514519629,famFaceGrey,001,23,
118,./greyInner/JudithRakers4_3_cut.png,0,213,213,117,,,None,None,2,3.16564204835,None,None,None,None,None,None,3,2.89931741654,,['return'],[0.23389654461061582],2017_Feb_23_1634,60.0514519629,famFaceGrey,001,23,
129,./greyInner/KatjaBurkard5_3_cut.png,0,214,214,128,,,None,None,2,6.18108237546,None,None,None,None,None,None,3,1.43303519159,,['return'],[0.28364343475004716],2017_Feb_23_1634,60.0514519629,famFaceGrey,001,23,
4,./greyInner/AlysonHannigan(Lily)5_4_cut.png,0,215,215,3,,,None,None,1,2.61596877676,None,None,None,None,None,None,1,5.94806797029,Lilly,"['lshift', 'l', 'i', 'l', 'l', 'y', 'return']","[1.3165818797024258, 1.4331904481314268, 1.7330970055063517, 1.99973439583664, 2.1495569574981346, 2.3327850168461737, 2.799201647772861]",2017_Feb_23_1634,60.0514519629,famFaceGrey,001,23,
108,./greyInner/JoachimLoew15_1_cut.png,0,216,216,107,,,None,None,1,5.9147134763,None,None,None,None,None,None,5,2.682574795,,['return'],[0.21722154306371522],2017_Feb_23_1634,60.0514519629,famFaceGrey,001,23,
150,./greyInner/MilaKunis7_3_cut.png,0,217,217,149,,,None,None,2,4.56514695962,None,None,None,None,None,None,3,7.1146062723,,['return'],[0.25013432577725325],2017_Feb_23_1634,60.0514519629,famFaceGrey,001,23,
109,./greyInner/JoachimLoew4_1_cut.png,0,218,218,108,,,None,None,1,1.99949445391,None,None,None,None,None,None,5,2.04963590096,,['return'],[0.20043009911023546],2017_Feb_23_1634,60.0514519629,famFaceGrey,001,23,
20,./greyInner/BastianSchweinsteiger6_2_cut.png,0,219,219,19,,,None,None,1,5.2649584384,None,None,None,None,None,None,5,1.00001571812,,['return'],[1.300126290290791],2017_Feb_23_1634,60.0514519629,famFaceGrey,001,23,
177,./greyInner/Shakira2_1_cut.png,0,220,220,176,,,None,None,2,2.7492135326,None,None,None,None,None,None,1,1.59967133089,,['return'],[1.2002523881128582],2017_Feb_23_1634,60.0514519629,famFaceGrey,001,23,
142,./greyInner/MariskaHargitay(Liv)14_1_cut.png,0,221,221,141,,,None,None,2,2.93259203682,None,None,None,None,None,None,3,1.74963278941,,['return'],[0.3837646567480988],2017_Feb_23_1634,60.0514519629,famFaceGrey,001,23,
59,./greyInner/ElvisPresley5_2_cut.png,0,222,222,58,,,None,None,1,5.38148167989,None,None,None,None,None,None,2,1.36641730456,,['return'],[0.4500479723465105],2017_Feb_23_1634,60.0514519629,famFaceGrey,001,23,
111,./greyInner/JoshRadnor(Ted)1_2_cut.png,0,223,223,110,,,None,None,1,7.39743268554,None,None,None,None,None,None,1,0.950061926189,,['return'],[0.6336436432557093],2017_Feb_23_1634,60.0514519629,famFaceGrey,001,23,
