num,pic,trials.thisRepN,trials.thisTrialN,trials.thisN,trials.thisIndex,key_resp_2.keys,key_resp_2.rt,ratingBekannt.response,ratingBekannt.rt,key_resp_5.keys,ratingK1.response,ratingK1.rt,ratingK2.response,ratingK2.rt,ratingK3.response,ratingK3.rt,key_resp_6.keys,inputText,key_resp_4.keys,key_resp_4.rt,date,frameRate,expName,session,participant,
,,,,,,space,61.4069417833,,,,,,,,,,,,,,2017_Feb_24_1027,60.0285947554,famFaceGrey,001,24,
136,./greyInner/LisaEdelstein(DrLisaCuddy)1_1_cut.png,0,0,0,135,,,2.nein,10.213,None,dummy,7.592,None,None,None,None,None,,['return'],[5.198478495663494],2017_Feb_24_1027,60.0285947554,famFaceGrey,001,24,
38,./greyInner/CarenMiosga2_11_cut.png,0,1,1,37,,,2.nein,12.93,None,None,None,None,None,polit,7.654,None,,['return'],[1.9667740303666505],2017_Feb_24_1027,60.0285947554,famFaceGrey,001,24,
201,./greyInner/Usher1_1_cut.png,0,2,2,200,,,1.ja,4.697,None,None,None,music,4.032,None,None,None,,['return'],[14.211241207131025],2017_Feb_24_1027,60.0285947554,famFaceGrey,001,24,
176,./greyInner/Shakira1_1_cut.png,0,3,3,175,,,1.ja,52.655,None,None,None,music,2.559,None,None,None,Mendy,"['lshift', 'm', 'e', 'n', 'd', 'y', 'return']","[3.6152713074602616, 3.748938953455763, 4.848373072657978, 5.214653621351772, 5.464860441625206, 6.114433921924956, 9.363179928665886]",2017_Feb_24_1027,60.0285947554,famFaceGrey,001,24,
62,./greyInner/EmilyDeschanel3_1_cut.png,0,4,4,61,,,1.ja,3.231,None,dummy,1.318,None,None,None,None,None,Bones,"['lshift', 'b', 'o', 'n', 'e', 's', 'return']","[3.565573173638313, 3.6823465143365866, 4.14864178664493, 4.831787674570478, 5.048342534790663, 5.281602121740434, 7.763858562198948]",2017_Feb_24_1027,60.0285947554,famFaceGrey,001,24,
158,./greyInner/NicoleKidman5_1_cut.png,0,5,5,157,,,1.ja,4.522,None,act,1.043,None,None,None,None,None,Nicole Kitman,"['lshift', 'n', 'i', 'c', 'o', 'l', 'e', 'space', 'lshift', 'k', 'i', 't', 'm', 'a', 'n', 'return']","[1.299578083434426, 1.4331825365743498, 1.7830518685036623, 2.1827944779070094, 2.5159241185319843, 2.7325232458288156, 3.399041072469572, 8.213600514011432, 8.929893781470128, 9.096600063962796, 13.311514796911979, 13.711405925565487, 14.211335836027047, 14.611036103009155, 14.810663618012313, 16.493480069069392]",2017_Feb_24_1027,60.0285947554,famFaceGrey,001,24,
208,./greyInner/WillSmith4_1_cut.png,0,6,6,207,,,1.ja,1.541,None,dummy,2.124,None,None,None,None,None,Will Smith,"['lshift', 'w', 'i', 'l', 'l', 'space', 'lshift', 's', 'm', 'i', 't', 'h', 'return']","[4.3318253657407695, 4.481988913342775, 4.981631729357559, 5.348213486638542, 5.5146798287441925, 5.9313116110297415, 6.197755466743274, 6.314336341890794, 7.0474244741121765, 7.380770959257916, 7.763756234680841, 8.030369460079783, 9.862740626045706]",2017_Feb_24_1027,60.0285947554,famFaceGrey,001,24,
67,./greyInner/EmmaWatson(HermioneGranger)16_1_cut.png,0,7,7,66,,,2.nein,10.068,None,dummy,1.696,None,None,None,None,None,,['return'],[2.3163103968927317],2017_Feb_24_1027,60.0285947554,famFaceGrey,001,24,
124,./greyInner/KaleyCuoco(Penny)5_2_cut.png,0,8,8,123,,,1.ja,4.115,None,act,1.135,None,None,None,None,None,Big Bang ,"['lshift', 'b', 'i', 'g', 'space', 'lshift', 'b', 'a', 'n', 'g', 'space', 'return']","[8.047236820199942, 8.113903358555945, 8.463651757964726, 8.763555428956352, 8.99653594085703, 9.596263730412375, 9.746419258616697, 10.079604072699567, 11.928945247079355, 12.195519337816222, 14.044621213360642, 22.75764705731399]",2017_Feb_24_1027,60.0285947554,famFaceGrey,001,24,
120,./greyInner/JudithRakers8_1_cut.png,0,9,9,119,,,2.nein,5.907,None,None,None,None,None,sport,7.19,None,,['return'],[3.015790194585861],2017_Feb_24_1027,60.0285947554,famFaceGrey,001,24,
47,./greyInner/CristinMilioti(Tracy_Mutter)2_1_cut.png,0,10,10,46,,,2.nein,16.372,None,None,None,music,3.844,None,None,None,,['return'],[1.782913293306592],2017_Feb_24_1027,60.0285947554,famFaceGrey,001,24,
98,./greyInner/JasonSegel(Marshall)6_1_cut.png,0,11,11,97,,,1.ja,4.148,None,act,0.952,None,None,None,None,None,How I met your Mother Marschal,"['lshift', 'h', 'o', 'w', 'space', 'lshift', 'i', 'space', 'm', 'e', 't', 'space', 'y', 'o', 'u', 'r', 'backspace', 'r', 'space', 'lshift', 'm', 'o', 't', 'h', 'e', 'r', 'space', 'lshift', 'm', 'a', 'r', 's', 'c', 'h', 'a', 'l', 'return']","[8.780188301879662, 8.913660916116896, 9.29670072344561, 9.67985216079478, 9.796733923753436, 10.64633236041982, 10.796212342109811, 11.295827250619823, 11.612560109397236, 11.84586300109595, 12.112232436796603, 13.211829510165444, 14.328207654932157, 14.677853726822832, 14.96107672927883, 15.444229096877734, 15.994117290431404, 16.893698389159454, 17.076996806034003, 17.39333478965591, 17.560011560763996, 17.843212750457496, 18.159710801262918, 18.40962988553747, 18.592870883522664, 18.842821083061153, 21.891724013381463, 23.824087448647788, 24.04078088406459, 24.857088233586182, 25.206898221971187, 25.40689495005654, 25.706689878012185, 25.82330732161381, 26.1898005447415, 26.5063502404696, 27.339347561028262]",2017_Feb_24_1027,60.0285947554,famFaceGrey,001,24,
170,./greyInner/RobertSeanLeonard(Wilson)8_1_cut.png,0,12,12,169,,,1.ja,6.242,None,act,6.126,None,None,None,None,None,,['return'],[18.79276977495283],2017_Feb_24_1027,60.0285947554,famFaceGrey,001,24,
187,./greyInner/TaylorSwift2_1_cut.png,0,13,13,186,,,1.ja,3.458,None,None,None,music,1.594,None,None,None,,['return'],[39.600719628695515],2017_Feb_24_1027,60.0285947554,famFaceGrey,001,24,
223,./greyInner/notfamousface8_9_cut.png,0,14,14,222,,,2.nein,4.526,None,dummy,0.914,None,None,None,None,None,,['return'],[1.6657389827105362],2017_Feb_24_1027,60.0285947554,famFaceGrey,001,24,
22,./greyInner/BenedictCumberbatch2_2_cut.png,0,15,15,21,,,1.ja,4.492,None,act,1.144,None,None,None,None,None,Schörlock,"['lshift', 's', 'c', 'h', u'\xf6', 'r', 'l', 'o', 'c', 'k', 'return']","[2.7328129064831046, 2.9660442651520498, 3.732355159247618, 4.09896386170567, 4.998741596071795, 5.281819287036797, 5.631581800585536, 5.998150085278212, 6.214620902207571, 6.597917009495632, 10.89622193330979]",2017_Feb_24_1027,60.0285947554,famFaceGrey,001,24,
173,./greyInner/SahraWagenknecht5_1_cut.png,0,16,16,172,,,2.nein,2.992,None,None,None,None,None,polit,4.592,None,,['return'],[1.1999325729020711],2017_Feb_24_1027,60.0285947554,famFaceGrey,001,24,
37,./greyInner/CarenMiosga13_1_cut.png,0,17,17,36,,,2.nein,3.327,None,act,2.577,None,None,None,None,None,,['return'],[1.1836637806454746],2017_Feb_24_1027,60.0285947554,famFaceGrey,001,24,
42,./greyInner/CobieSmulders(Robin)2_1_cut.png,0,18,18,41,,,2.nein,2.761,None,dummy,0.879,None,None,None,None,None,,['return'],[1.8161864170006083],2017_Feb_24_1027,60.0285947554,famFaceGrey,001,24,
76,./greyInner/GeorgeClooney11_1_cut.png,0,19,19,75,,,1.ja,2.53,None,act,3.079,None,None,None,None,None,Georg Klunie,"['lshift', 'g', 'o', 'backspace', 'e', 'o', 'r', 'space', 'backspace', 'g', 'space', 'lshift', 'l', 'e', 'o', 'n', 'y', 'backspace', 'backspace', 'backspace', 'backspace', 'backspace', 'lshift', 'k', 'l', 'u', 'n', 'i', 'e', 'return']","[19.476001310049014, 19.59249525492214, 20.70886666339493, 22.341364279227946, 22.674746370500543, 23.374334269678457, 24.190567199186717, 24.640552299145384, 26.172497570924406, 26.77232127247953, 26.98945994487167, 28.188927713467365, 28.88869171862416, 34.819678062872754, 35.952455876470594, 36.75224615317484, 37.58525405933915, 41.88336908380961, 42.183287831269354, 42.382975972921486, 42.6164023633487, 43.36613299177134, 44.01580045941546, 44.16577314534561, 44.399156872575986, 46.28158768682397, 46.581502584972895, 46.81468390259852, 47.031249027647846, 50.06346711934566]",2017_Feb_24_1027,60.0285947554,famFaceGrey,001,24,
41,./greyInner/CobieSmulders(Robin)12_1_cut.png,0,20,20,40,,,2.nein,8.07,None,None,None,music,3.375,None,None,None,,['return'],[2.532700699066936],2017_Feb_24_1027,60.0285947554,famFaceGrey,001,24,
108,./greyInner/JoachimLoew15_1_cut.png,0,21,21,107,,,1.ja,1.996,None,None,None,None,None,sport,1.395,None,Löw,"['lshift', 'l', u'\xf6', 'w', 'return']","[5.498222420247657, 5.68137103476829, 6.814451340057531, 7.780683900673466, 8.613818192549388]",2017_Feb_24_1027,60.0285947554,famFaceGrey,001,24,
93,./greyInner/JanHofer5_1_cut.png,0,22,22,92,,,2.nein,8.559,None,None,None,None,None,polit,7.742,None,,['return'],[1.4499276810693118],2017_Feb_24_1027,60.0285947554,famFaceGrey,001,24,
214,./greyInner/notfamousface1_2_cut.png,0,23,23,213,,,2.nein,5.989,None,None,None,music,1.039,None,None,None,,['return'],[1.166832026652628],2017_Feb_24_1027,60.0285947554,famFaceGrey,001,24,
21,./greyInner/BenedictCumberbatch16_1_cut.png,0,24,24,20,,,1.ja,4.426,None,act,1.045,None,None,None,None,None,Schörlock,"['lshift', 's', 'c', 'h', u'\xf6', 'r', 'l', 'o', 'c', 'k', 'return']","[1.4501204673961183, 1.7833331889842157, 2.2831928495197644, 2.483008018435612, 3.5659943524192386, 3.982172557555714, 4.24899877816415, 4.448751075000018, 4.682152124129971, 5.0488054144407215, 5.915017798251483]",2017_Feb_24_1027,60.0285947554,famFaceGrey,001,24,
84,./greyInner/HughLaurie(DrHouse)8_1_cut.png,0,25,25,83,,,2.nein,3.092,None,act,3.575,None,None,None,None,None,,['return'],[1.7659083203179762],2017_Feb_24_1027,60.0285947554,famFaceGrey,001,24,
135,./greyInner/LeonardoDiCaprio7_1_cut.png,0,26,26,134,,,1.ja,4.551,None,act,2.92,None,None,None,None,None,Leonado dikaprieo,"['lshift', 'l', 'e', 'o', 'n', 'a', 'd', 'o', 'space', 'd', 'i', 'k', 'a', 'p', 'r', 'i', 'e', 'o', 'return']","[12.677727020334714, 12.977566536143058, 13.910559654536883, 14.260301317651283, 14.776799945852872, 15.009980942702441, 15.509778051934063, 15.942826504174263, 16.259532417774608, 16.72598037941998, 17.159082722014773, 17.925401635508024, 18.19212232083919, 19.40826145546953, 20.42448533909692, 20.65771637698981, 20.874305881009604, 21.024197089856443, 25.05594171629855]",2017_Feb_24_1027,60.0285947554,famFaceGrey,001,24,
202,./greyInner/Usher11_1_cut.png,0,27,27,201,,,1.ja,2.528,None,None,None,music,1.577,None,None,None,Ascha,"['lshift', 'a', 's', 'c', 'h', 'a', 'return']","[1.1830944033904416, 1.4164627333766475, 1.8660869604268555, 2.1160432547080745, 2.2495793825769397, 3.6488122790456146, 4.531844227364672]",2017_Feb_24_1027,60.0285947554,famFaceGrey,001,24,
2,./greyInner/AlysonHannigan(Lily)12_2_cut.png,0,28,28,1,,,1.ja,3.399,None,act,1.868,None,None,None,None,None,Lilly How i met your Mother,"['lshift', 'l', 'i', 'l', 'l', 'y', 'space', 'lshift', 'h', 'i', 'backspace', 'o', 'w', 'space', 'i', 'space', 'm', 'e', 't', 'space', 'y', 'o', 'u', 'r', 'space', 'lshift', 'm', 'o', 't', 'h', 'e', 'r', 'lshift', '7', 'return']","[1.4496312841206418, 1.6496421263464072, 1.9663490022744554, 2.232564786310377, 2.366032909684691, 2.616019677677741, 2.782507832545889, 4.964825958213623, 5.198140397845691, 5.548067148664359, 5.964565167392266, 6.247748393634538, 6.597477546487426, 6.680954667626338, 7.014117989722763, 7.680480560818978, 8.29693136133119, 8.929950558807832, 9.146509909890938, 9.429753442005676, 9.912898110982496, 10.179306360569626, 10.545958688552673, 10.945683976055989, 11.062193959725391, 11.445555184524892, 11.578832446227352, 12.162016217788732, 12.544854577841306, 12.778308875773291, 12.945126146733855, 13.211693180400289, 16.410293891688525, 16.62678812526019, 17.626367908807424]",2017_Feb_24_1027,60.0285947554,famFaceGrey,001,24,
151,./greyInner/NeilPatrickHarris(Barney)1_1_cut.png,0,29,29,150,,,1.ja,1.644,None,act,1.511,None,None,None,None,None,How i met you Mother,"['lshift', 'h', 'o', 'w', 'space', 'i', 'space', 'm', 'e', 't', 'space', 'y', 'o', 'u', 'space', 'lshift', 'm', 'o', 't', 'h', 'e', 'r', 'return']","[1.8662954647738843, 2.3992883907026226, 2.782585460318387, 4.115385343299295, 4.2319181020588985, 4.598442761226124, 4.9150742548135895, 5.1482481945931795, 5.3812322350286195, 5.564769950738537, 5.831318379401637, 6.597541380895564, 6.8475461123402965, 7.147449783331922, 7.397134059634027, 7.7471692327135315, 7.813782843043555, 8.113754197753678, 8.413626432705769, 8.663449604980542, 8.863480335313398, 9.096591082236955, 9.396486733830898]",2017_Feb_24_1027,60.0285947554,famFaceGrey,001,24,
168,./greyInner/RobertSeanLeonard(Wilson)11_2_cut.png,0,30,30,167,,,1.ja,7.158,None,act,5.992,None,None,None,None,None,,['return'],[15.560571956293643],2017_Feb_24_1027,60.0285947554,famFaceGrey,001,24,
145,./greyInner/MariskaHargitay(Liv)8_8_cut.png,0,31,31,144,,,2.nein,5.372,None,act,2.575,None,None,None,None,None,,['return'],[1.316636626001582],2017_Feb_24_1027,60.0285947554,famFaceGrey,001,24,
172,./greyInner/SahraWagenknecht2_2_cut.png,0,32,32,171,,,1.ja,6.629,None,None,None,None,None,polit,2.775,None,Partei die Linke Sahra wagenknecht,"['lshift', 'd', 'i', 'e', 'space', 'backspace', 'backspace', 'backspace', 'backspace', 'lshift', 'p', 'a', 'r', 't', 'e', 'i', 'space', 'd', 'i', 'e', 'space', 'lshift', 'l', 'i', 'n', 'k', 'e', 'space', 'lshift', 's', 'a', 'h', 'r', 'a', 'space', 'w', 'a', 'g', 'e', 'n', 'k', 'n', 'e', 'c', 'h', 't', 'return']","[2.8492850385941892, 3.2825846583787097, 3.7157370420163716, 3.898988304831164, 4.031998039417886, 5.181594134420266, 5.381679075883312, 5.598019978565844, 5.814820873915778, 7.114288610434414, 7.214303013272911, 7.630860054769528, 8.080504811478477, 9.246619903953615, 9.58006198032308, 9.846662695460964, 10.163047833143082, 10.662875736862588, 10.812902954699439, 10.979297442999268, 11.129404534039622, 11.59574984739129, 11.679149982309355, 11.895771243144736, 12.112112145827723, 12.37879722503203, 12.562210800461344, 12.69537835680012, 13.344979744604643, 13.445054453316061, 13.678266886206075, 13.994837432368513, 14.194697509913112, 14.56120805494038, 14.727942244937822, 15.077757044961345, 15.560944056359403, 15.877338496542961, 16.0937486868238, 16.493794750245797, 17.24349907504302, 17.47691648374439, 17.69325674487527, 18.02656473691104, 18.193152973865836, 18.459801484615127, 21.32490141754124]",2017_Feb_24_1027,60.0285947554,famFaceGrey,001,24,
167,./greyInner/RobertSeanLeonard(Wilson)10_1_cut.png,0,33,33,166,,,1.ja,4.319,None,act,2.969,None,None,None,None,None,Dr Haus,"['lshift', 'd', 'r', 'space', 'lshift', 'h', 'a', 'u', 's', 'return']","[1.082882723361763, 1.1998369816783452, 1.4661615087502469, 1.9829780258874052, 4.43193407669969, 4.581805076663841, 5.414764224888131, 6.164457001752453, 6.713744061235047, 7.930345113187286]",2017_Feb_24_1027,60.0285947554,famFaceGrey,001,24,
163,./greyInner/OmarEpps(DrEricForeman)3_1_cut.png,0,34,34,162,,,1.ja,7.904,None,act,10.608,None,None,None,None,None,Dr Haus,"['lshift', 'd', 'r', 'space', 'h', 'a', 'u', 's', 'backspace', 'backspace', 'backspace', 'backspace', 'lshift', 'h', 'a', 'u', 's', 'return']","[12.262153477804532, 12.345355693981219, 12.562033090602199, 12.94498147679451, 13.544884410001487, 15.027732682030091, 15.527448634953998, 15.843971385505029, 17.493411423022735, 17.693147039511132, 17.893118105523172, 18.059525424859658, 18.50959296422934, 18.709490572556206, 19.009323672845767, 19.25918918754178, 19.792284440988624, 20.4421212783177]",2017_Feb_24_1027,60.0285947554,famFaceGrey,001,24,
54,./greyInner/DannFlorek(DonaldDonCragen)5_1_cut.png,0,35,35,53,,,2.nein,2.877,None,None,None,None,None,polit,1.873,None,,['return'],[1.33326597039013],2017_Feb_24_1027,60.0285947554,famFaceGrey,001,24,
6,./greyInner/AngelaMerkel1_1_cut.png,0,36,36,5,,,1.ja,1.228,None,None,None,None,None,polit,1.96,None,Angela Merkel,"['lshift', 'a', 'n', 'g', 'e', 'l', 'a', 'space', 'lshift', 'm', 'e', 'r', 'k', 'e', 'l', 'return']","[1.2165157255581107, 1.3165759993535175, 2.2328480314463377, 2.532662847508618, 2.932526389432951, 3.1990459482631195, 3.3989178945166714, 3.532250650453534, 3.9319785041643627, 5.131593188130864, 5.531353119433334, 5.814581895856463, 6.131202162286172, 6.4644864169040375, 6.680986424442381, 7.680572623507487]",2017_Feb_24_1027,60.0285947554,famFaceGrey,001,24,
142,./greyInner/MariskaHargitay(Liv)14_1_cut.png,0,37,37,141,,,2.nein,7.975,None,act,7.392,None,None,None,None,None,,['return'],[1.2166536592030752],2017_Feb_24_1027,60.0285947554,famFaceGrey,001,24,
123,./greyInner/KaleyCuoco(Penny)3_1_cut.png,0,38,38,122,,,1.ja,3.178,None,act,1.313,None,None,None,None,None,Big Bang,"['lshift', 'b', 'i', 'g', 'space', 'lshift', 'b', 'a', 'n', 'g', 'return']","[1.5999228213140668, 1.6832867085536236, 2.0831605153070996, 2.516447304054509, 2.749627659352427, 3.19914923810893, 3.4160168548496586, 3.7158287839288278, 3.9158133225296297, 4.4489034435614485, 5.365169380911993]",2017_Feb_24_1027,60.0285947554,famFaceGrey,001,24,
83,./greyInner/HughLaurie(DrHouse)5_3_cut.png,0,39,39,82,,,1.ja,2.394,None,act,0.878,None,None,None,None,None,Dr Haus,"['lshift', 'd', 'r', 'space', 'lshift', 'h', 'a', 'u', 's', 'return']","[0.9330800486682165, 1.1331730095294006, 1.38313154924208, 1.766188357694773, 2.199445314282002, 2.3159803184726115, 2.665841951780294, 2.9321802722170105, 3.199039853520844, 3.8154136678126633]",2017_Feb_24_1027,60.0285947554,famFaceGrey,001,24,
149,./greyInner/MilaKunis5_2_cut.png,0,40,40,148,,,1.ja,4.625,None,act,1.193,None,None,None,None,None,,['return'],[26.905946896829846],2017_Feb_24_1027,60.0285947554,famFaceGrey,001,24,
191,./greyInner/TomCruise1_1_cut.png,0,41,41,190,,,1.ja,3.445,None,act,2.095,None,None,None,None,None,Tom Cruse,"['lshift', 't', 'o', 'm', 'space', 'c', 'lshift', 'r', 'u', 's', 'e', 'backspace', 'backspace', 'backspace', 'backspace', 'backspace', 'lshift', 'c', 'r', 'u', 's', 'e', 'return']","[40.017898654698, 40.06776262966969, 40.5508389733759, 40.917439977212325, 41.184206533499946, 42.06686477787389, 42.183626891415315, 42.53337079996072, 43.2166360165279, 43.46656664873535, 43.73363730059373, 44.74931329895253, 44.93262935850271, 45.11588703683583, 45.28238321110166, 45.46562837917372, 46.03208946055429, 46.28202330052136, 46.64859126443798, 47.13162751115442, 47.36472831402443, 47.631551326873705, 48.33128165055905]",2017_Feb_24_1027,60.0285947554,famFaceGrey,001,24,
213,./greyInner/notfamousface12_2_cut.png,0,42,42,212,,,2.nein,3.251,None,None,None,music,3.567,None,None,None,,['return'],[1.216657829289943],2017_Feb_24_1027,60.0285947554,famFaceGrey,001,24,
88,./greyInner/Ice-T(OdafinFinTutuola)5_1_cut.png,0,43,43,87,,,1.ja,2.562,None,None,None,music,3.244,None,None,None,Hip Hop,"['lshift', 'h', 'i', 'p', 'space', 'lshift', 'h', 'o', 'p', 'return']","[4.44857304436573, 4.631903859607974, 5.048471807485839, 5.39810697299481, 5.748077349338928, 6.114448036065369, 6.297915501849275, 6.664451708949855, 6.9142533892381834, 7.797233692634563]",2017_Feb_24_1027,60.0285947554,famFaceGrey,001,24,
9,./greyInner/AngelaMerkel5_1_cut.png,0,44,44,8,,,1.ja,1.712,None,None,None,None,None,polit,2.212,None,Angela Merkel,"['lshift', 'a', 'n', 'g', 'e', 'l', 'a', 'space', 'lshift', 'm', 'e', 'r', 'k', 'e', 'l', 'return']","[0.9835701782326396, 1.1168791967515972, 1.6999914352827545, 2.016469597981086, 2.2664262130383577, 2.5826326785336278, 2.8828391619922513, 3.0494123224784744, 3.3160784759038506, 3.432541305513041, 3.765790274779647, 3.9990575603515026, 4.248893563663387, 4.464822269290835, 4.732027967810609, 5.481810241155927]",2017_Feb_24_1027,60.0285947554,famFaceGrey,001,24,
44,./greyInner/CobieSmulders(Robin)4_7_cut.png,0,45,45,43,,,1.ja,4.275,None,act,0.917,None,None,None,None,None,Robin How i met your Mother,"['lshift', 'r', 'o', 'b', 'i', 'n', 'space', 'lshift', 'h', 'o', 'w', 'space', 'i', 'space', 'm', 'e', 't', 'space', 'y', 'o', 'u', 'r', 'space', 'lshift', 'm', 'o', 't', 'h', 'e', 'r', 'return']","[0.9168009915824769, 1.399940848920778, 1.9330608021127773, 2.2496682375062846, 2.5827298736367084, 3.0159723953074717, 3.2659533893342996, 3.499048097462037, 3.8156269837986656, 4.182248838069427, 4.548695548689011, 4.681949393749619, 5.41504169605787, 5.681711698794061, 5.898199196071346, 6.247582552484346, 6.481256581920661, 6.714294512710694, 8.19719090112676, 8.530500817818393, 8.813648758709405, 10.29640753425656, 10.446244211197609, 10.796078257776117, 10.962721347412753, 11.245942104437745, 11.595784811966041, 11.895616949927899, 12.178986867754702, 12.412134503908874, 13.311818250930628]",2017_Feb_24_1027,60.0285947554,famFaceGrey,001,24,
116,./greyInner/JudithRakers1_1_cut.png,0,46,46,115,,,2.nein,7.225,None,None,None,music,2.277,None,None,None,,['return'],[1.3167328587778684],2017_Feb_24_1027,60.0285947554,famFaceGrey,001,24,
221,./greyInner/notfamousface6_8_cut.png,0,47,47,220,,,2.nein,3.534,None,None,None,None,None,sport,1.177,None,,['return'],[1.399962661682821],2017_Feb_24_1027,60.0285947554,famFaceGrey,001,24,
144,./greyInner/MariskaHargitay(Liv)6_5_cut.png,0,48,48,143,,,1.ja,5.73,None,None,None,music,1.529,None,None,None,Penelope Cruse,"['lshift', 'p', 'e', 'n', 'e', 'l', 'o', 'p', 'e', 'space', 'lshift', 'c', 'r', 'u', 's', 'e', 'return']","[12.561846399017668, 12.97856414924945, 13.445044830038569, 13.661765210632893, 14.07814550459807, 14.794431394210733, 15.011044314872379, 15.277624179575469, 15.510864840745853, 15.611034178353293, 16.160504400885202, 16.310454311725607, 16.810433942454893, 17.02684766127095, 17.32677731511194, 17.543293682222156, 17.95979202172566]",2017_Feb_24_1027,60.0285947554,famFaceGrey,001,24,
87,./greyInner/Ice-T(OdafinFinTutuola)12_1_cut.png,0,49,49,86,,,1.ja,5.311,None,None,None,music,1.379,None,None,None,Hip Hop,"['lshift', 'h', 'i', 'p', 'space', 'lshift', 'h', 'o', 'p', 'return']","[0.9501876699509921, 1.0833472068916308, 1.5495459256485447, 1.8664045285859174, 2.133144460472522, 2.3828608143667225, 2.4828437811652293, 2.782685221628981, 3.19902285239732, 3.9652163425066647]",2017_Feb_24_1027,60.0285947554,famFaceGrey,001,24,
11,./greyInner/BarackObama1_3_cut.png,0,50,50,10,,,1.ja,3.055,None,None,None,None,None,polit,1.543,None,Obama,"['lshift', 'o', 'b', 'a', 'm', 'a', 'return']","[1.5333948581546792, 1.766464224984702, 2.466245552041073, 3.1659502136531046, 3.9656131423175793, 4.315506853217357, 5.714741032789334]",2017_Feb_24_1027,60.0285947554,famFaceGrey,001,24,
74,./greyInner/GuentherJauch7_1_cut.png,0,51,51,73,,,1.ja,2.695,None,None,None,host,1.494,None,None,None,Günter Jauch,"['lshift', 'g', u'\xfc', 'n', 't', 'e', 'r', 'space', 'lshift', 'j', 'a', 'u', 'c', 'h', 'return']","[0.7668597416923149, 0.8667721377887574, 2.116126656446795, 2.682750691993988, 3.0159178634016826, 3.265920349414955, 3.4991311784251593, 3.6156934485688907, 4.032263641878217, 4.182080109936578, 4.432118202076708, 5.79808663580161, 6.197893079612641, 6.381201761316788, 7.363933752074445]",2017_Feb_24_1027,60.0285947554,famFaceGrey,001,24,
51,./greyInner/DannFlorek(DonaldDonCragen)1_1_cut.png,0,52,52,50,,,2.nein,3.827,None,act,7.144,None,None,None,None,None,,['return'],[0.8674611644614743],2017_Feb_24_1027,60.0285947554,famFaceGrey,001,24,
152,./greyInner/NeilPatrickHarris(Barney)11_2_cut.png,0,53,53,151,,,2.nein,7.044,None,act,1.78,None,None,None,None,None,,['return'],[0.9001536837427011],2017_Feb_24_1027,60.0285947554,famFaceGrey,001,24,
141,./greyInner/MariskaHargitay(Liv)13_1_cut.png,0,54,54,140,,,1.ja,2.279,None,None,None,music,1.311,None,None,None,,['return'],[3.915760394503195],2017_Feb_24_1027,60.0285947554,famFaceGrey,001,24,
69,./greyInner/EmmaWatson(HermioneGranger)4_1_cut.png,0,55,55,68,,,1.ja,1.925,None,act,1.843,None,None,None,None,None,Harry Potter Ema Wothsen,"['lshift', 'h', 'a', 'r', 'r', 'y', 'space', 'lshift', 'p', 'o', 't', 't', 'e', 'r', 'space', 'lshift', 'e', 'm', 'm', 'backspace', 'a', 'space', 'lshift', 'w', 'o', 't', 'h', 's', 'e', 'n', 'return']","[9.996361117980996, 10.479437140911614, 10.829276640680746, 11.295672636627387, 11.445770104390249, 11.812119299130245, 11.945554382585215, 12.228827105308483, 12.511873681009547, 12.795063964322253, 13.22830071202634, 13.394966255977579, 13.544780799380078, 13.778039744778198, 13.944753084340846, 16.526856482608764, 16.62698957253724, 17.193206864219974, 17.32652069437745, 18.509263206585274, 18.95924670266413, 19.209145578055995, 20.858335731133593, 21.058377367847697, 22.074267644520205, 22.50781105400256, 22.757782424751895, 23.04106541230476, 23.290508785892143, 23.407399209800587, 24.273712958801752]",2017_Feb_24_1027,60.0285947554,famFaceGrey,001,24,
190,./greyInner/TaylorSwift8_1_cut.png,0,56,56,189,,,1.ja,1.862,None,None,None,music,1.529,None,None,None,,['return'],[14.827873887589249],2017_Feb_24_1027,60.0285947554,famFaceGrey,001,24,
128,./greyInner/KatjaBurkard4_1_cut.png,0,57,57,127,,,1.ja,5.915,None,act,6.713,None,None,None,None,None,Frinds,"['lshift', 'f', 'r', 'i', 'n', 'd', 'y', 'backspace', 's', 'return']","[1.4332601643463931, 1.5505002340059946, 2.4496251893779117, 2.716056534830841, 2.966091419211807, 3.3659414885478327, 3.7322958157024004, 4.282179839169203, 4.682003925655408, 5.448424204339517]",2017_Feb_24_1027,60.0285947554,famFaceGrey,001,24,
77,./greyInner/GeorgeClooney15_1_cut.png,0,58,58,76,,,1.ja,2.192,None,act,1.125,None,None,None,None,None,Georg Kloney,"['lshift', 'g', 'e', 'o', 'r', 'g', 'space', 'lshift', 'k', 'l', 'o', 'n', 'e', 'y', 'return']","[1.0497209089121498, 1.1833949704259794, 1.5665011783703449, 1.9328086722412081, 2.2494125790994985, 2.8660285792097966, 3.1490802873254324, 4.048712068648911, 4.232005032332836, 4.565285116863379, 4.815076853098617, 5.098351500477747, 5.348417179347052, 6.031259613253496, 6.864337127791714]",2017_Feb_24_1027,60.0285947554,famFaceGrey,001,24,
189,./greyInner/TaylorSwift7_1_cut.png,0,59,59,188,,,1.ja,4.228,None,None,None,music,2.646,None,None,None,,['return'],[2.9828583764697214],2017_Feb_24_1027,60.0285947554,famFaceGrey,001,24,
122,./greyInner/KaleyCuoco(Penny)14_2_cut.png,0,60,60,121,,,1.ja,1.292,None,act,1.061,None,None,None,None,None,Big Bang,"['lshift', 'h', 'o', 'w', 'space', 'i', 'space', 'backspace', 'backspace', 'backspace', 'backspace', 'backspace', 'backspace', 'lshift', 'b', 'i', 'g', 'space', 'lshift', 'b', 'a', 'n', 'g', 'return']","[1.0166957450037444, 1.166648863602859, 1.4665688941668122, 1.8829819072757346, 1.9662466747563485, 2.349328503731158, 2.7159872472325333, 4.115409401492798, 5.414961502077858, 5.781397306316194, 5.997742379085594, 6.181359647223417, 6.381108094748015, 7.164064692804004, 7.213918723722145, 7.547316853791017, 7.880608165479316, 8.06355982358582, 8.413391624733322, 8.496889917082626, 8.78013184531801, 8.93001984640614, 9.24658173161879, 10.112860516044748]",2017_Feb_24_1027,60.0285947554,famFaceGrey,001,24,
57,./greyInner/ElvisPresley2_1_cut.png,0,61,61,56,,,2.nein,6.723,None,None,None,None,None,sport,1.033,None,,['return'],[1.5332649439073975],2017_Feb_24_1027,60.0285947554,famFaceGrey,001,24,
71,./greyInner/GuentherJauch2_1_cut.png,0,62,62,70,,,1.ja,1.463,None,None,None,host,0.829,None,None,None,Günter Jauch,"['lshift', 'g', u'\xfc', 'n', 't', 'e', 'r', 'space', 'lshift', 'j', 'a', 'u', 'c', 'h', 'return']","[1.1334357250066205, 1.2337757154023166, 1.8168860292785212, 2.2000143707609823, 2.5167003962542367, 2.666561452165297, 2.916187668026396, 2.9830315954654907, 3.382764260815293, 3.4495437122945987, 3.7329331974524393, 3.899429692494323, 4.399158797231394, 4.582217273718925, 5.3488053182081785]",2017_Feb_24_1027,60.0285947554,famFaceGrey,001,24,
29,./greyInner/Beyonce5_3_cut.png,0,63,63,28,,,2.nein,3.492,None,None,None,music,1.061,None,None,None,,['return'],[1.0332728029175087],2017_Feb_24_1027,60.0285947554,famFaceGrey,001,24,
102,./greyInner/JimParsons(SheldonCooper)10_1_cut.png,0,64,64,101,,,1.ja,2.762,None,dummy,0.797,None,None,None,None,None,Big Bang Scheldon,"['lshift', 'b', 'i', 'g', 'space', 'b', 'lshift', 'a', 'backspace', 'backspace', 'lshift', 'b', 'a', 'n', 'g', 'space', 'lshift', 's', 'c', 'h', 'e', 'l', 'd', 'o', 'n', 'return']","[1.100575119144196, 1.2005301784379299, 1.5170891766674686, 1.8004231675913616, 2.000303133243051, 2.2334998481123876, 2.2604870469081106, 2.81659668939983, 3.66618261580561, 3.899438032668513, 4.598964663645347, 4.899016533111535, 5.198683792251359, 5.482281140204577, 5.748850740078069, 8.497575735996179, 14.595067236236446, 14.795085135532645, 15.211444579063482, 15.427980192728683, 15.961104957559655, 17.593737940830124, 18.210293314291903, 18.493590736761234, 18.760196905089742, 19.54290650568828]",2017_Feb_24_1027,60.0285947554,famFaceGrey,001,24,
183,./greyInner/SigmarGabriel3_3_cut.png,0,65,65,182,,,1.ja,5.489,None,None,None,None,None,polit,1.492,None,Grabriel SPD,"['lshift', 'g', 'r', 'a', 'b', 'r', 'i', 'e', 'l', 'space', 'lshift', 's', 'p', 'lshift', 'd', 'backspace', 'backspace', 'lshift', 'p', 'lshift', 'd', 'return']","[1.7163410630705584, 1.8164994942967496, 2.3996229599852086, 3.199211147861206, 3.6820873273945836, 4.0988137385757, 4.365355110168821, 4.66526359279942, 4.9151464293950085, 5.298203879399807, 5.681472720734746, 5.831425839334315, 6.514271480999923, 6.7645450226641515, 7.114307215437293, 8.297100731016144, 8.530224950528464, 9.046676745445893, 9.396564040826888, 9.729919507698469, 9.963263779490717, 12.395549747373025]",2017_Feb_24_1027,60.0285947554,famFaceGrey,001,24,
224,./greyInner/notfamousface9_1_cut.png,0,66,66,223,,,2.nein,4.575,None,None,None,music,1.161,None,None,None,,['return'],[1.2499113856524673],2017_Feb_24_1027,60.0285947554,famFaceGrey,001,24,
52,./greyInner/DannFlorek(DonaldDonCragen)10_1_cut.png,0,67,67,51,,,2.nein,5.518,None,None,None,None,None,polit,1.352,None,,['return'],[1.1832416395373002],2017_Feb_24_1027,60.0285947554,famFaceGrey,001,24,
162,./greyInner/OmarEpps(DrEricForeman)2_2_cut.png,0,68,68,161,,,1.ja,4.852,None,act,5.052,None,None,None,None,None,Dr Haus,"['lshift', 'd', 'r', 'space', 'lshift', 'h', 'a', 'u', 's', 'return']","[0.9333934467404106, 1.016806412695587, 1.2332441897056015, 1.5497534676678697, 1.8162887445182605, 1.932942115023252, 2.232789650228824, 2.5992767786142394, 2.8157941080521596, 3.3157076589418466]",2017_Feb_24_1027,60.0285947554,famFaceGrey,001,24,
106,./greyInner/JoachimLoew1_1_cut.png,0,69,69,105,,,1.ja,1.786,None,None,None,None,None,sport,1.052,None,Joachim Löw,"['lshift', 'k', 'backspace', 'lshift', 'j', 'o', 'a', 'c', 'h', 'i', 'm', 'space', 'lshift', 'l', 'o', 'backspace', u'\xf6', 'w', 'return']","[1.316445122778532, 1.5164357561216093, 2.482684997085471, 2.915823587358773, 3.2491104081841513, 3.832027614957042, 4.265238700587815, 4.715183703556704, 4.914983796004435, 6.681020747465482, 6.964196275085669, 7.180755946944828, 7.347339051484596, 7.513815979195897, 7.747096416580007, 8.58018836603469, 9.812942410137111, 10.329442000666404, 10.679228251633049]",2017_Feb_24_1027,60.0285947554,famFaceGrey,001,24,
174,./greyInner/SahraWagenknecht6_2_cut.png,0,70,70,173,,,2.nein,6.336,None,act,0.859,None,None,None,None,None,,['return'],[1.3666911418690688],2017_Feb_24_1027,60.0285947554,famFaceGrey,001,24,
96,./greyInner/JasonSegel(Marshall)11_1_cut.png,0,71,71,95,,,1.ja,1.645,None,act,1.363,None,None,None,None,None,Marschal How i met your Mother,"['lshift', 'm', 'a', 'r', 's', 'c', 'h', 'a', 'l', 'space', 'lshift', 'h', 'o', 'w', 'space', 'i', 'space', 'm', 'e', 't', 'space', 'x', 'backspace', 'y', 'o', 'u', 'r', 'space', 'lshift', 'm', 'o', 't', 'h', 'e', 'r', 'return']","[1.3163495315548062, 1.4332515033966047, 2.0497594020221186, 2.5659959562985932, 3.065784404580427, 3.2990173671291814, 3.4658086552399254, 3.6822724150993054, 3.982344814224234, 4.215394292947167, 4.615142997092789, 4.766239681841398, 5.098367218497515, 5.398231434051013, 5.531470523419557, 5.831361684150579, 6.214446079332447, 6.681050258850064, 6.980784239381137, 7.230734438919626, 7.463918322752306, 7.947215039514958, 8.563410823172035, 9.546597032630416, 9.86309476265933, 10.929297138261973, 11.712401614016017, 11.812335822875411, 12.245340328814564, 12.362126179773895, 12.595379351204883, 12.978500956393418, 13.22842934316941, 13.461445781972998, 13.711515310153572, 14.361255914706817]",2017_Feb_24_1027,60.0285947554,famFaceGrey,001,24,
66,./greyInner/EmmaWatson(HermioneGranger)11_2_cut.png,0,72,72,65,,,1.ja,2.395,None,act,0.911,None,None,None,None,None,Ema Wathsen Harry Potter,"['lshift', 'e', 'm', 'a', 'space', 'lshift', 'w', 'a', 't', 'h', 's', 'e', 'n', 'space', 'lshift', 'h', 'a', 'r', 'r', 'x', 'backspace', 'y', 'space', 'lshift', 'p', 'o', 't', 't', 'e', 'r', 'return']","[1.58315618483266, 1.6832331389755382, 2.432804020990261, 2.6494422829496216, 2.76602187499293, 3.2324355136152008, 3.3823260809108433, 3.7154076051479024, 4.148732887005735, 4.515048400274736, 4.748532209591303, 5.0318010830037565, 5.231616893471255, 5.398234962586685, 5.748102049084537, 5.948052264662238, 6.297961693581328, 7.114173772655249, 7.330852131604388, 7.680718576550589, 8.213791054907233, 8.430414881949673, 8.696958819749852, 9.180147755803773, 9.363321070070015, 9.813021321012911, 11.445733215159635, 11.612466442829373, 11.76229574192439, 11.995417395229197, 12.661988470671986]",2017_Feb_24_1027,60.0285947554,famFaceGrey,001,24,
125,./greyInner/KaleyCuoco(Penny)7_1_cut.png,0,73,73,124,,,1.ja,1.808,None,act,0.742,None,None,None,None,None,Big Bang,"['lshift', 'b', 'i', 'g', 'space', 'lshift', 'b', 'a', 'n', 'g', 'return']","[1.4998189219941196, 1.6330618606739336, 2.0494559480039243, 2.6326843074175486, 2.8824936863279618, 3.1324034681010744, 3.2824419130947717, 3.5487956307756576, 3.7321745624058167, 4.01527567001267, 5.5814069937491695]",2017_Feb_24_1027,60.0285947554,famFaceGrey,001,24,
112,./greyInner/JoshRadnor(Ted)3_1_cut.png,0,74,74,111,,,1.ja,4.379,None,dummy,1.037,None,None,None,None,None,How i met your Mother ,"['lshift', 'h', 'o', 'w', 'space', 'i', 'space', 'm', 'e', 't', 'space', 'y', 'o', 'u', 'r', 'space', 'lshift', 'm', 'o', 't', 'h', 'e', 'r', 'space', 'return']","[0.9002306699626388, 1.1334238562972132, 1.499960704949899, 1.8663159944321706, 1.9498553460994117, 2.549680972309943, 2.7494598935472823, 2.9994322266243216, 3.1826478833118017, 3.3991360221411924, 3.6657684940946638, 4.6153335379881355, 4.865196807252687, 5.231975841723852, 5.548334675780552, 5.664938326017818, 6.0147810335461145, 6.081326318605534, 6.364658064097966, 6.731227952669997, 7.030962574752721, 7.197741994154512, 7.447397400624141, 9.480121355945357, 10.846235421937308]",2017_Feb_24_1027,60.0285947554,famFaceGrey,001,24,
39,./greyInner/CarenMiosga6_2_cut.png,0,75,75,38,,,2.nein,7.242,None,act,0.978,None,None,None,None,None,,['return'],[1.2493958987515725],2017_Feb_24_1027,60.0285947554,famFaceGrey,001,24,
193,./greyInner/TomCruise5_1_cut.png,0,76,76,192,,,1.ja,2.542,None,act,1.379,None,None,None,None,None,Tom Cruse,"['lshift', 't', 'o', 'm', 'space', 'lshift', 'c', 'r', 'u', 's', 'e', 'return']","[1.1829866226817103, 1.382907006098776, 1.816044634044374, 2.066556832991864, 2.28314762011496, 2.5324803260109547, 2.632468104448435, 3.099410702559908, 3.5656469520990868, 3.831944533994374, 4.0657686865602045, 5.248058583947113]",2017_Feb_24_1027,60.0285947554,famFaceGrey,001,24,
203,./greyInner/Usher2_1_cut.png,0,77,77,202,,,1.ja,2.146,None,None,None,music,1.796,None,None,None,Ascha,"['lshift', 'a', 's', 'c', 'h', 'a', 'return']","[0.8337636542278233, 1.0665696640289752, 1.5164710414728688, 1.749856051806546, 1.8995602482932554, 2.133133874867326, 4.465195010907792]",2017_Feb_24_1027,60.0285947554,famFaceGrey,001,24,
196,./greyInner/UrsulavonderLeyen1_1_cut.png,0,78,78,195,,,1.ja,3.022,None,None,None,None,None,polit,2.947,None,Verteidigungs Menisterin Von der Line,"['lshift', 'v', 'e', 'r', 't', 'e', 'i', 'd', 'i', 'g', 'u', 'n', 'g', 's', 'space', 'm', 'backspace', 'lshift', 'comma', 'backspace', 'lshift', 'm', 'backspace', 'space', 'lshift', 'm', 'e', 'n', 'i', 's', 't', 'e', 'r', 'i', 'n', 'space', 'lshift', 'v', 'o', 'n', 'space', 'd', 'e', 'r', 'space', 'lshift', 'k', 'backspace', 'lshift', 'l', 'i', 'n', 'e', 'return']","[3.3655674638266646, 3.4656729670264212, 3.8654944873051136, 4.098632500181793, 5.048704049250318, 5.714588985003957, 5.9812840082618095, 6.681697584653193, 7.114402165108913, 7.413945283968133, 7.663965412657035, 7.896995324049385, 8.09692950083081, 8.296908907016586, 8.513552622166571, 8.88006156331403, 9.49644371778004, 9.77962726479791, 10.079647377448055, 10.612661795363238, 11.145702837679892, 11.46221660650508, 12.461878829462876, 12.74521731124969, 13.211538566407398, 13.32878537236138, 13.678070571343596, 13.978013056221243, 14.27782915538728, 14.494885388367948, 14.694623891839456, 15.127567771130089, 15.394065837973812, 15.643898954302585, 15.910530463928353, 16.0771193424348, 17.359851878511563, 17.559915327988165, 17.97695738267339, 18.926507350098746, 19.126509531375177, 19.30982206239014, 19.5264276052053, 19.75954380531948, 19.942829070381777, 20.326109780425668, 20.509379969019392, 20.975782701260414, 21.258979720867046, 21.442226172042865, 21.692119915019703, 21.941950465140962, 22.45852287180378, 23.108244871354145]",2017_Feb_24_1027,60.0285947554,famFaceGrey,001,24,
156,./greyInner/NicoleKidman14_1_cut.png,0,79,79,155,,,1.ja,2.927,None,act,1.312,None,None,None,None,None,ex von Tom Cruse Nicole Kitman,"['e', 'x', 'space', 'v', 'o', 'n', 'space', 'lshift', 't', 'o', 'm', 'space', 'lshift', 'c', 'r', 'u', 's', 'e', 'space', 'lshift', 'n', 'i', 'c', 'o', 'l', 'e', 'space', 'lshift', 'k', 'i', 't', 'm', 'a', 'n', 'return']","[14.227803509352725, 14.743947680164638, 14.94412147655703, 15.726914158118689, 15.943654747595701, 16.460079276560464, 16.693346562131865, 16.976536524668518, 17.159841036285798, 17.626042962801876, 18.059595354009616, 18.675831555432524, 19.025814121261647, 19.325694375610965, 19.808836478380726, 20.008709386961982, 20.425186876030693, 20.624959702524848, 21.091625791795195, 37.15168145924781, 37.20175746710174, 37.46815513108322, 37.80145157518609, 38.168019859878314, 38.384555152767916, 38.63452556118909, 39.400589457827664, 39.800359012407625, 40.00047923922193, 40.21698983236547, 40.88357213496556, 41.383252802538664, 41.58331144037675, 41.966458707638594, 42.9492471549579]",2017_Feb_24_1027,60.0285947554,famFaceGrey,001,24,
222,./greyInner/notfamousface7_cut.png,0,80,80,221,,,2.nein,4.192,None,None,None,None,None,sport,1.223,None,,['return'],[1.2998905191789163],2017_Feb_24_1027,60.0285947554,famFaceGrey,001,24,
161,./greyInner/OmarEpps(DrEricForeman)1_5_cut.png,0,81,81,160,,,1.ja,1.266,None,act,1.466,None,None,None,None,None,Dr Haus,"['lshift', 'd', 'r', 'space', 'lshift', 'h', 'o', 'u', 's', 'backspace', 'backspace', 'backspace', 'a', 'u', 's', 'return']","[1.3998779768403438, 1.5497095213668217, 1.7994236298295618, 2.0495412743975976, 2.3661413319446183, 2.4825297415409295, 2.866000992480622, 3.315690016266217, 3.6654627946445544, 5.348269622424141, 5.5981765172136875, 5.814714697086401, 6.431027884729701, 6.714168768550735, 6.947539985520052, 7.680531884965603]",2017_Feb_24_1027,60.0285947554,famFaceGrey,001,24,
14,./greyInner/BarackObama4_1_cut.png,0,82,82,13,,,1.ja,3.129,None,None,None,None,None,polit,1.08,None,Obama,"['lshift', 'o', 'b', 'a', 'm', 'a', 'return']","[0.8333806477812686, 1.1331117413292304, 1.8663435811618, 2.249660218108602, 2.6994092269910652, 2.9327146848972916, 3.7493463388723285]",2017_Feb_24_1027,60.0285947554,famFaceGrey,001,24,
40,./greyInner/CarenMiosga9_1_cut.png,0,83,83,39,,,1.ja,9.942,None,None,None,None,None,polit,1.229,None,Angela Merkel,"['lshift', 'a', 'n', 'g', 'e', 'l', 'a', 'space', 'lshift', 'm', 'e', 'r', 'k', 'e', 'l', 'return']","[0.9008061419608566, 1.0172878973489787, 1.6005986961740746, 2.0336336758259677, 2.300160612502168, 2.63341856349507, 3.1831495768483364, 3.3831264168270536, 3.6994897417466746, 3.816208871314757, 4.166150377825943, 4.432392465486828, 4.682147954043103, 4.882443003732988, 5.148943316008172, 5.931906008806436]",2017_Feb_24_1027,60.0285947554,famFaceGrey,001,24,
126,./greyInner/KatjaBurkard1_1_cut.png,0,84,84,125,,,1.ja,5.725,None,act,0.794,None,None,None,None,None,Frinds,"['lshift', 'f', 'r', 'i', 'n', 'd', 's', 'return']","[0.8333787231254064, 0.9832975187018747, 1.183172031162485, 1.6163991555890789, 1.865986878340209, 2.432613800870513, 3.515521223977885, 4.798405166288376]",2017_Feb_24_1027,60.0285947554,famFaceGrey,001,24,
146,./greyInner/MilaKunis1_3_cut.png,0,85,85,145,,,1.ja,6.242,None,act,1.216,None,None,None,None,None,die Wilden 70 er ,"['d', 'i', 'e', 'space', 'lshift', 'w', 'i', 'l', 'd', 'e', 'n', 'space', 'lshift', '7', '7', '9', 'backspace', '0', 'space', 'e', 'r', 'space', 'i', 's', 't', 'space', 'm', 'i', 't', 'space', 'backspace', 'backspace', 'backspace', 'backspace', 'backspace', 'backspace', 'backspace', 'backspace', 'return']","[15.644168085298134, 15.860605862308148, 16.060622157724538, 16.2103266749873, 16.743564032165978, 16.860403773479447, 17.293463132100896, 17.576715645941476, 17.77656385477667, 17.95979394638107, 18.109930869581603, 18.459656814675782, 19.742434580156896, 19.942251352952553, 22.00822244911751, 23.22439815220241, 24.47389669924769, 24.740341838064978, 25.089959360898774, 25.39019824272509, 25.623365125434248, 27.022744616497675, 41.500180436453775, 41.766764792019785, 42.01640415969359, 42.23315886331147, 42.51635556214205, 42.76626983477763, 43.066242793367564, 43.2993702206395, 47.58113625887381, 47.7976478143446, 47.997574292504396, 48.164120507814005, 48.6138996696327, 48.8636275714598, 49.11380135181389, 49.53039239555801, 50.19676555225851]",2017_Feb_24_1027,60.0285947554,famFaceGrey,001,24,
209,./greyInner/WillSmith5_1_cut.png,0,86,86,208,,,1.ja,1.712,None,act,3.595,None,None,None,None,None,Will Smith,"['lshift', 'w', 'i', 'l', 'l', 'space', 'lshift', 's', 'm', 'i', 't', 'h', 'return']","[1.9664564622071339, 2.132902274654043, 2.615823042039665, 2.8993584802410624, 3.0491531355364714, 3.332453444989369, 3.582315431150164, 3.732261492679754, 4.26519122575246, 4.598670191352539, 5.031633958750717, 5.364957027254604, 6.197976802127414]",2017_Feb_24_1027,60.0285947554,famFaceGrey,001,24,
10,./greyInner/AngelaMerkel6_1_cut.png,0,87,87,9,,,1.ja,1.584,None,None,None,None,None,polit,1.418,None,Angela Merkel,"['lshift', 'a', 'n', 'g', 'e', 'l', 'a', 'space', 'm', 'e', 'r', 'k', 'e', 'l', 'backspace', 'backspace', 'backspace', 'backspace', 'backspace', 'backspace', 'lshift', 'm', 'e', 'r', 'k', 'e', 'l', 'return']","[1.1335342032134577, 1.3167569169709168, 1.8666159199156027, 2.182997529062959, 2.466221493847115, 2.766145694497027, 2.999383147908702, 3.082863797581922, 3.432856949016241, 3.7991990866867127, 4.049022579737539, 4.315618483235994, 4.532165003282898, 4.78205200996581, 6.2982109364693315, 6.464601575458801, 6.647888123624398, 6.814467699628949, 6.997845668931404, 7.180941676201655, 7.847303605745765, 8.047289106673816, 8.480580707060653, 8.730566833502053, 8.980258166874592, 9.246842522440602, 9.996664892775698, 10.579630536712102]",2017_Feb_24_1027,60.0285947554,famFaceGrey,001,24,
130,./greyInner/KatjaBurkard7_1_cut.png,0,88,88,129,,,2.nein,8.722,None,act,1.16,None,None,None,None,None,,['return'],[1.3832027614953404],2017_Feb_24_1027,60.0285947554,famFaceGrey,001,24,
143,./greyInner/MariskaHargitay(Liv)4_4_cut.png,0,89,89,142,,,1.ja,2.91,None,act,0.796,None,None,None,None,None,Penolope Cruse,"['lshift', 'p', 'e', 'n', 'o', 'l', 'o', 'p', 'e', 'space', 'lshift', 'c', 'r', 'u', 's', 'e', 'return']","[1.0833484899949326, 1.2665365599541474, 1.8163503334944835, 2.0829629173413196, 2.516099262183161, 2.8325453472898516, 3.0992201616645616, 3.4656524373676802, 3.7487503372158244, 3.832182549725985, 4.181907211715952, 4.331978696629449, 4.914828540459894, 5.348269622423686, 5.681405357791846, 5.964593074896584, 6.714334288924874]",2017_Feb_24_1027,60.0285947554,famFaceGrey,001,24,
16,./greyInner/BastianSchweinsteiger1_1_cut.png,0,90,90,15,,,1.ja,2.156,None,None,None,None,None,sport,1.572,None,Sebastian Schweinsteiger,"['lshift', 's', 'e', 'b', 'a', 's', 't', 'i', 'a', 'n', 'space', 'lshift', 's', 'c', 'h', 'w', 'e', 'i', 'n', 's', 't', 'e', 'i', 'g', 'e', 'r', 'return']","[2.032811527146805, 2.082771414117815, 3.0826190455563847, 3.631687977414913, 3.882011239346866, 4.148624785520951, 4.365059033995749, 4.848034012512471, 5.531592418268701, 5.914605280420801, 6.114533683236004, 6.347743870694103, 6.464576234161541, 6.847529111216318, 7.014082062820307, 7.330606417250237, 7.597300478180841, 7.830479229598495, 8.130392203092015, 8.396950896584713, 8.596807445594095, 8.846708245640912, 9.246583014723, 9.529726785526691, 9.746265606951056, 10.012876266142484, 10.66277661710319]",2017_Feb_24_1027,60.0285947554,famFaceGrey,001,24,
28,./greyInner/Beyonce3_2_cut.png,0,91,91,27,,,1.ja,7.84,None,None,None,music,4.025,None,None,None,,['return'],[1.633092013609712],2017_Feb_24_1027,60.0285947554,famFaceGrey,001,24,
153,./greyInner/NeilPatrickHarris(Barney)13_4_cut.png,0,92,92,152,,,1.ja,1.319,None,act,1.856,None,None,None,None,None,How i met your Mother,"['lshift', 'h', 'o', 'w', 'space', 'i', 'space', 'm', 'e', 't', 'space', 'y', 'o', 'u', 'r', 'space', 'lshift', 'm', 'o', 't', 'h', 'e', 'r', 'return']","[0.7834278178797831, 0.9001880067653474, 1.2500791514576122, 2.0997786325388006, 2.2328486729984434, 2.6329255309083237, 3.03266525332765, 3.6158538365280037, 3.8654880717867854, 4.098889441692336, 4.382327043238547, 5.248405342715159, 5.665028784826973, 6.098104182244242, 6.3812588594300905, 6.531364988142741, 6.84775237125541, 6.914356999859592, 7.180965092843508, 7.530869068572429, 7.797558959416165, 7.963917841588227, 8.197381121246508, 8.663684733728587]",2017_Feb_24_1027,60.0285947554,famFaceGrey,001,24,
68,./greyInner/EmmaWatson(HermioneGranger)3_1_cut.png,0,93,93,67,,,1.ja,1.593,None,act,1.01,None,None,None,None,None,Ema Wothsen Harry Potter,"['lshift', 'm', 'backspace', 'lshift', 'e', 'm', 'a', 'space', 'lshift', 'w', 'o', 't', 'h', 's', 'e', 'n', 'space', 'backspace', 'backspace', 'n', 'space', 'lshift', 'h', 'a', 'r', 'r', 'y', 'space', 'lshift', 'p', 'o', 't', 't', 'e', 'r', 'return']","[1.583068613006617, 1.799685382979078, 2.316060512452168, 2.6157996253978126, 2.915781565713587, 3.4821646985456027, 3.698886041467631, 3.7654499315303838, 4.065309335444908, 4.198524366619495, 4.664917154806972, 5.014971895217968, 5.265004213391876, 5.897915630159332, 6.2143963590651765, 6.397704078441166, 6.6141883679592866, 8.413693474872161, 8.630007111602026, 10.812453868413286, 11.0624438441655, 11.278942247824489, 11.428896649527815, 11.728894307862902, 11.961973297970871, 12.128776775566621, 12.49516831272831, 12.645115657361202, 12.878326165595354, 13.811436367199349, 14.144454698581285, 14.527750164316785, 14.677509213485791, 14.910857976141415, 15.177319795306175, 15.910468233400024]",2017_Feb_24_1027,60.0285947554,famFaceGrey,001,24,
101,./greyInner/JimParsons(SheldonCooper)1_1_cut.png,0,94,94,100,,,1.ja,2.162,None,act,1.113,None,None,None,None,None,Scheldon Big  Beng,"['lshift', 's', 'c', 'h', 'e', 'l', 'd', 'o', 'n', 'space', 'lshift', 'b', 'i', 'g', 'space', 'space', 'lshift', 'b', 'e', 'n', 'g', 'return']","[0.8498977205981646, 0.9502790910873955, 1.4496947977522723, 1.6164992376752707, 1.9995188361217515, 2.265894687340733, 2.8827570433568326, 3.082588251068046, 3.449112910236181, 3.7322422461238602, 7.147473520749372, 7.347521572982259, 7.713988492484532, 8.04729071055408, 8.347164228608563, 8.613541362931755, 9.196580464553335, 9.479870188401037, 9.87979499852554, 10.312900548879043, 10.979486059238297, 11.745773536692468]",2017_Feb_24_1027,60.0285947554,famFaceGrey,001,24,
216,./greyInner/notfamousface14_6_cut.png,0,95,95,215,,,1.ja,8.022,None,None,None,music,4.094,None,None,None,Mical Jakson,"['lshift', 'm', 'i', 'c', 'a', 'l', 'space', 'lshift', 'j', 'a', 'k', 's', 'o', 'n', 'return']","[0.8667743832202177, 1.0832394261833542, 1.3166160963437505, 1.8664860056696853, 2.232855730068877, 2.449186367922266, 2.7326380836084354, 2.9824926919227437, 3.465706327722728, 3.815658740614708, 4.248651377844908, 4.5485986743615285, 4.76519234846819, 5.048452881706908, 5.91472108052767]",2017_Feb_24_1027,60.0285947554,famFaceGrey,001,24,
15,./greyInner/BarackObama5_2_cut.png,0,96,96,14,,,1.ja,2.277,None,None,None,None,None,polit,2.328,None,Obama,"['lshift', 'o', 'b', 'a', 'm', 'a', 'return']","[0.9168439755549116, 1.1667620975022146, 1.8995207928555828, 2.1996964818254128, 2.649513815978935, 2.8827413253366103, 3.6156812590834306]",2017_Feb_24_1027,60.0285947554,famFaceGrey,001,24,
75,./greyInner/GuentherJauch9_1_cut.png,0,97,97,74,,,1.ja,2.337,None,None,None,host,1.37,None,None,None,Günter Jauch,"['lshift', 'g', u'\xfc', 'n', 't', 'e', 'r', 'space', 'lshift', 'j', 'a', 'u', 'c', 'h', 'return']","[0.7168020180652093, 0.9164215136706844, 1.7661928485576937, 2.1494549535982514, 2.4992421668930547, 2.7492103298827715, 2.9823605322444564, 3.5822044426822686, 3.832075089792852, 3.915503132216145, 4.18181322437249, 4.3485810958409274, 4.848417660510677, 5.0482774172787686, 6.081226878070993]",2017_Feb_24_1027,60.0285947554,famFaceGrey,001,24,
18,./greyInner/BastianSchweinsteiger14_1_cut.png,0,98,98,17,,,1.ja,2.361,None,None,None,None,None,sport,0.846,None,Sebastian Schweinsteiger,"['lshift', 's', 'e', 'b', 'a', 's', 't', 'i', 'a', 'n', 'space', 'lshift', 's', 'c', 'h', 'w', 'e', 'i', 'n', 's', 't', 'e', 'i', 'g', 'e', 'r', 'return']","[0.7006564037619682, 0.8006178785744851, 1.200389037034256, 1.7001550310014863, 1.900292579715824, 2.133433479575615, 2.316645928503931, 2.7997299708322316, 3.4329243119600505, 3.5994711688208554, 3.8327750228472723, 4.065905016326724, 4.29922972078748, 4.698973613294584, 4.848806120148765, 5.232065338205757, 5.49867760127654, 5.7151022264743006, 5.9484137791223475, 6.181650270205864, 6.431572241463982, 6.631491341777291, 6.9980487200882635, 7.481250166402788, 7.647675128415358, 7.880918997344452, 8.313470567687546]",2017_Feb_24_1027,60.0285947554,famFaceGrey,001,24,
79,./greyInner/GeorgeClooney3_1_cut.png,0,99,99,78,,,1.ja,2.415,None,act,2.129,None,None,None,None,None,Georg Kluney,"['lshift', 'g', 'e', 'o', 'r', 'g', 'space', 'lshift', 'k', 'l', 'u', 'm', 'n', 'e', 'y', 'backspace', 'backspace', 'backspace', 'backspace', 'n', 'e', 'y', 'return']","[0.833503184181609, 1.2334664874169903, 1.699918939924828, 2.1497622569277155, 2.5662031775418654, 3.0158569159766557, 3.2325971846776156, 3.449270731987781, 3.6656940740813297, 3.998851622211987, 4.348879738220603, 4.615656238562224, 4.798671410300813, 5.415098794171172, 6.1647691167208905, 6.447745763271996, 6.7144693355867275, 6.930908716475642, 8.363899749826487, 8.680358986745887, 9.146813043133989, 9.663286330037408]",2017_Feb_24_1027,60.0285947554,famFaceGrey,001,24,
182,./greyInner/SigmarGabriel11_3_cut.png,0,100,100,181,,,1.ja,2.813,None,None,None,None,None,polit,1.821,None,SPD Sigmar Gabriel,"['lshift', 's', 'lshift', 'p', 'lshift', 'd', 'space', 'lshift', 'd', 'i', 'g', 'm', 'a', 'r', 'space', 'lshift', 'f', 'backspace', 'backspace', 'backspace', 'backspace', 'backspace', 'backspace', 'backspace', 'backspace', 'lshift', 's', 'i', 'g', 'm', 'a', 'r', 'space', 'lshift', 'g', 'a', 'b', 'r', 'i', 'e', 'l', 'return']","[0.6003610012185163, 0.7335612767010389, 1.2500720943880879, 1.43325759813888, 1.7330547715255307, 2.166253667671299, 2.5662044606460768, 2.8326723745531126, 3.6490554271913425, 4.132158074523431, 4.448659974639668, 5.015178154133537, 5.214978567357321, 5.431626452593264, 5.664832469965404, 5.964734216300712, 6.248084887572986, 6.681250743798955, 7.414279853251173, 7.630647701111229, 7.814004499203293, 7.980591773829474, 8.163982894944638, 8.34711867842907, 8.53034267529074, 9.013438907103591, 9.113453309942088, 9.563273210303123, 10.029564312524599, 10.479468256175096, 10.729377396396558, 10.979424149486476, 11.245769526993172, 11.512492136980654, 11.879146389618654, 12.528800705450521, 12.928394154051603, 13.295198850595625, 13.561748241586429, 13.844913825153526, 14.161317888614576, 14.911010023926792]",2017_Feb_24_1027,60.0285947554,famFaceGrey,001,24,
207,./greyInner/WillSmith14_1_cut.png,0,101,101,206,,,1.ja,1.758,None,act,1.408,None,None,None,None,None,Will Smith,"['lshift', 'w', 'o', 'l', 'backspace', 'backspace', 'i', 'l', 'l', 'space', 'lshift', 's', 'm', 'i', 't', 'h', 'return']","[0.9666383421536011, 1.0997709339171706, 1.799589791755352, 2.1660823733318466, 2.8824737982213264, 3.098798020556387, 3.748877685255138, 4.065300674496029, 4.248577278607627, 4.4984597944276175, 4.764891460657054, 4.948387796272982, 6.031192250310596, 6.7474614595757885, 7.330638494842788, 7.6139250109308705, 8.596969758208616]",2017_Feb_24_1027,60.0285947554,famFaceGrey,001,24,
186,./greyInner/TaylorSwift1_2_cut.png,0,102,102,185,,,1.ja,2.897,None,None,None,music,1.583,None,None,None,Lelly Klogson,"['lshift', 'l', 'e', 'l', 'l', 'y', 'space', 'lshift', 'k', 'l', 'o', 'g', 's', 'o', 'n', 'return']","[20.00888837992443, 20.125311112544296, 20.591822267045245, 21.175165785014542, 21.341545838397906, 21.72483200163242, 22.657905634781855, 23.39085166327095, 23.590920245163034, 23.840727699417585, 24.12386313004845, 24.59037652998086, 24.906810104826036, 25.43932892394787, 25.873079554673495, 33.13691325673881]",2017_Feb_24_1027,60.0285947554,famFaceGrey,001,24,
140,./greyInner/LisaEdelstein(DrLisaCuddy)9_1_cut.png,0,103,103,139,,,1.ja,13.99,None,dummy,1.379,None,None,None,None,None,Frinds,"['lshift', 'f', 'r', 'i', 'n', 'd', 's', 'return']","[0.9833834866485631, 1.5497098421428745, 1.8662720481315773, 2.3495084590213082, 2.6493271243944037, 3.7488491361982597, 4.332088401994042, 5.131775068076422]",2017_Feb_24_1027,60.0285947554,famFaceGrey,001,24,
107,./greyInner/JoachimLoew12_1_cut.png,0,104,104,106,,,2.nein,12.675,None,None,None,None,None,sport,1.863,None,,['return'],[1.4498138056178504],2017_Feb_24_1027,60.0285947554,famFaceGrey,001,24,
184,./greyInner/SigmarGabriel4_5_cut.png,0,105,105,183,,,1.ja,1.198,None,None,None,None,None,polit,2.274,None,SPD Sigmar Gabriel,"['lshift', 's', 'lshift', 'p', 'lshift', 'd', 'space', 'lshift', 's', 'i', 'g', 'm', 'a', 'r', 'space', 'lshift', 'g', 'a', 'b', 'r', 'i', 'e', 'l', 'return']","[1.2167511750822086, 1.3499716594478741, 1.7332911833782418, 1.8996763691757224, 2.266329980262526, 2.4830400960281622, 3.2159081759691617, 3.498993565555793, 3.615714619780192, 4.348779976910919, 4.6984841092425995, 5.1318344116216394, 5.36502054088578, 5.631678995689072, 5.89814723037307, 6.281328820658018, 6.681159964214203, 7.280920793689802, 7.680509751427962, 8.080650764521124, 8.313874103792841, 8.696974537770075, 9.063580032468963, 9.813214107340173]",2017_Feb_24_1027,60.0285947554,famFaceGrey,001,24,
13,./greyInner/BarackObama2_1_cut.png,0,106,106,12,,,1.ja,1.746,None,None,None,None,None,polit,0.878,None,Obama,"['lshift', 'o', 'b', 'a', 'm', 'a', 'return']","[0.8001659053052208, 1.0835082364028494, 1.6664831828420574, 1.9831297528971845, 2.31627158300671, 2.849111178046769, 3.7324228429670256]",2017_Feb_24_1027,60.0285947554,famFaceGrey,001,24,
85,./greyInner/HughLaurie(DrHouse)9_2_cut.png,0,107,107,84,,,1.ja,2.155,None,act,1.319,None,None,None,None,None,Dr Haus,"['lshift', 'd', 'r', 'space', 'lshift', 'h', 'a', 'u', 's', 'return']","[0.7167301642593884, 0.9169235279832719, 1.1833725161113762, 1.499747709739495, 1.6998384251692187, 1.8664699668734102, 2.5994894530476813, 3.599071161250322, 4.048888816179897, 4.898515481127106]",2017_Feb_24_1027,60.0285947554,famFaceGrey,001,24,
82,./greyInner/HughLaurie(DrHouse)4_1_cut.png,0,108,108,81,,,1.ja,1.508,None,act,0.909,None,None,None,None,None,Dr Haus,"['lshift', 'd', 'r', 'space', 'lshift', 'h', 'a', 'u', 's', 'return']","[0.6500485494352688, 0.8832600199975786, 1.1000240261164436, 1.3498613125320844, 1.6162852801389818, 1.799582093133722, 2.1994016887574617, 2.4165769296041617, 3.165713481025705, 4.048804772889525]",2017_Feb_24_1027,60.0285947554,famFaceGrey,001,24,
59,./greyInner/ElvisPresley5_2_cut.png,0,109,109,58,,,1.ja,2.663,None,None,None,music,1.132,None,None,None,Elvis,"['lshift', 'e', 'l', 'v', 'i', 's', 'return']","[1.0165507542888008, 1.250018524809093, 1.9496404262345095, 2.8825610492713167, 3.3156906578187773, 3.615569949840392, 4.581906762629842]",2017_Feb_24_1027,60.0285947554,famFaceGrey,001,24,
72,./greyInner/GuentherJauch3_1_cut.png,0,110,110,71,,,1.ja,1.783,None,None,None,host,0.866,None,None,None,Günter Jauch,"['lshift', 'g', u'\xfc', 'n', 't', 'e', 'r', 'space', 'lshift', 'j', 'a', 'u', 'c', 'h', 'return']","[0.8166637315671323, 0.9500914371756153, 1.516607050461971, 1.8331034973871283, 2.1330729274422993, 2.3662487918772968, 2.5994612247668556, 2.7495141046774734, 3.0659143188277085, 3.3158545743126524, 3.58246619583133, 3.7324215598628143, 4.265406787169013, 4.448803361474347, 5.232060526565874]",2017_Feb_24_1027,60.0285947554,famFaceGrey,001,24,
31,./greyInner/BritneySpears1_1_cut.png,0,111,111,30,,,1.ja,2.894,None,None,None,music,1.326,None,None,None,Brithney Spears,"['lshift', 'b', 'r', 'i', 't', 'h', 'n', 'e', 'y', 'space', 'lshift', 's', 'p', 'e', 'a', 'r', 's', 'return']","[0.8332523374137963, 1.183245809624168, 2.1662642532774044, 2.715947150242755, 3.498928768820406, 3.9154973582499224, 4.265288741631593, 4.4985008537450994, 4.96514352637314, 5.114896480799871, 5.41485468369774, 5.514745587807738, 6.09804548025113, 6.664416423598595, 7.080870175249402, 7.447292827675483, 7.847189088743107, 8.613604235011735]",2017_Feb_24_1027,60.0285947554,famFaceGrey,001,24,
1,./greyInner/AlysonHannigan(Lily)1_1_cut.png,0,112,112,0,,,1.ja,3.737,None,dummy,1.151,None,None,None,None,None,Lilly How i Meth your Mother,"['lshift', 'l', 'i', 'l', 'l', 'y', 'space', 'lshift', 'h', 'o', 'w', 'space', 'i', 'space', 'lshift', 'm', 'e', 't', 'h', 'space', 'y', 'o', 'u', 'r', 'space', 'lshift', 'm', 'o', 't', 'h', 'e', 'r', 'return']","[0.8666402988856134, 1.0668266055390632, 1.4666956006540204, 1.8165197031794378, 1.9330062702065334, 2.1662979347483997, 2.266296940342727, 2.5494169737294214, 2.6660844583739163, 2.9994909286169786, 3.415788141619487, 3.532230762346444, 4.015665412753151, 4.415503613379769, 4.881891589928273, 5.031648072889766, 5.415086604685712, 5.864800648993878, 6.098030403783014, 6.314598415815453, 7.297555270492012, 7.91371320259077, 8.44730565871123, 8.913528114886503, 9.06348027115746, 9.36342211448391, 9.446569798754354, 9.696496902426588, 10.096564778611537, 10.32969380976192, 10.546371847935006, 10.796103278297778, 11.112805984138504]",2017_Feb_24_1027,60.0285947554,famFaceGrey,001,24,
219,./greyInner/notfamousface4_2_cut.png,0,113,113,218,,,2.nein,6.702,None,dummy,1.358,None,None,None,None,None,,['return'],[1.1501702838959318],2017_Feb_24_1027,60.0285947554,famFaceGrey,001,24,
177,./greyInner/Shakira2_1_cut.png,0,114,114,176,,,2.nein,4.662,None,None,None,music,1.579,None,None,None,,['return'],[1.3334000547238247],2017_Feb_24_1027,60.0285947554,famFaceGrey,001,24,
80,./greyInner/GeorgeClooney4_2_cut.png,0,115,115,79,,,1.ja,1.299,None,dummy,0.834,None,None,None,None,None,Georg Kluney,"['lshift', 'g', 'e', 'o', 'r', 'g', 'space', 'lshift', 'k', 'l', 'u', 'n', 'e', 'y', 'return']","[0.949871384895232, 1.1332317115220576, 2.399349017350687, 2.782455866847158, 3.049022258961486, 3.4655565253679015, 3.6986730462576816, 3.9154489210859538, 4.098560646376427, 4.365179004189486, 7.663594916471084, 7.930338697668958, 8.113523880644607, 8.630064209715783, 9.346349457776341]",2017_Feb_24_1027,60.0285947554,famFaceGrey,001,24,
17,./greyInner/BastianSchweinsteiger12_1_cut.png,0,116,116,16,,,1.ja,2.296,None,None,None,None,None,sport,1.18,None,Sebastian Schweinsteiger,"['lshift', 's', 'e', 'b', 'a', 's', 't', 'i', 'a', 'n', 'space', 'lshift', 's', 'c', 'h', 'w', 'e', 'i', 'n', 's', 't', 'e', 'i', 'g', 'e', 'r', 'return']","[0.8338695102811471, 0.9838816516494262, 1.5170971960651514, 1.9334781315828877, 2.1166408602439333, 2.366687613333852, 2.599830758625103, 3.033029333995728, 3.4329794854174907, 3.616035074921456, 3.799259713335232, 3.966004168161817, 4.165904663472247, 4.482483549808421, 4.682439218577201, 5.048820811684891, 5.281593140014593, 5.465365984472555, 5.731826841310067, 5.981718659631042, 6.215002304775226, 6.414911781810588, 6.748094671238505, 7.197911043063868, 7.3478792381310996, 7.597808587235704, 7.914385869692524]",2017_Feb_24_1027,60.0285947554,famFaceGrey,001,24,
61,./greyInner/EmilyDeschanel15_1_cut.png,0,117,117,60,,,1.ja,2.792,None,act,2.909,None,None,None,None,None,Bones,"['lshift', 'b', 'o', 'n', 'e', 'y', 'backspace', 's', 'return']","[6.880984114855892, 7.047444041442759, 7.4471273073013435, 7.730392972955087, 7.980382948707302, 8.546587088577326, 9.01330418121779, 9.279608178630951, 9.846425000505405]",2017_Feb_24_1027,60.0285947554,famFaceGrey,001,24,
34,./greyInner/BritneySpears7_1_cut.png,0,118,118,33,,,1.ja,2.613,None,None,None,music,1.046,None,None,None,Brithney Spears,"['lshift', 'b', 'r', 'i', 't', 'h', 'n', 'e', 'y', 'space', 'lshift', 's', 'p', 'e', 'a', 'r', 's', 'return']","[0.783287638803813, 0.8838614748437976, 1.7333267895046447, 2.0666065532595894, 2.383217517187404, 2.666402026533433, 3.0160824214472086, 3.2663123375868963, 3.7993328502443546, 3.965849233393783, 4.232253954444786, 4.332552243971804, 4.865642685779676, 5.198705925789909, 6.231613364935583, 6.598218218083275, 7.014728747071786, 8.147484106354568]",2017_Feb_24_1027,60.0285947554,famFaceGrey,001,24,
92,./greyInner/JanHofer3_1_cut.png,0,119,119,91,,,2.nein,4.928,None,None,None,None,None,polit,1.479,None,,['return'],[0.9333995414826859],2017_Feb_24_1027,60.0285947554,famFaceGrey,001,24,
204,./greyInner/Usher4_1_cut.png,0,120,120,203,,,1.ja,1.61,None,None,None,music,1.793,None,None,None,Ascha,"['lshift', 'a', 's', 'c', 'h', 'a', 'return']","[0.8331025350598793, 1.016648590943987, 1.449899452788486, 1.7162996829774784, 1.9164410810017216, 2.2828294104037923, 3.032436540098388]",2017_Feb_24_1027,60.0285947554,famFaceGrey,001,24,
60,./greyInner/ElvisPresley6_1_cut.png,0,121,121,59,,,1.ja,1.245,None,None,None,music,1.01,None,None,None,Elvis,"['lshift', 'e', 'l', 'v', 'i', 's', 'return']","[0.6501431783308362, 0.8833783863110511, 1.4998920589032423, 2.18294460103607, 2.3994125309827723, 2.699004407782013, 3.3322888869424787]",2017_Feb_24_1027,60.0285947554,famFaceGrey,001,24,
94,./greyInner/JanHofer7_1_cut.png,0,122,122,93,,,1.ja,13.068,None,dummy,0.99,None,None,None,None,None,Tatort,"['lshift', 't', 'a', 't', 'o', 'r', 't', 'return']","[0.9336000264320319, 1.1000522543972693, 1.416155430046274, 1.7663355938411769, 2.1993461945230592, 2.5159805750936357, 2.7826287650668746, 3.6319818081565245]",2017_Feb_24_1027,60.0285947554,famFaceGrey,001,24,
121,./greyInner/KaleyCuoco(Penny)10_1_cut.png,0,123,123,120,,,1.ja,1.791,None,dummy,1.259,None,None,None,None,None,Big Bang,"['lshift', 'b', 'i', 'g', 'space', 'lshift', 'b', 'a', 'n', 'g', 'return']","[0.9668179766676985, 1.6833976970219737, 2.0832756738627722, 2.4830837215531574, 2.7329245365035604, 3.0160157000573236, 3.1658902285562363, 3.4324309585972514, 3.649076598402644, 3.9991813798560543, 5.04850163964602]",2017_Feb_24_1027,60.0285947554,famFaceGrey,001,24,
53,./greyInner/DannFlorek(DonaldDonCragen)2_1_cut.png,0,124,124,52,,,2.nein,2.81,None,None,None,None,None,polit,1.161,None,,['return'],[1.099910471441035],2017_Feb_24_1027,60.0285947554,famFaceGrey,001,24,
25,./greyInner/BenedictCumberbatch6_5_cut.png,0,125,125,24,,,1.ja,1.051,None,act,1.126,None,None,None,None,None,Schörlock Homes,"['lshift', 's', 'c', 'h', u'\xf6', 'r', 'l', 'o', 'c', 'k', 'space', 'lshift', 'h', 'o', 'm', 'e', 's', 'return']","[1.2500355259335265, 1.516330541620846, 1.916571316025511, 2.1164060522723958, 4.14884323392198, 4.648539298739706, 5.648376023797027, 5.84803497484063, 6.58130274157611, 6.8312272790408315, 7.080919253965476, 7.414105992704208, 7.647329973527121, 8.080762715317178, 8.347171285679906, 8.630265656992378, 9.196877823830619, 10.679441567619506]",2017_Feb_24_1027,60.0285947554,famFaceGrey,001,24,
20,./greyInner/BastianSchweinsteiger6_2_cut.png,0,126,126,19,,,1.ja,1.836,None,None,None,None,None,sport,0.777,None,Sebastian Schweinsteiger,"['lshift', 's', 'e', 'b', 'a', 's', 't', 'i', 'a', 'n', 'space', 'lshift', 's', 'c', 'h', 'w', 'e', 'i', 'n', 's', 't', 'e', 'i', 'g', 'e', 'r', 'return']","[0.7501466747889936, 0.8999467832754817, 1.2831274112331812, 1.5165765767505945, 1.7331064164491181, 1.949706185298055, 2.1494735586020397, 2.582729552861565, 2.8823541488036426, 3.0491002075104916, 3.233773469971311, 3.6489630437272353, 3.765433892735018, 4.11540972226976, 4.298683760173844, 4.581942368757154, 4.848132811495816, 5.031642619700506, 5.2816098203629736, 5.5481377193673325, 5.797987195267524, 6.03120700600266, 6.38120144054119, 6.714347761513636, 6.864253084501797, 7.147524844896907, 7.497380383461859]",2017_Feb_24_1027,60.0285947554,famFaceGrey,001,24,
58,./greyInner/ElvisPresley4_10_cut.png,0,127,127,57,,,1.ja,1.705,None,act,1.11,None,None,None,None,None,Elvis,"['lshift', 'e', 'l', 'v', 'i', 's', 'return']","[0.6002612399079226, 0.7336992103455486, 1.3833034851340926, 2.032958442517156, 2.282854110149856, 2.53255153826467, 3.0325414338230985]",2017_Feb_24_1027,60.0285947554,famFaceGrey,001,24,
218,./greyInner/notfamousface3_3_cut.png,0,128,128,217,,,1.ja,8.453,None,act,1.863,None,None,None,None,None,Penolope Cruse,"['lshift', 'p', 'e', 'n', 'o', 'l', 'o', 'p', 'e', 'space', 'lshift', 'c', 'r', 'u', 's', 'e', 'return']","[1.0003085864336754, 1.2502081033771901, 1.7498720906023664, 2.068121577922284, 2.4162587198925394, 2.732850116489317, 2.99934208859122, 3.7821071834241593, 4.0155643683392555, 4.115545731257953, 4.448888367092877, 4.531817923739254, 4.94864698321453, 5.231797169537458, 5.531544943432891, 5.764990580414633, 6.164772966031705]",2017_Feb_24_1027,60.0285947554,famFaceGrey,001,24,
70,./greyInner/EmmaWatson(HermioneGranger)9_1_cut.png,0,129,129,69,,,1.ja,2.112,None,dummy,0.845,None,None,None,None,None,Ema Wothsen Harry Potter,"['lshift', 'e', 'm', 'a', 'space', 'lshift', 'w', 'o', 't', 'h', 's', 'e', 'n', 'space', 'lshift', 'h', 'a', 'r', 'r', 'y', 'space', 'lshift', 'p', 'o', 't', 't', 'e', 'r', 'return']","[0.7179253753320154, 0.9004147953401116, 1.3835415008661585, 1.5833624437482285, 1.6667317841784097, 2.1666350702389536, 2.3830321087070843, 3.115998346079323, 3.732418031328052, 3.9823521920707208, 4.215550190044269, 4.481992121101939, 4.648377948452435, 4.848686791506225, 4.982026604513521, 5.081965304235382, 5.7816561724830535, 6.314812052578418, 6.46477703988694, 7.264525294945997, 7.447613603593709, 7.897184261065377, 8.180698848831526, 8.430619857761485, 8.880322995688402, 9.063544747118613, 9.263520624769626, 9.530093753178335, 9.879993879595531]",2017_Feb_24_1027,60.0285947554,famFaceGrey,001,24,
166,./greyInner/RobertSeanLeonard(Wilson)1_1_cut.png,0,130,130,165,,,1.ja,2.025,None,dummy,0.944,None,None,None,None,None,Dr Hous,"['lshift', 'd', 'r', 'space', 'lshift', 'h', 'o', 'u', 's', 'return']","[0.7333364127816822, 0.9001960261639397, 1.1165609870404296, 1.3667475984302655, 1.583198527253444, 1.7164757889559041, 2.2996884303502156, 2.616065548633742, 2.9993754492861626, 3.9988541884195]",2017_Feb_24_1027,60.0285947554,famFaceGrey,001,24,
129,./greyInner/KatjaBurkard5_3_cut.png,0,131,131,128,,,1.ja,3.702,None,dummy,1.086,None,None,None,None,None,Frinds,"['lshift', 'f', 'r', 'i', 'n', 'd', 's', 'return']","[0.933290477670198, 1.2332833243672212, 1.4497663307820403, 1.8828901653632784, 2.1828669732640265, 2.5657354862532884, 3.0323332502521225, 3.865359119868117]",2017_Feb_24_1027,60.0285947554,famFaceGrey,001,24,
3,./greyInner/AlysonHannigan(Lily)14_2_cut.png,0,132,132,2,,,1.ja,2.295,None,act,1.996,None,None,None,None,None,Lilly How i Met your Mother,"['lshift', 'l', 'i', 'l', 'l', 'y', 'space', 'lshift', 'h', 'o', 'w', 'space', 'i', 'space', 'lshift', 'm', 'e', 't', 'space', 'y', 'o', 'u', 'r', 'space', 'lshift', 'm', 'o', 't', 'h', 'e', 'r', 'return']","[0.9834312822595166, 1.1999543856636592, 1.5666426405496168, 1.8999647467262548, 2.049706794771737, 2.2830507457874774, 2.432811398835838, 3.615642765973462, 3.898891751278825, 4.198784515889201, 4.848558801914805, 4.9485273337968465, 5.381583163883079, 5.764694504241561, 6.1480047256700345, 6.3478144413957125, 6.814325595896662, 7.364196467550755, 8.880304711459758, 9.99621356105854, 10.329737756062968, 10.862781685362279, 11.112720016192725, 11.245919329347089, 11.512419000070622, 11.57912691852016, 11.812159075343516, 12.161979970109314, 12.428780528644893, 12.595431958455265, 12.862066034288546, 14.128025839141628]",2017_Feb_24_1027,60.0285947554,famFaceGrey,001,24,
117,./greyInner/JudithRakers2_1_cut.png,0,133,133,116,,,2.nein,5.429,None,dummy,0.797,None,None,None,None,None,,['return'],[1.2500178832569873],2017_Feb_24_1027,60.0285947554,famFaceGrey,001,24,
212,./greyInner/notfamousface11_1_cut.png,0,134,134,211,,,2.nein,3.146,None,None,None,music,2.253,None,None,None,,['return'],[0.9501023435568641],2017_Feb_24_1027,60.0285947554,famFaceGrey,001,24,
198,./greyInner/UrsulavonderLeyen5_1_cut.png,0,135,135,197,,,1.ja,1.525,None,None,None,None,None,polit,3.691,None,Von der Line Verteidigungs Menisterin,"['lshift', 'v', 'o', 'n', 'space', 'd', 'e', 'r', 'space', 'lshift', 'l', 'i', 'n', 'e', 'space', 'lshift', 'v', 'e', 'r', 't', 'e', 'i', 'd', 'i', 'g', 'u', 'n', 'g', 's', 'space', 'lshift', 'm', 'e', 'n', 'i', 's', 't', 'e', 'r', 'i', 'n', 'e', 'backspace', 'return']","[1.5498160189717964, 1.649741566880948, 2.0328827394005202, 2.299479605227134, 2.4493486805367866, 2.7326653495611026, 2.9658402516679416, 3.199036324986082, 3.315814156547276, 3.6988533223238846, 3.882304428536372, 4.148759190630699, 4.382057912242999, 4.998368854454384, 6.714365724964409, 7.030964820184636, 7.130749226689659, 7.813908907979567, 8.06375645922435, 8.646899492243392, 8.930167403328596, 9.263287420676534, 9.913103728346869, 10.412955690259878, 10.712752222095332, 10.99579526926118, 11.245944349869205, 11.445872111132303, 11.645786399806639, 11.81226332751794, 12.212085489348283, 12.328703253726417, 12.678609795662851, 12.91187419425114, 13.511632457519227, 13.844879502130425, 14.07805953665229, 14.261268136269791, 14.527838377694934, 14.677781873017011, 15.061004201843389, 15.227531170598013, 16.07731212876206, 21.458369220139502]",2017_Feb_24_1027,60.0285947554,famFaceGrey,001,24,
50,./greyInner/CristinMilioti(Tracy_Mutter)9_1_cut.png,0,136,136,49,,,2.nein,11.013,None,act,1.186,None,None,None,None,None,,['return'],[0.7999766475131764],2017_Feb_24_1027,60.0285947554,famFaceGrey,001,24,
4,./greyInner/AlysonHannigan(Lily)5_4_cut.png,0,137,137,3,,,1.ja,1.151,None,act,0.835,None,None,None,None,None,Lilly How i met your mother,"['lshift', 'l', 'i', 'l', 'l', 'y', 'space', 'lshift', 'h', 'o', 'w', 'space', 'i', 'space', 'm', 'e', 't', 'space', 'y', 'o', 'u', 'r', 'space', 'm', 'o', 't', 'h', 'e', 'r', 'return']","[0.8497876944584277, 1.0332153840281535, 1.5165258941551656, 1.8497084628061202, 2.0011666620157484, 2.232837125065089, 2.3661618616033593, 2.59924758800571, 2.749265503341121, 3.2821018906215613, 3.9489398516279834, 4.048584399833089, 4.465147536072436, 4.831717745420065, 5.064975728490026, 5.314923361821457, 5.6149139630870195, 5.848161360551785, 6.9974998724919715, 7.363923166469249, 7.647283140242507, 8.363646657627214, 8.49689248329014, 8.946786482887546, 9.229993446548178, 9.579926933661227, 9.829666383421682, 10.02972117194804, 10.279661427433894, 11.079087302694461]",2017_Feb_24_1027,60.0285947554,famFaceGrey,001,24,
48,./greyInner/CristinMilioti(Tracy_Mutter)4_2_cut.png,0,138,138,47,,,1.ja,4.843,None,act,1.228,None,None,None,None,None,die Mutter von Mow im met your mother,"['d', 'i', 'e', 'space', 'lshift', 'm', 'u', 't', 't', 'e', 'r', 'space', 'v', 'o', 'n', 'space', 'lshift', 'm', 'o', 'w', 'space', 'i', 'm', 'space', 'm', 'e', 't', 'space', 'y', 'o', 'u', 'r', 'space', 'm', 'o', 't', 'h', 'e', 'r', 'return']","[0.7833646250246602, 0.9832622333515246, 1.183325041275566, 1.316602944530132, 1.6665065994830002, 1.8163192182310013, 2.1661471700672337, 2.499404479507575, 2.6493502202611126, 2.7993825705125346, 3.0490771116437827, 3.1824425867243917, 3.7489014226730433, 3.982116742546168, 4.398530397207651, 4.665100959408846, 4.964917058574429, 5.131484445094429, 5.414757167818607, 6.197615287666849, 6.314527524337791, 6.614333679450283, 6.980890736986112, 7.164116016951084, 7.480732113293925, 7.930551051326802, 8.213826661033636, 8.480406525736726, 9.213395217423567, 9.563074970785237, 9.829653552385025, 10.212620864356722, 10.34617495567727, 10.7792657503378, 11.095793954079454, 12.72847248753078, 12.994978894548694, 13.178135849243517, 13.428174903710897, 14.260888979133597]",2017_Feb_24_1027,60.0285947554,famFaceGrey,001,24,
64,./greyInner/EmilyDeschanel6_12_cut.png,0,139,139,63,,,1.ja,2.058,None,act,0.684,None,None,None,None,None,Bones,"['lshift', 'b', 'o', 'n', 'e', 's', 'return']","[0.667195305380119, 0.9003833592996671, 1.3165634890920046, 1.5667619691921573, 1.8501119989114159, 2.1165487975549695, 3.3659456586347005]",2017_Feb_24_1027,60.0285947554,famFaceGrey,001,24,
104,./greyInner/JimParsons(SheldonCooper)8_1_cut.png,0,140,140,103,,,1.ja,2.741,None,act,0.827,None,None,None,None,None,Scheldon big bang,"['lshift', 's', 'c', 'h', 'e', 'l', 'd', 'o', 'n', 'space', 'b', 'i', 'g', 'space', 'b', 'a', 'n', 'g', 'return']","[1.19958356870211, 1.532997416791659, 1.9330133272769672, 2.0827682063591055, 2.3494734944461015, 2.6159561640461106, 3.015702622759818, 3.23234377170229, 3.532213440446867, 3.78210718342325, 5.364969858290351, 5.714611439318105, 6.181092120107678, 6.3977252496515575, 6.631047067129657, 6.797575318987583, 7.097572656547527, 7.397320751218103, 8.180307181434728]",2017_Feb_24_1027,60.0285947554,famFaceGrey,001,24,
91,./greyInner/JanHofer1_3_cut.png,0,141,141,90,,,2.nein,4.245,None,None,None,None,None,polit,1.312,None,,['return'],[1.0667509024233368],2017_Feb_24_1027,60.0285947554,famFaceGrey,001,24,
36,./greyInner/CarenMiosga1_1_cut.png,0,142,142,35,,,1.ja,9.474,None,None,None,None,None,polit,1.576,None,Politikerin in England,"['lshift', 'p', 'o', 'l', 'i', 't', 'i', 'k', 'e', 'r', 'i', 'n', 'space', 'i', 'n', 'space', 'lshift', 'e', 'n', 'g', 'l', 'a', 'n', 'g', 'backspace', 'd', 'return']","[2.249329498136831, 3.1324701894927784, 3.3657352296322642, 3.5989656259735057, 4.115249013534594, 5.1481965496705016, 5.6313383316637555, 5.897848267217341, 6.197814168736841, 6.930781368437238, 7.314060795377372, 7.580721174836071, 7.763773556581327, 8.012887172524643, 8.26350779373206, 8.4461521485091, 8.713469156273277, 8.979231683935723, 9.42988848866753, 9.679674771712598, 10.162781909906698, 10.412737883411864, 10.612742951670953, 11.412227208149488, 12.095373096074582, 12.928357906373094, 15.043879900213142]",2017_Feb_24_1027,60.0285947554,famFaceGrey,001,24,
206,./greyInner/WillSmith1_1_cut.png,0,143,143,205,,,1.ja,1.545,None,act,0.929,None,None,None,None,None,Will Smith,"['lshift', 'w', 'i', 'l', 'l', 'space', 'lshift', 's', 'm', 'i', 't', 'h', 'return']","[0.7338855811549365, 0.8839397441688561, 1.3832508778841657, 1.6670021982772596, 1.8335561122094077, 2.11683813743457, 2.450048292815154, 2.583360839868874, 3.1831207070163146, 3.499217467146991, 3.9658258167519307, 4.2491944514749775, 5.415522859935663]",2017_Feb_24_1027,60.0285947554,famFaceGrey,001,24,
90,./greyInner/Ice-T(OdafinFinTutuola)7_1_cut.png,0,144,144,89,,,1.ja,5.139,None,None,None,music,1.324,None,None,None,Hip Hop Dr drake,"['lshift', 'h', 'o', 'backspace', 'i', 'p', 'space', 'lshift', 'h', 'o', 'p', 'p', 'space', 'backspace', 'backspace', 'space', 'lshift', 'd', 'r', 'space', 'd', 'r', 'a', 'k', 'e', 'return']","[1.0000362476785085, 1.1165311548793397, 1.549586022638323, 1.9496150849363403, 2.2993516156357146, 2.599264909905287, 2.849044135879012, 3.2155511523715177, 3.2989602690149695, 3.6987824308462223, 4.132063124850902, 4.315287763264678, 5.464660598227056, 6.947469735593586, 7.380638799579174, 8.130324840149115, 8.829958931059082, 8.946592413456528, 9.163284565770482, 9.42979257666775, 9.813002074457472, 10.02966599848969, 10.212924318374462, 10.579282174065156, 10.812573838606113, 11.878769798689973]",2017_Feb_24_1027,60.0285947554,famFaceGrey,001,24,
97,./greyInner/JasonSegel(Marshall)14_1_cut.png,0,145,145,96,,,1.ja,2.186,None,act,1.127,None,None,None,None,None,Marschal How i met your mother,"['lshift', 'm', 'a', 'r', 's', 'c', 'h', 'a', 'l', 'space', 'lshift', 'h', 'o', 'w', 'space', 'i', 'space', 'm', 'e', 't', 'space', 'y', 'o', 'u', 'r', 'space', 'm', 'o', 't', 'h', 'e', 'r', 'return']","[1.6160934561394242, 1.7829915626316506, 2.0994649136910084, 2.3839065438614853, 2.5826647561252685, 2.8491573697792774, 2.96576615243157, 3.232082660105334, 3.5489438292497653, 3.7656404724266395, 4.098562891807887, 4.748570061149621, 5.164880425964839, 5.697845444388804, 5.797966665608328, 6.147788843478338, 6.564379887222458, 6.947522663621385, 7.280762330386096, 7.563821737124272, 7.813720933291734, 8.613512493099734, 8.896780724960081, 9.163366684406355, 9.496506589860473, 9.613101258371898, 9.913103728346869, 10.146260025450829, 10.512674337702265, 10.795977534137819, 10.962478199267025, 11.212462080276964, 11.645701073412965]",2017_Feb_24_1027,60.0285947554,famFaceGrey,001,24,
154,./greyInner/NeilPatrickHarris(Barney)2_2_cut.png,0,146,146,153,,,1.ja,1.679,None,act,0.763,None,None,None,None,None,How i met your mother,"['lshift', 'h', 'o', 'w', 'space', 'i', 'space', 'm', 'e', 't', 'space', 'y', 'o', 'u', 'r', 'space', 'm', 'o', 't', 'h', 'e', 'r', 'return']","[1.0339271857910717, 1.117418421070397, 1.5171802770282738, 1.8837305982697217, 1.9665219004946266, 2.3001253271513633, 2.6167982008319086, 2.8666463936287983, 3.3163915532004467, 3.5662455199635588, 5.132336105158174, 6.015275028461474, 6.381655338464952, 6.998247921933398, 7.381298314868218, 8.164355636562505, 8.564239387369526, 8.89732700634886, 9.247258248031358, 9.497253035422546, 9.697091300204193, 9.996943005497087, 10.263469300622091]",2017_Feb_24_1027,60.0285947554,famFaceGrey,001,24,
157,./greyInner/NicoleKidman3_1_cut.png,0,147,147,156,,,1.ja,2.454,None,act,0.84,None,None,None,None,None,nicole Kitman,"['n', 'i', 'c', 'o', 'l', 'e', 'space', 'lshift', 'k', 'i', 't', 'm', 'a', 'n', 'return']","[0.7502743436043602, 1.066868947961666, 1.5499128932997337, 1.9497411498732617, 2.182767532730395, 2.3994555149565713, 2.516302634116073, 3.4324611115334847, 3.749017543555965, 3.9987297273637523, 4.848552065620424, 5.281800040482267, 5.515013756476037, 6.431215217866338, 6.964350568303416]",2017_Feb_24_1027,60.0285947554,famFaceGrey,001,24,
65,./greyInner/EmilyDeschanel8_3_cut.png,0,148,148,64,,,1.ja,1.505,None,dummy,0.654,None,None,None,None,None,Bones,"['lshift', 'b', 'i', 'backspace', 'o', 'n', 'e', 's', 'return']","[0.6834785325527264, 0.8003384827488844, 1.1332323530741633, 1.6164482343046984, 2.332981121375269, 2.5828613917637995, 2.832746473790394, 3.082522171229357, 3.5490535346134493]",2017_Feb_24_1027,60.0285947554,famFaceGrey,001,24,
137,./greyInner/LisaEdelstein(DrLisaCuddy)10_1_cut.png,0,149,149,136,,,1.ja,5.027,None,dummy,1.029,None,None,None,None,None,Penelope Cruse,"['lshift', 'p', 'e', 'n', 'o', 'backspace', 'e', 'l', 'o', 'p', 'e', 'space', 'lshift', 'c', 'r', 'u', 's', 'e', 'return']","[1.1499893662785325, 1.5496857839489167, 2.3327498419375843, 2.7658566753943887, 3.198993661788336, 3.665518930430153, 4.0153943571021955, 4.631563195582203, 4.865032890758812, 5.114891669160897, 5.414763904112078, 5.514748154014342, 5.881296550600382, 6.281163300283879, 6.647354673272275, 6.880782667578387, 7.080755658246744, 7.3638837110311215]",2017_Feb_24_1027,60.0285947554,famFaceGrey,001,24,
49,./greyInner/CristinMilioti(Tracy_Mutter)8_1_cut.png,0,150,150,48,,,1.ja,2.484,None,act,0.938,None,None,None,None,None,Die Mutter von How i met your mother,"['lshift', 'd', 'i', 'e', 'space', 'lshift', 'm', 'u', 't', 't', 'e', 'r', 'space', 'v', 'o', 'n', 'space', 'lshift', 'h', 'o', 'w', 'space', 'i', 'space', 'm', 'e', 't', 'space', 'y', 'o', 'u', 'r', 'space', 'm', 'o', 't', 'h', 'e', 'r', 'return']","[0.8664093402248909, 0.9500115639721116, 1.3332977272066273, 1.466398562154609, 1.616369644205406, 1.966325585633058, 2.1161074098918107, 2.6658955213588342, 2.965864951414005, 3.099085115003618, 3.1992117894133116, 3.4323616709989437, 3.532301333048963, 4.0486440641543595, 4.26513605229411, 4.548552803405073, 4.71516509855428, 4.9816682978125755, 5.098257513133831, 5.431522841971855, 5.981428678201155, 6.0979688148072455, 6.397930225463824, 6.864319805892592, 7.13089838749147, 7.3307780323675615, 7.580733685096675, 7.863943856516016, 8.79675252875677, 9.079963020952164, 9.379877277548985, 9.713045090508786, 9.84648723103328, 10.16304590848722, 10.396151202220608, 10.745897676973073, 11.0125070530612, 11.162426810964462, 11.395464100202844, 11.662167784410485]",2017_Feb_24_1027,60.0285947554,famFaceGrey,001,24,
109,./greyInner/JoachimLoew4_1_cut.png,0,151,151,108,,,1.ja,1.675,None,None,None,None,None,sport,1.092,None,Löw,"['lshift', 'l', u'\xf6', 'w', 'return']","[1.0165959836931506, 1.2498854028035566, 1.7163368929841454, 2.5326346192277924, 3.0824503174244455]",2017_Feb_24_1027,60.0285947554,famFaceGrey,001,24,
127,./greyInner/KatjaBurkard10_1_cut.png,0,152,152,126,,,1.ja,3.128,None,dummy,0.946,None,None,None,None,None,Frinds,"['lshift', 'f', 'r', 'i', 'n', 'd', 's', 'return']","[0.9500731529478799, 1.2667736133580547, 1.699934337169907, 2.0996875321779953, 2.3828316237577383, 2.6993858103487582, 3.3160072636501354, 3.6823567791661844]",2017_Feb_24_1027,60.0285947554,famFaceGrey,001,24,
56,./greyInner/ElvisPresley1_1_cut.png,0,153,153,55,,,1.ja,1.541,None,None,None,music,1.374,None,None,None,Elvis,"['lshift', 'e', 'l', 'v', 'i', 's', 'return']","[0.6500928165123696, 0.8499314020700695, 1.4330487730157984, 2.4826378430261684, 2.965804324765486, 3.1990895737881146, 3.5819038756471855]",2017_Feb_24_1027,60.0285947554,famFaceGrey,001,24,
81,./greyInner/HughLaurie(DrHouse)2_1_cut.png,0,154,154,80,,,1.ja,1.415,None,dummy,0.602,None,None,None,None,None,Dr Hous,"['lshift', 'd', 'r', 'space', 'lshift', 'h', 'o', 'u', 's', 'return']","[0.7001338597901849, 0.850192834443078, 2.39946193047399, 2.5826522458637555, 2.832544705737746, 2.9657863613138034, 3.332519204052005, 3.7989248232761383, 4.082218717210708, 4.88180081034352]",2017_Feb_24_1027,60.0285947554,famFaceGrey,001,24,
118,./greyInner/JudithRakers4_3_cut.png,0,155,155,117,,,2.nein,4.228,None,act,0.947,None,None,None,None,None,,['return'],[0.9337575274084884],2017_Feb_24_1027,60.0285947554,famFaceGrey,001,24,
220,./greyInner/notfamousface5_1_cut.png,0,156,156,219,,,2.nein,4.411,None,act,0.906,None,None,None,None,None,,['return'],[1.2500669619730616],2017_Feb_24_1027,60.0285947554,famFaceGrey,001,24,
12,./greyInner/BarackObama11_2_cut.png,0,157,157,11,,,1.ja,1.259,None,None,None,None,None,polit,1.324,None,Obama,"['lshift', 'o', 'b', 'a', 'm', 'a', 'return']","[0.633601726544839, 0.7502303973033122, 1.2499447463478646, 1.6498147037909803, 1.9998841998931312, 2.26640440027586, 3.032852586464287]",2017_Feb_24_1027,60.0285947554,famFaceGrey,001,24,
181,./greyInner/SigmarGabriel1_2_cut.png,0,158,158,180,,,1.ja,1.392,None,None,None,None,None,polit,1.195,None,SPD Sigmar Gabriel,"['lshift', 's', 'lshift', 'p', 'lshift', 'd', 'space', 'lshift', 's', 'i', 'g', 'm', 'a', 'r', 't', 'backspace', 'space', 'lshift', 'g', 'a', 'b', 'r', 'i', 'e', 'l', 'return']","[0.7671991226134196, 1.9670123668738597, 2.2996884303502156, 2.516593577873209, 2.8497492013475494, 3.049673113299832, 3.349635486284569, 3.5660437519100014, 3.816080240170777, 4.332480069389931, 4.69889919328034, 5.165416121748422, 5.382223753392282, 5.648841469654144, 6.348517261432789, 7.3647305594549834, 7.547901628290674, 7.681094205150657, 8.014275169922257, 8.214338619399314, 9.380419068074843, 10.346719953961838, 10.62994231486664, 10.86307102524097, 11.496301614048207]",2017_Feb_24_1027,60.0285947554,famFaceGrey,001,24,
73,./greyInner/GuentherJauch4_1_cut.png,0,159,159,72,,,1.ja,1.162,None,act,1.011,None,None,None,None,None,Günter Jauch,"['lshift', 'g', u'\xfc', 'n', 't', 'e', 'r', 'space', 'lshift', 'j', 'a', 'u', 'c', 'h', 'return']","[2.5828729396962444, 2.9993404847118654, 4.5655205663879315, 5.031910788367895, 5.365256952737582, 5.531579266455992, 5.79830572575429, 5.823731066602704, 6.264741497914656, 6.298103476537108, 6.564747496424388, 6.714592192763121, 7.430944162215383, 7.697499327172409, 8.497275810512292]",2017_Feb_24_1027,60.0285947554,famFaceGrey,001,24,
55,./greyInner/DannFlorek(DonaldDonCragen)8_1_cut.png,0,160,160,54,,,1.ja,6.381,None,act,0.734,None,None,None,None,None,,['return'],[0.9669180587543451],2017_Feb_24_1027,60.0285947554,famFaceGrey,001,24,
133,./greyInner/LeonardoDiCaprio3_1_cut.png,0,161,161,132,,,1.ja,1.413,None,act,0.846,None,None,None,None,None,Leonardo die Kaprio,"['lshift', 'l', 'e', 'o', 'n', 'a', 'r', 'd', 'e', 'backspace', 'o', 'space', 'd', 'i', 'e', 'space', 'lshift', 'k', 'a', 'p', 'r', 'i', 'o', 'return']","[0.5334910909305108, 0.6502602615419164, 1.5663719056756236, 1.899735391944887, 2.83266435515543, 3.0491720613163125, 3.3822943240948007, 3.7988067777387187, 4.248507991009319, 4.765052169391311, 5.314838035427783, 5.5480645824573, 5.947825155311875, 6.147586754649637, 6.347877634251745, 6.447700854643699, 7.080837776881708, 7.197411915734847, 7.480642296037331, 7.897229490469726, 8.313727829973686, 8.613559326383438, 8.846861255754447, 10.429303393392729]",2017_Feb_24_1027,60.0285947554,famFaceGrey,001,24,
194,./greyInner/TomCruise6_1_cut.png,0,162,162,193,,,1.ja,1.979,None,act,0.662,None,None,None,None,None,Tom Cruse,"['lshift', 't', 'o', 'm', 'space', 'lshift', 'c', 'r', 'u', 's', 'e', 'return']","[0.7169681799914542, 0.833849622174057, 1.2670504429752327, 1.533481146876511, 1.7500523666685694, 1.9665369769627432, 2.216578597638545, 2.7163032115122405, 2.949598725364922, 3.1995672091306915, 3.4493534921748505, 4.199027664036294]",2017_Feb_24_1027,60.0285947554,famFaceGrey,001,24,
35,./greyInner/BritneySpears8_5_cut.png,0,163,163,34,,,1.ja,4.767,None,None,None,music,1.304,None,None,None,Brithney Spears,"['lshift', 'b', 'r', 'i', 't', 'h', 'n', 'e', 'y', 'space', 'lshift', 's', 'p', 'e', 'a', 'r', 's', 'return']","[0.8331894653338168, 1.2496916541476821, 1.8995666638111288, 2.1328923306000434, 2.4492444283623627, 2.7825636475554347, 3.1156964959400284, 3.3656576018593114, 3.9818671788816573, 4.148693431567153, 4.365160399185697, 4.5151638796050975, 5.0482135828706305, 5.681168304387938, 6.214367489232245, 6.530959848157181, 6.980812788437106, 7.297272025356506]",2017_Feb_24_1027,60.0285947554,famFaceGrey,001,24,
26,./greyInner/Beyonce1_1_cut.png,0,164,164,25,,,2.nein,4.454,None,None,None,music,0.969,None,None,None,,['return'],[0.9001187191679492],2017_Feb_24_1027,60.0285947554,famFaceGrey,001,24,
205,./greyInner/Usher7_1_cut.png,0,165,165,204,,,1.ja,1.193,None,None,None,music,1.21,None,None,None,Ascha,"['lshift', 'a', 's', 'c', 'h', 'a', 'return']","[0.7000854226271258, 0.8499544979358689, 1.2333035332503641, 1.4998073740607651, 1.666323757209284, 1.8995884765736264, 2.9491801127915096]",2017_Feb_24_1027,60.0285947554,famFaceGrey,001,24,
5,./greyInner/AlysonHannigan(Lily)8_3_cut.png,0,166,166,4,,,1.ja,2.151,None,dummy,0.603,None,None,None,None,None,Lilly How i met your mother,"['lshift', 'l', 'i', 'l', 'l', 'y', 'space', 'lshift', 'd', 'backspace', 'lshift', 'h', 'o', 'w', 'space', 'i', 'space', 'm', 'e', 't', 'space', 'y', 'o', 'u', 'r', 'space', 'm', 'o', 't', 'h', 'e', 'r', 'return']","[0.7829142556347506, 0.9499034624877822, 1.233107859940901, 1.6832588010493055, 1.816545044477607, 1.9997408130584517, 2.1331146283127964, 2.3662850395567148, 2.53279885649863, 3.0326559508266655, 3.3657907238666667, 3.650510787533676, 4.032302776540746, 4.715291484265435, 4.898418927576131, 5.265105899357877, 5.54827982309871, 5.781550957981381, 5.998140782777227, 6.181323720320506, 6.41452460527762, 7.130982110006698, 7.397466383486062, 7.714067403360787, 8.080559664160319, 8.263707316353248, 8.597028139426584, 8.863523960838393, 9.180246875562261, 9.430000439463583, 9.596517143388155, 9.846481457067057, 10.24632126157394]",2017_Feb_24_1027,60.0285947554,famFaceGrey,001,24,
45,./greyInner/CobieSmulders(Robin)5_1_cut.png,0,167,167,44,,,1.ja,2.38,None,act,0.764,None,None,None,None,None,Robin How i met your mother,"['lshift', 'r', 'o', 'b', 'i', 'n', 'space', 'lshift', 'h', 'i', 'backspace', 'o', 'w', 'space', 'i', 'space', 'm', 'e', 't', 'space', 'y', 'o', 'u', 'r', 'space', 'm', 'o', 't', 'h', 'e', 'r', 'return']","[0.8666249016423535, 1.3999135829681109, 1.9826976677350103, 2.366162823931518, 2.6659798854252585, 2.9325225401216812, 3.1159114158053853, 3.482264459857106, 3.748809359984989, 4.0661157661043035, 4.4816286819868765, 5.098472112223135, 5.681113130930498, 5.814768908217047, 6.114567043930947, 6.4310772842218284, 6.647578895639526, 6.897220187968742, 7.097480914634616, 7.363830783004232, 9.146613841288854, 9.49651717546567, 9.829564376679627, 10.162870764836043, 10.312714178071474, 10.662745501839709, 10.929017100885176, 11.462356464805453, 11.82881953499691, 12.045383056167339, 12.278590677417924, 12.661960883942811]",2017_Feb_24_1027,60.0285947554,famFaceGrey,001,24,
160,./greyInner/NicoleKidman8_2_cut.png,0,168,168,159,,,1.ja,5.374,None,act,1.626,None,None,None,None,None,Lilly ,"['lshift', 'l', 'i', 'l', 'l', 'y', 'space', 'return']","[0.9164943298037542, 1.0997571405514464, 1.6830255969553036, 1.9994809845638883, 2.149318623832187, 2.449672664213722, 2.749300788691471, 3.582158892501866]",2017_Feb_24_1027,60.0285947554,famFaceGrey,001,24,
78,./greyInner/GeorgeClooney16_1_cut.png,0,169,169,77,,,1.ja,5.189,None,act,1.642,None,None,None,None,None,Dr Haus,"['lshift', 'f', 'r', 'backspace', 'backspace', 'lshift', 'd', 't', 'backspace', 'r', 'space', 'lshift', 'lshift', 'h', 'a', 'i', 'backspace', 'u', 's', 'return']","[0.7833594926096339, 1.0333844329379644, 1.3165615644375066, 2.2495046417880076, 2.466178189098173, 2.932451648644019, 3.398935537192301, 3.6988052059368783, 5.131786295234633, 5.781291771039832, 6.047658640532973, 6.214405340791018, 7.08081371868866, 7.264041885637198, 8.280297846856229, 8.66361223837157, 9.113333981301366, 9.479843243224423, 9.762992146444049, 10.579369425115146]",2017_Feb_24_1027,60.0285947554,famFaceGrey,001,24,
95,./greyInner/JanHofer9_2_cut.png,0,170,170,94,,,1.ja,5.66,None,act,3.494,None,None,None,None,None,Tatort,"['lshift', 't', 'a', 't', 'o', 'r', 't', 'space', 'backspace', 'comma', 'return']","[1.2838879709352113, 2.216671622654758, 2.733224141210485, 3.599466036405829, 4.299229400010518, 4.615768510133421, 4.865510205325336, 6.914214896127305, 8.014135953174446, 8.697512158209065, 15.444698071270068]",2017_Feb_24_1027,60.0285947554,famFaceGrey,001,24,
159,./greyInner/NicoleKidman7_1_cut.png,0,171,171,158,,,1.ja,2.361,None,act,0.778,None,None,None,None,None,Nicole Kitman,"['lshift', 'n', 'i', 'c', 'o', 'l', 'e', 'space', 'lshift', 'k', 'i', 't', 'm', 'a', 'n', 'return']","[0.7007327484307098, 1.0839335852706427, 1.4506333880899547, 1.783767840353903, 2.11698601513217, 2.3167809751648747, 2.533490449378405, 2.6502230515352494, 3.0165299038535522, 3.1666260885131123, 3.416471394326436, 3.8162714226191383, 4.216109302469704, 4.432792473056907, 4.616099230105647, 5.4323831629853885]",2017_Feb_24_1027,60.0285947554,famFaceGrey,001,24,
169,./greyInner/RobertSeanLeonard(Wilson)2_6_cut.png,0,172,172,168,,,1.ja,1.174,None,dummy,1.04,None,None,None,None,None,Dr Haus,"['lshift', 'd', 'r', 'space', 'lshift', 'h', 'a', 'u', 's', 'return']","[0.6669797439626564, 0.866835972195986, 1.1167848886316278, 1.4167559225661535, 1.8330983649730115, 2.266282184650663, 2.999321238156881, 3.499207202317848, 3.849012699839477, 4.265570382887745]",2017_Feb_24_1027,60.0285947554,famFaceGrey,001,24,
210,./greyInner/WillSmith6_1_cut.png,0,173,173,209,,,1.ja,1.363,None,dummy,0.997,None,None,None,None,None,Will Smith,"['lshift', 'w', 'i', 'l', 'l', 'space', 'lshift', 's', 'm', 'i', 't', 'h', 'return']","[0.8170281330103535, 0.9502252007332572, 1.4333146962517276, 1.7833418499340041, 1.9498081920391996, 2.549518018143317, 2.8495609058836635, 2.999202551066446, 3.6156912031374304, 3.8489533562942597, 4.199007455153151, 4.448797587508125, 5.515073420795488]",2017_Feb_24_1027,60.0285947554,famFaceGrey,001,24,
178,./greyInner/Shakira3_1_cut.png,0,174,174,177,,,1.ja,2.146,None,None,None,music,3.179,None,None,None,Brithney Spears,"['lshift', 'b', 'r', 'i', 't', 'h', 'n', 'e', 'y', 'space', 'lshift', 's', 'p', 'e', 'a', 'r', 's', 'return']","[1.3664880907126644, 1.7163859716993102, 2.299604387059844, 2.599465394854633, 2.8993767644678883, 3.1826276744295683, 3.4990625323780478, 3.749006637174716, 4.315380788280891, 4.465236070225728, 4.765151609926761, 5.081836673091857, 5.581623838270389, 6.147670156387903, 6.547851266471298, 6.948069907337413, 7.347189569906732, 7.830573216942867]",2017_Feb_24_1027,60.0285947554,famFaceGrey,001,24,
215,./greyInner/notfamousface13_1_cut.png,0,175,175,214,,,2.nein,4.36,None,dummy,0.596,None,None,None,None,None,,['return'],[0.949967938446207],2017_Feb_24_1027,60.0285947554,famFaceGrey,001,24,
138,./greyInner/LisaEdelstein(DrLisaCuddy)2_2_cut.png,0,176,176,137,,,2.nein,7.604,None,None,None,None,None,sport,0.959,None,,['return'],[1.2497631871774502],2017_Feb_24_1027,60.0285947554,famFaceGrey,001,24,
197,./greyInner/UrsulavonderLeyen4_1_cut.png,0,177,177,196,,,1.ja,1.646,None,None,None,None,None,polit,0.929,None,Von der Line,"['lshift', 'v', 'o', 'n', 'space', 'd', 'e', 'r', 'space', 'lshift', 'l', 'i', 'n', 'd', 'backspace', 'e', 'return']","[2.2164534950306916, 2.349603729469891, 2.782737508104219, 3.0991611388963065, 3.2658613266457905, 3.48246911489332, 3.699068562966204, 3.9489793070670203, 4.082382954481545, 4.515355703604655, 4.632200256556644, 4.865394084443324, 5.115016130217555, 5.481629002762929, 6.0147451066441135, 6.447904226575702, 8.080668407197663]",2017_Feb_24_1027,60.0285947554,famFaceGrey,001,24,
33,./greyInner/BritneySpears5_1_cut.png,0,178,178,32,,,1.ja,2.528,None,None,None,music,1.429,None,None,None,Brithney Spears,"['lshift', 'b', 'r', 'i', 'z', 'backspace', 't', 'h', 'n', 'e', 'y', 'space', 'lshift', 's', 'p', 'e', 'a', 'r', 's', 'return']","[0.9338139839701398, 1.4669470889748482, 1.7001550310014863, 2.033469438555585, 2.466515324588727, 2.8664478333348598, 3.1326543148697965, 3.499524449701312, 3.7327070504306903, 4.432320611681462, 4.582354565812238, 5.165270489481372, 5.448620839977593, 5.931784755509398, 6.398239774225658, 6.7813841545039395, 7.11442718563103, 7.481131800088406, 7.897530378281772]",2017_Feb_24_1027,60.0285947554,famFaceGrey,001,24,
199,./greyInner/UrsulavonderLeyen7_1_cut.png,0,179,179,198,,,1.ja,1.479,None,None,None,None,None,sport,0.646,None,Von der line,"['lshift', 'v', 'o', 'n', 'space', 'd', 'e', 'r', 'space', 'l', 'i', 'n', 'e', 'return']","[1.7999708735460445, 1.9331339390219, 2.3329416659362323, 2.616190330466452, 2.782831174671628, 2.982725254462821, 3.1993971978936315, 3.4159517373382187, 3.4826048031054597, 3.865714218809444, 4.099032828527925, 4.3154802288154315, 4.682361590804248, 5.564906922055343]",2017_Feb_24_1027,60.0285947554,famFaceGrey,001,24,
192,./greyInner/TomCruise4_1_cut.png,0,180,180,191,,,1.ja,1.374,None,act,1.008,None,None,None,None,None,Tom Cruse,"['lshift', 't', 'o', 'm', 'space', 'lshift', 'c', 'r', 'u', 's', 'e', 'return']","[1.0332663873996353, 1.1832143735837235, 1.666287509531685, 1.9995380826776454, 2.2161933457600753, 2.765959965240654, 2.965919483320249, 3.3823039473727476, 4.098400258417314, 4.415177063495321, 4.648437291996743, 5.148265516492756]",2017_Feb_24_1027,60.0285947554,famFaceGrey,001,24,
132,./greyInner/LeonardoDiCaprio2_1_cut.png,0,181,181,131,,,1.ja,1.492,None,act,2.825,None,None,None,None,None,Leonardo di Caprio,"['lshift', 'l', 'e', 'o', 'n', 'a', 'r', 'd', 'o', 'space', 'd', 'i', 'o', 'e', 'backspace', 'backspace', 'backspace', 'e', 'backspace', 'i', 'space', 'lshift', 'c', 'a', 'p', 'r', 'i', 'o', 'return']","[0.7167609587477273, 0.8666175237958669, 1.2497291849313115, 2.2995418357559174, 2.8992292075454316, 3.149099854656015, 3.3989820496999528, 3.7656119233688514, 4.2154282951951245, 4.498535497544253, 4.798426337499222, 4.981946089757912, 5.164916352867294, 5.598095040130829, 5.847946440686428, 6.01427773613068, 6.26449129269804, 6.8309818854631885, 7.763852788232725, 8.030463126648101, 8.230389284030935, 9.196702038627336, 9.596453308980017, 10.262875865172646, 10.796080182431979, 11.062642725235492, 11.762222284239215, 12.728455165631203]",2017_Feb_24_1027,60.0285947554,famFaceGrey,001,24,
200,./greyInner/UrsulavonderLeyen8_2_cut.png,0,182,182,199,,,1.ja,1.709,None,None,None,None,None,polit,0.975,None,von der line,"['v', 'o', 'n', 'space', 'd', 'e', 'r', 'space', 'l', 'i', 'n', 'e', 'return']","[0.7667157133046203, 1.0497388723633776, 1.3331318860564352, 1.4830288688708606, 1.8828673902735318, 2.0994584981717708, 2.332681837443488, 2.416162166340655, 2.7659307746325794, 3.0154960430691062, 3.232451231635423, 3.8155012396382517, 4.331891766355511]",2017_Feb_24_1027,60.0285947554,famFaceGrey,001,24,
147,./greyInner/MilaKunis10_1_cut.png,0,183,183,146,,,1.ja,2.962,None,dummy,1.113,None,None,None,None,None,Die wilden 70 er ,"['lshift', 'd', 'i', 'e', 'space', 'w', 'i', 'l', 'd', 'e', 'n', 'space', '7', '0', 'space', 'e', 'r', 'space', 'return']","[1.2501869321667982, 1.283432469131185, 1.7166339314844663, 1.9164782910083886, 2.0165526789442083, 2.6494259233777484, 2.899499621645191, 3.166010198749973, 3.382544529311417, 3.5825149537713514, 3.6991253403029987, 3.8990255148373762, 4.432186206571714, 4.915258380190608, 5.248531407651171, 5.464981053370138, 5.731610959116551, 9.713403397209731, 19.176121055698786]",2017_Feb_24_1027,60.0285947554,famFaceGrey,001,24,
164,./greyInner/OmarEpps(DrEricForeman)5_2_cut.png,0,184,184,163,,,1.ja,2.148,None,dummy,0.985,None,None,None,None,None,Dr Haus,"['lshift', 'd', 'r', 'space', 'lshift', 'h', 'a', 'u', 's', 'return']","[1.0167749766551424, 1.1500143867997394, 1.4166959374688304, 2.3161897851468893, 2.6327019500931783, 2.7493877189654086, 3.2993378222718093, 3.6656113138951696, 3.965521721181176, 4.365334901285678]",2017_Feb_24_1027,60.0285947554,famFaceGrey,001,24,
155,./greyInner/NeilPatrickHarris(Barney)3_7_cut.png,0,185,185,154,,,1.ja,1.433,None,dummy,0.746,None,None,None,None,None,How i met your mother,"['lshift', 'g', 'backspace', 'lshift', 'h', 'o', 'w', 'space', 'i', 'space', 'm', 'e', 't', 'space', 'y', 'o', 'u', 'r', 'space', 'm', 'o', 't', 'h', 'e', 'r', 'return']","[0.8001238836595803, 0.9668875850411496, 1.4333409998771458, 1.7997492173863066, 2.3159751860575852, 2.699454777171013, 3.0493106365120184, 3.1326459746951514, 3.4823802599630653, 3.798921294741376, 4.03222033712882, 4.3654625701010445, 4.582045979378563, 4.88183834112624, 6.081359679300476, 6.397674246280076, 6.697767495839798, 6.964395476930804, 7.081047243555986, 7.4141306924484525, 7.647388675519323, 7.997314143234689, 8.263995373127727, 8.497146217040608, 8.76333216891635, 9.096843532884122]",2017_Feb_24_1027,60.0285947554,famFaceGrey,001,24,
165,./greyInner/OmarEpps(DrEricForeman)9_1_cut.png,0,186,186,164,,,1.ja,1.895,None,act,0.661,None,None,None,None,None,Dr Haus,"['lshift', 'd', 'r', 'space', 'lshift', 'h', 'a', 'u', 's', 'return']","[0.7171000188936887, 0.8505533865754842, 1.0838302954243773, 1.367075110643782, 1.6002435972322928, 1.8832487928393675, 2.2167999330213206, 2.416632423836745, 2.6499272961382303, 3.033033824857739]",2017_Feb_24_1027,60.0285947554,famFaceGrey,001,24,
