num,pic,trials.thisRepN,trials.thisTrialN,trials.thisN,trials.thisIndex,key_resp_2.keys,key_resp_2.rt,ratingBekannt.response,ratingBekannt.rt,key_resp_5.keys,ratingK1.response,ratingK1.rt,ratingK2.response,ratingK2.rt,ratingK3.response,ratingK3.rt,key_resp_6.keys,inputText,key_resp_4.keys,key_resp_4.rt,date,frameRate,expName,session,participant,
,,,,,,space,42.8136109072,,,,,,,,,,,,,,2017_Feb_24_1429,59.9218646384,famFaceGrey,001,25,
169,./greyInner/RobertSeanLeonard(Wilson)2_6_cut.png,0,0,0,168,,,1.ja,7.201,None,act,11.56,None,None,None,None,None,,['return'],[3.4657608596280625],2017_Feb_24_1429,59.9218646384,famFaceGrey,001,25,
197,./greyInner/UrsulavonderLeyen4_1_cut.png,0,1,1,196,,,2.nein,7.691,None,None,None,host,6.842,None,None,None,,['return'],[1.7998133725704974],2017_Feb_24_1429,59.9218646384,famFaceGrey,001,25,
179,./greyInner/Shakira7_1_cut.png,0,2,2,178,,,1.ja,3.544,None,None,None,music,3.245,None,None,None,,['return'],[10.696137633396575],2017_Feb_24_1429,59.9218646384,famFaceGrey,001,25,
106,./greyInner/JoachimLoew1_1_cut.png,0,3,3,105,,,1.ja,3.368,None,None,None,None,None,sport,1.868,None,Jogi  Löw,"['lshift', 'j', 'o', 'g', 'i', 'space', 'space', 'lshift', 'l', u'\xf6', 'w', 'return']","[5.064894892959273, 5.281645105715143, 5.647997828989901, 5.997953128866357, 6.314565375898383, 6.580421890903381, 9.463269393068913, 9.879698444976384, 10.179557528113946, 10.72922534861209, 10.879213752563373, 12.678551414446702]",2017_Feb_24_1429,59.9218646384,famFaceGrey,001,25,
88,./greyInner/Ice-T(OdafinFinTutuola)5_1_cut.png,0,4,4,87,,,1.ja,15.823,None,None,None,music,6.792,None,None,None,,['return'],[1.3503264376158768],2017_Feb_24_1429,59.9218646384,famFaceGrey,001,25,
109,./greyInner/JoachimLoew4_1_cut.png,0,5,5,108,,,1.ja,2.242,None,None,None,None,None,sport,1.659,None,Jogi Löw,"['lshift', 'j', 'o', 'g', 'i', 'space', 'lshift', 'l', u'\xf6', 'w', 'return']","[1.7328972705508932, 1.8496244195157487, 2.0828028501600784, 2.5326371854353056, 2.6659189380006865, 2.782524192120036, 3.332214787707926, 3.765557391463517, 4.181945384050778, 4.281904292656691, 5.464818740754708]",2017_Feb_24_1429,59.9218646384,famFaceGrey,001,25,
69,./greyInner/EmmaWatson(HermioneGranger)4_1_cut.png,0,6,6,68,,,1.ja,3.359,None,dummy,6.657,None,None,None,None,None,Emma Watson,"['lshift', 'e', 'm', 'm', 'a', 'space', 'lshift', 'w', 'a', 't', 's', 'o', 'n', 'return']","[1.3331524157147214, 1.5663516967906617, 2.515977046557964, 2.6659401092110784, 2.7992237864309573, 2.9657331125090423, 3.315677826780302, 3.598719590841938, 3.8322194389547803, 4.0485686818101385, 4.231932536971726, 4.44855860944881, 4.7317950844917505, 8.48032953951406]",2017_Feb_24_1429,59.9218646384,famFaceGrey,001,25,
42,./greyInner/CobieSmulders(Robin)2_1_cut.png,0,7,7,41,,,2.nein,4.342,None,dummy,3.476,None,None,None,None,None,,['return'],[1.483398723503342],2017_Feb_24_1429,59.9218646384,famFaceGrey,001,25,
150,./greyInner/MilaKunis7_3_cut.png,0,8,8,149,,,1.ja,11.671,None,dummy,2.191,None,None,None,None,None,,['return'],[2.5826217721514695],2017_Feb_24_1429,59.9218646384,famFaceGrey,001,25,
170,./greyInner/RobertSeanLeonard(Wilson)8_1_cut.png,0,9,9,169,,,2.nein,3.162,None,None,None,music,5.644,None,None,None,,['return'],[1.1501417348408722],2017_Feb_24_1429,59.9218646384,famFaceGrey,001,25,
28,./greyInner/Beyonce3_2_cut.png,0,10,10,27,,,2.nein,13.273,None,None,None,music,3.411,None,None,None,,['return'],[1.799525957347214],2017_Feb_24_1429,59.9218646384,famFaceGrey,001,25,
92,./greyInner/JanHofer3_1_cut.png,0,11,11,91,,,2.nein,3.828,None,None,None,None,None,polit,3.112,None,,['return'],[1.2166860575707688],2017_Feb_24_1429,59.9218646384,famFaceGrey,001,25,
73,./greyInner/GuentherJauch4_1_cut.png,0,12,12,72,,,1.ja,2.828,None,None,None,host,5.093,None,None,None,Günther Jauch,"['lshift', 'g', u'\xfc', 'n', 't', 'h', 'e', 'r', 'space', 'lshift', 'j', 'a', 'u', 'c', 'h', 'return']","[1.5667956506658811, 1.6832286481148913, 2.166125678082608, 2.616065227859508, 2.8992853433337586, 3.065752647766203, 3.1825753879566037, 3.265900782083918, 3.3824813364553847, 3.848798421528045, 4.148752133562084, 4.315336841980752, 4.465398062064196, 4.565309816611261, 4.682042418768106, 5.748236133418686]",2017_Feb_24_1429,59.9218646384,famFaceGrey,001,25,
192,./greyInner/TomCruise4_1_cut.png,0,13,13,191,,,1.ja,5.556,None,act,7.322,None,None,None,None,None,,['return'],[12.528469985478296],2017_Feb_24_1429,59.9218646384,famFaceGrey,001,25,
10,./greyInner/AngelaMerkel6_1_cut.png,0,14,14,9,,,1.ja,4.374,None,None,None,None,None,polit,3.021,None,Angela Merkel,"['lshift', 'a', 'm', 'backspace', 'n', 'g', 'e', 'l', 'a', 'space', 'lshift', 'comma', 'e', 'backspace', 'lshift', 'm', 'e', 'r', 'k', 'e', 'l', 'return']","[2.349516799193225, 2.6327173473364383, 2.882550784441264, 4.848436586289608, 5.298347266234487, 5.531653686466598, 5.648084117710823, 5.7980276130329, 5.931337593876378, 6.2979017084835505, 6.580989985053748, 6.731081358073425, 7.09747578221868, 7.930553296755534, 8.496688469804212, 8.696937969314604, 8.930119286938861, 9.030058628213737, 9.363169984611886, 9.479952948586288, 9.629831967948121, 10.762536003087007]",2017_Feb_24_1429,59.9218646384,famFaceGrey,001,25,
177,./greyInner/Shakira2_1_cut.png,0,15,15,176,,,2.nein,2.512,None,None,None,music,3.578,None,None,None,,['return'],[1.433018940853799],2017_Feb_24_1429,59.9218646384,famFaceGrey,001,25,
210,./greyInner/WillSmith6_1_cut.png,0,16,16,209,,,1.ja,2.779,None,act,1.779,None,None,None,None,None,Will Smith,"['lshift', 'w', 'i', 'l', 'l', 'space', 'lshift', 's', 'm', 'comma', 'i', 't', 'h', 'return']","[1.2166443567002716, 1.4999578179667878, 1.6998650495697802, 1.933261928614229, 2.066457713233831, 2.2497237317402323, 2.4827404913194187, 2.799477520184155, 3.13305079390193, 4.198929827380198, 4.448750112671405, 4.615550382506626, 5.598300015943096]",2017_Feb_24_1429,59.9218646384,famFaceGrey,001,25,
128,./greyInner/KatjaBurkard4_1_cut.png,0,17,17,127,,,1.ja,8.082,None,act,6.467,None,None,None,None,None,,['return'],[1.3665179228737543],2017_Feb_24_1429,59.9218646384,famFaceGrey,001,25,
40,./greyInner/CarenMiosga9_1_cut.png,0,18,18,39,,,2.nein,2.945,None,None,None,music,3.262,None,None,None,,['return'],[1.433342603759229],2017_Feb_24_1429,59.9218646384,famFaceGrey,001,25,
203,./greyInner/Usher2_1_cut.png,0,19,19,202,,,1.ja,2.279,None,None,None,music,1.412,None,None,None,,['return'],[3.5825521637780184],2017_Feb_24_1429,59.9218646384,famFaceGrey,001,25,
50,./greyInner/CristinMilioti(Tracy_Mutter)9_1_cut.png,0,20,20,49,,,2.nein,3.768,None,None,None,host,4.218,None,None,None,,['return'],[1.2000948855165916],2017_Feb_24_1429,59.9218646384,famFaceGrey,001,25,
11,./greyInner/BarackObama1_3_cut.png,0,21,21,10,,,1.ja,2.706,None,None,None,None,None,polit,2.093,None,Barak Obama,"['lshift', 'b', 'a', 'r', 'a', 'k', 'space', 'lshift', 'o', 'b', 'a', 'm', 'a', 'return']","[1.5834124847933708, 1.783136874124466, 1.999815553848748, 2.1332637891173363, 2.283105598471593, 3.09945529041579, 3.249102068013599, 3.4656238883144397, 3.6824183681455906, 3.9824035162200744, 4.465494294840028, 4.682197032761906, 4.815365872203984, 6.248168930866086]",2017_Feb_24_1429,59.9218646384,famFaceGrey,001,25,
139,./greyInner/LisaEdelstein(DrLisaCuddy)6_3_cut.png,0,22,22,138,,,2.nein,3.091,None,None,None,host,2.008,None,None,None,,['return'],[1.5830439132623724],2017_Feb_24_1429,59.9218646384,famFaceGrey,001,25,
224,./greyInner/notfamousface9_1_cut.png,0,23,23,223,,,2.nein,2.511,None,None,None,music,1.877,None,None,None,,['return'],[0.9832965563764446],2017_Feb_24_1429,59.9218646384,famFaceGrey,001,25,
116,./greyInner/JudithRakers1_1_cut.png,0,24,24,115,,,2.nein,2.028,None,None,None,None,None,sport,2.911,None,,['return'],[1.0000477956127725],2017_Feb_24_1429,59.9218646384,famFaceGrey,001,25,
29,./greyInner/Beyonce5_3_cut.png,0,25,25,28,,,1.ja,12.289,None,None,None,music,0.909,None,None,None,Beyonce,"['lshift', 'b', 'e', 'y', 'o', 'n', 'c', 'e', 'backspace', 'e', 'backspace', 'e', 'lshift', 'return']","[1.3830491098306084, 1.7664218825630087, 2.049519782412972, 2.699244348168577, 3.0325738321917015, 3.3656280904760933, 4.814734585193946, 5.031373167927086, 8.43029362865127, 9.94618534881738, 10.979240024109458, 16.626856129754742, 16.926589468734164, 21.274963343334093]",2017_Feb_24_1429,59.9218646384,famFaceGrey,001,25,
215,./greyInner/notfamousface13_1_cut.png,0,26,26,214,,,2.nein,3.679,None,dummy,5.856,None,None,None,None,None,,['return'],[1.1500708433595719],2017_Feb_24_1429,59.9218646384,famFaceGrey,001,25,
53,./greyInner/DannFlorek(DonaldDonCragen)2_1_cut.png,0,27,27,52,,,2.nein,8.909,None,None,None,None,None,polit,6.827,None,,['return'],[1.2338016982503177],2017_Feb_24_1429,59.9218646384,famFaceGrey,001,25,
174,./greyInner/SahraWagenknecht6_2_cut.png,0,28,28,173,,,2.nein,6.014,None,None,None,None,None,polit,2.437,None,,['return'],[1.1832073165132897],2017_Feb_24_1429,59.9218646384,famFaceGrey,001,25,
125,./greyInner/KaleyCuoco(Penny)7_1_cut.png,0,29,29,124,,,1.ja,3.241,None,act,1.092,None,None,None,None,None,Penny,"['lshift', 'p', 'e', 'n', 'n', 'y', 'return']","[1.5330856301698077, 1.7663705584163836, 2.0495813713860116, 2.432744356668991, 2.582605091803998, 2.682513317813573, 3.9821138555635116]",2017_Feb_24_1429,59.9218646384,famFaceGrey,001,25,
41,./greyInner/CobieSmulders(Robin)12_1_cut.png,0,30,30,40,,,1.ja,6.189,None,act,0.966,None,None,None,None,None,Robin,"['lshift', 'r', 'o', 'b', 'i', 'n', 'return']","[1.0663374222640414, 1.2498494759020105, 1.7662910059916612, 2.0495204239632585, 2.266109607207909, 2.482814269784285, 4.215340081816976]",2017_Feb_24_1429,59.9218646384,famFaceGrey,001,25,
100,./greyInner/JasonSegel(Marshall)9_1_cut.png,0,31,31,99,,,1.ja,2.261,None,act,0.962,None,None,None,None,None,Marshell,"['lshift', 'm', 'a', 'r', 's', 'h', 'a', 'l', 'l', 'backspace', 'backspace', 'backspace', 'e', 'l', 'l', 'return']","[1.6827997707077884, 1.8829270545902546, 2.0994411762694654, 2.3160948354743596, 3.049155701741256, 3.165361589839449, 5.081694890133804, 5.298081663771882, 5.464894764645578, 8.396710314642405, 8.563465034301771, 8.896801896167744, 9.079970398797741, 9.262969852516107, 9.44655825082009, 14.344604116002301]",2017_Feb_24_1429,59.9218646384,famFaceGrey,001,25,
120,./greyInner/JudithRakers8_1_cut.png,0,32,32,119,,,2.nein,4.057,None,None,None,host,3.057,None,None,None,,['return'],[1.6163321134226862],2017_Feb_24_1429,59.9218646384,famFaceGrey,001,25,
221,./greyInner/notfamousface6_8_cut.png,0,33,33,220,,,2.nein,5.125,None,act,1.781,None,None,None,None,None,,['return'],[1.1999591973035422],2017_Feb_24_1429,59.9218646384,famFaceGrey,001,25,
99,./greyInner/JasonSegel(Marshall)7_1_cut.png,0,34,34,98,,,1.ja,4.26,None,act,1.228,None,None,None,None,None,Marshell,"['lshift', 'm', 'a', 'r', 's', 'h', 'e', u'\xf6', u'\xf6', 'backspace', 'backspace', 'l', 'l', 'return']","[1.566283371521422, 1.7162753040065581, 1.9329254346775997, 2.132803475673427, 2.3827110120146244, 2.5159048719760904, 2.665907069291279, 2.8824497400273685, 3.0492374996028957, 3.815309415640513, 4.015520101263974, 4.748474790703767, 4.881377706908097, 6.047621109752072]",2017_Feb_24_1429,59.9218646384,famFaceGrey,001,25,
34,./greyInner/BritneySpears7_1_cut.png,0,35,35,33,,,1.ja,2.646,None,None,None,music,1.096,None,None,None,Britney Spears,"['lshift', 'b', 'r', 'i', 't', 'n', 'e', 'y', 'space', 'lshift', 's', 'p', 'e', 'a', 'r', 's', 'return']","[1.832679110848403, 2.049333411603584, 2.2825185785404756, 2.7991419885729556, 3.1491421970786178, 3.4157268734197714, 3.5155298849276733, 3.7487368646288814, 4.3485705102357315, 4.648277545591554, 4.798426016724989, 4.998303736945672, 5.198267425108497, 5.398237528796017, 5.514685281934362, 5.631469529016613, 7.380719955886889]",2017_Feb_24_1429,59.9218646384,famFaceGrey,001,25,
58,./greyInner/ElvisPresley4_10_cut.png,0,36,36,57,,,1.ja,6.82,None,None,None,music,1.908,None,None,None,Elvis ,"['lshift', 'e', 'l', 'v', 'i', 's', 'space', 'lshift', 'p', 'r', 'e', 'backspace', 'backspace', 'backspace', 'return']","[2.249735921224783, 2.6327930504521646, 3.5992052455840167, 4.648828638615669, 4.882074432203808, 5.031764193772688, 5.198618995516881, 5.764949521097151, 6.198192042767914, 6.514789534106967, 6.765071736721438, 7.231141824337101, 7.414403031205438, 7.580916848146444, 8.897156674334838]",2017_Feb_24_1429,59.9218646384,famFaceGrey,001,25,
39,./greyInner/CarenMiosga6_2_cut.png,0,37,37,38,,,2.nein,6.775,None,act,1.195,None,None,None,None,None,,['return'],[1.2332813997127232],2017_Feb_24_1429,59.9218646384,famFaceGrey,001,25,
44,./greyInner/CobieSmulders(Robin)4_7_cut.png,0,38,38,43,,,1.ja,1.936,None,dummy,1.401,None,None,None,None,None,Robin,"['lshift', 'r', 'o', 'b', 'i', 'n', 'return']","[1.250041299899749, 1.399822482606396, 1.8163371816845029, 2.1330119800186367, 2.3995158208308567, 2.6494050729452283, 3.4324011264361616]",2017_Feb_24_1429,59.9218646384,famFaceGrey,001,25,
132,./greyInner/LeonardoDiCaprio2_1_cut.png,0,39,39,131,,,1.ja,1.825,None,act,3.374,None,None,None,None,None,Leonardo DiCaprio,"['lshift', 'l', 'e', 'o', 'n', 'a', 'r', 'd', 'p', 'space', 'backspace', 'backspace', 'p', 'space', 'd', 'e', 'space', 'lshift', 'c', 'a', u'\xfc', 'r', 'i', 'o', 'backspace', 'backspace', 'backspace', 'backspace', 'backspace', 'backspace', 'backspace', 'backspace', 'backspace', 'lshift', 'd', 'i', 'lshift', 'c', 'a', 'p', 'r', 'i', 'o', 'backspace', 'backspace', 'backspace', 'backspace', 'backspace', 'backspace', 'backspace', 'backspace', 'backspace', 'backspace', 'o', 'space', 'lshift', 'd', 'i', 'lshift', 'c', 'a', 'p', 'r', 'i', 'o', 'return']","[1.7495997518453805, 2.349296426138608, 2.832111979023466, 3.648853979913838, 3.915331837873964, 4.165326946043933, 4.715136549497402, 4.964972232031869, 5.164916032092151, 5.3313852611790935, 5.781201312227495, 5.997872614108928, 6.814184133716481, 6.930728119634296, 10.062888118813134, 10.24612462593359, 10.762617800945009, 10.945559835774475, 11.079216575388273, 11.329103582073003, 12.295436224772857, 12.545124350388505, 12.778538551330712, 12.94482301349126, 13.328200918636867, 13.528223950346728, 13.67804009763131, 13.844519591548305, 53.92830914843216, 54.2280351095651, 54.394655103336845, 54.76115666663827, 56.66035604202261, 57.26004405536514, 57.526750947330584, 57.89326758710013, 58.2096973126354, 58.393095490821, 58.59294241655152, 59.00942600036433, 59.192202194040874, 59.37589837305495, 59.55937161280599, 64.09056402350325, 64.24062299815705, 64.39057868296368, 64.54021712038593, 64.69057986983535, 64.84030619985788, 64.97346317059419, 65.12351797516021, 65.29008921099012, 65.44012412744996, 66.52288623906497, 66.63957810268039, 66.95612266599346, 67.17281449753136, 67.37257737997061, 67.88914593732261, 68.08903167694007, 68.42235025458285, 68.7720104406144, 68.93858424265272, 70.5212111472174, 71.05457200312594, 72.17083370623368]",2017_Feb_24_1429,59.9218646384,famFaceGrey,001,25,
148,./greyInner/MilaKunis4_1_cut.png,0,40,40,147,,,1.ja,5.294,None,act,3.779,None,None,None,None,None,,['return'],[10.829988121669885],2017_Feb_24_1429,59.9218646384,famFaceGrey,001,25,
199,./greyInner/UrsulavonderLeyen7_1_cut.png,0,41,41,198,,,1.ja,3.728,None,None,None,None,None,polit,1.246,None,,['return'],[1.0505815507021907],2017_Feb_24_1429,59.9218646384,famFaceGrey,001,25,
211,./greyInner/notfamousface10_4_cut.png,0,42,42,210,,,2.nein,2.992,None,act,5.113,None,None,None,None,None,,['return'],[1.4496768342978612],2017_Feb_24_1429,59.9218646384,famFaceGrey,001,25,
98,./greyInner/JasonSegel(Marshall)6_1_cut.png,0,43,43,97,,,1.ja,2.472,None,act,1.477,None,None,None,None,None,Marshall,"['lshift', 'm', 'a', 'r', 's', 'h', 'a', 'l', 'l', 'return']","[42.09948929265738, 42.24995180341648, 42.449872828387015, 42.66636898661454, 42.849519205014076, 42.999659335971955, 43.182876596540154, 45.56513210674893, 45.73145698667577, 51.41264100908302]",2017_Feb_24_1429,59.9218646384,famFaceGrey,001,25,
213,./greyInner/notfamousface12_2_cut.png,0,44,44,212,,,2.nein,7.066,None,None,None,music,4.933,None,None,None,,['return'],[1.1165378911755397],2017_Feb_24_1429,59.9218646384,famFaceGrey,001,25,
115,./greyInner/JoshRadnor(Ted)9_1_cut.png,0,45,45,114,,,2.nein,10.725,None,None,None,None,None,sport,5.212,None,,['return'],[1.4165470974439813],2017_Feb_24_1429,59.9218646384,famFaceGrey,001,25,
127,./greyInner/KatjaBurkard10_1_cut.png,0,46,46,126,,,2.nein,5.295,None,act,0.813,None,None,None,None,None,,['return'],[1.0168330370979675],2017_Feb_24_1429,59.9218646384,famFaceGrey,001,25,
201,./greyInner/Usher1_1_cut.png,0,47,47,200,,,1.ja,2.033,None,None,None,music,1.151,None,None,None,,['return'],[6.131238089186809],2017_Feb_24_1429,59.9218646384,famFaceGrey,001,25,
144,./greyInner/MariskaHargitay(Liv)6_5_cut.png,0,48,48,143,,,2.nein,4.961,None,None,None,host,4.425,None,None,None,,['return'],[1.1165301925539097],2017_Feb_24_1429,59.9218646384,famFaceGrey,001,25,
200,./greyInner/UrsulavonderLeyen8_2_cut.png,0,49,49,199,,,2.nein,3.892,None,None,None,None,None,polit,1.326,None,,['return'],[0.933244606716471],2017_Feb_24_1429,59.9218646384,famFaceGrey,001,25,
154,./greyInner/NeilPatrickHarris(Barney)2_2_cut.png,0,50,50,153,,,1.ja,3.046,None,act,1.43,None,None,None,None,None,Barney Stinson,"['lshift', 'b', 'a', 'r', 'm', 'e', 'backspace', 'backspace', 'n', 'e', 'y', 'space', 'lshift', 's', 't', 'i', 'n', 's', 'o', 'n', 'return']","[2.399597297913715, 2.5659555385318527, 2.7660876340560208, 2.9825632626234437, 3.299175830434251, 3.4490211683223606, 3.90023259462032, 4.0655114242726995, 4.781922737271088, 4.931809134479408, 5.164983715811104, 5.348355911148246, 5.598241313949984, 5.7312927494058385, 5.848182852540049, 6.814478285235964, 6.997467474124278, 7.114031668923417, 7.963951523059222, 8.180533328457386, 9.113315376296669]",2017_Feb_24_1429,59.9218646384,famFaceGrey,001,25,
168,./greyInner/RobertSeanLeonard(Wilson)11_2_cut.png,0,51,51,167,,,1.ja,4.726,None,act,1.344,None,None,None,None,None,,['return'],[1.149625606387417],2017_Feb_24_1429,59.9218646384,famFaceGrey,001,25,
110,./greyInner/JoachimLoew8_1_cut.png,0,52,52,109,,,1.ja,1.64,None,None,None,None,None,sport,1.124,None,Jogi Löw,"['lshift', 'j', 'o', 'g', 'i', 'space', 'lshift', 'l', u'\xf6', 'w', 'return']","[1.3330491258711845, 1.516440888539364, 1.7496074504706485, 2.0494941203396593, 2.182867614817951, 2.316036133484886, 2.566039902601915, 2.7490403186457115, 2.9491172407142585, 3.049008786376362, 4.481594679738919]",2017_Feb_24_1429,59.9218646384,famFaceGrey,001,25,
118,./greyInner/JudithRakers4_3_cut.png,0,53,53,117,,,2.nein,1.912,None,None,None,music,5.377,None,None,None,,['return'],[0.967070106536994],2017_Feb_24_1429,59.9218646384,famFaceGrey,001,25,
14,./greyInner/BarackObama4_1_cut.png,0,54,54,13,,,1.ja,1.53,None,None,None,None,None,polit,0.73,None,Obama,"['lshift', 'o', 'n', 'backspace', 'b', 'a', 'm', 'a', 'return']","[1.9327810855138523, 2.532913052724325, 2.8493190408407827, 3.3990506957452453, 4.015446002023964, 4.148844196250138, 4.315385920697736, 4.431986363175383, 6.480937730659207]",2017_Feb_24_1429,59.9218646384,famFaceGrey,001,25,
175,./greyInner/SahraWagenknecht9_1_cut.png,0,55,55,174,,,1.ja,8.306,None,act,1.625,None,None,None,None,None,,['return'],[0.9000590548494074],2017_Feb_24_1429,59.9218646384,famFaceGrey,001,25,
160,./greyInner/NicoleKidman8_2_cut.png,0,56,56,159,,,2.nein,2.993,None,None,None,music,5.791,None,None,None,,['return'],[0.7999692696648708],2017_Feb_24_1429,59.9218646384,famFaceGrey,001,25,
20,./greyInner/BastianSchweinsteiger6_2_cut.png,0,57,57,19,,,1.ja,2.725,None,None,None,None,None,sport,2.708,None,Schweinsteiger,"['lshift', 's', 'c', 'h', 'w', 'e', 'i', 'n', 's', 't', 'e', 'o', 'g', 'backspace', 'backspace', 'i', 'g', 'e', 'r', 'return']","[3.5323821685778967, 3.7156812270040973, 3.9655351937690284, 4.132861536108976, 4.282102852946991, 4.465379136283445, 4.582170440433401, 4.831937797698629, 5.098581496808038, 5.248373906673805, 5.415730081178481, 5.5982759577455, 5.864946922811214, 6.281450715505343, 6.431188593462139, 7.181015454661974, 7.414199980044941, 7.49763860807434, 7.5811869414683315, 11.729147079284303]",2017_Feb_24_1429,59.9218646384,famFaceGrey,001,25,
195,./greyInner/TomCruise7_1_cut.png,0,58,58,194,,,1.ja,4.578,None,act,3.163,None,None,None,None,None,,['return'],[1.016611380935501],2017_Feb_24_1429,59.9218646384,famFaceGrey,001,25,
159,./greyInner/NicoleKidman7_1_cut.png,0,59,59,158,,,1.ja,5.561,None,act,1.463,None,None,None,None,None,Nicole Kidman,"['lshift', 'n', 'i', 'c', 'o', 'l', 'e', 'space', 'lshift', 'k', 'i', 't', 't', 'm', 'a', 'n', 'backspace', 'backspace', 'backspace', 'backspace', 'backspace', 'd', 'm', 'a', 'n', 'return']","[1.4831469144082803, 1.7164177285121696, 1.9663153208020958, 2.23292662154563, 2.3827950553022674, 2.5659507268937887, 2.682784052689385, 2.799354021455656, 3.1659020972620056, 3.532372866076912, 4.098807323054643, 4.365384942328092, 4.481836544779071, 4.765013034728327, 4.881770015854272, 4.998348645571241, 17.72643363579118, 17.909670142915274, 18.05977466774857, 18.209683198492712, 18.659349126413872, 19.44220885014147, 19.609012327739038, 19.77562398133523, 19.89204928016261, 20.9752572703037]",2017_Feb_24_1429,59.9218646384,famFaceGrey,001,25,
24,./greyInner/BenedictCumberbatch4_1_cut.png,0,60,60,23,,,1.ja,3.201,None,act,0.848,None,None,None,None,None,,['return'],[0.7165386610358837],2017_Feb_24_1429,59.9218646384,famFaceGrey,001,25,
194,./greyInner/TomCruise6_1_cut.png,0,61,61,193,,,1.ja,5.51,None,dummy,0.762,None,None,None,None,None,,['return'],[0.7672844490080024],2017_Feb_24_1429,59.9218646384,famFaceGrey,001,25,
222,./greyInner/notfamousface7_cut.png,0,62,62,221,,,2.nein,2.014,None,None,None,None,None,sport,1.997,None,,['return'],[1.2333721792965662],2017_Feb_24_1429,59.9218646384,famFaceGrey,001,25,
157,./greyInner/NicoleKidman3_1_cut.png,0,63,63,156,,,1.ja,4.392,None,act,1.612,None,None,None,None,None,Nicole Kidman,"['lshift', 'n', 'i', 'c', 'o', 'l', 'e', 'space', 'lshift', 'k', 'i', 'd', 'm', 'a', 'n', 'return']","[1.100059311469522, 1.2830420848404174, 1.533422124110075, 1.7497899719674024, 1.899931065257988, 2.0663694998584106, 2.149633305009047, 2.283141204599815, 2.582687851994706, 2.8994502221539733, 3.166022388235433, 3.36582857542453, 3.5158673411970085, 3.6824789947932004, 3.7990412649378413, 4.5652809467792395]",2017_Feb_24_1429,59.9218646384,famFaceGrey,001,25,
7,./greyInner/AngelaMerkel3_1_cut.png,0,64,64,6,,,1.ja,1.268,None,None,None,None,None,polit,1.868,None,Angela Merkel,"['lshift', 'a', 'n', 'g', 'e', 'a', 'backspace', 'l', 'a', 'space', 'lshift', 'm', 'e', 'r', 'k', 'e', u'\xf6', 'backspace', 'l', 'return']","[0.9500195833679754, 1.1332041247915186, 1.316561885214469, 1.5329069579820498, 1.6163167161794263, 1.933026158312714, 2.28287656446264, 2.8826139772972965, 2.9993610143719707, 3.1158273725159233, 3.23240888921282, 3.365669149792666, 3.5323975658247946, 3.6155285697459476, 3.79947687863023, 4.198863747540599, 4.36507346891085, 5.264882639319694, 5.498188418001519, 6.664513939478638]",2017_Feb_24_1429,59.9218646384,famFaceGrey,001,25,
93,./greyInner/JanHofer5_1_cut.png,0,65,65,92,,,1.ja,6.311,None,dummy,0.979,None,None,None,None,None,,['return'],[0.8503105592062639],2017_Feb_24_1429,59.9218646384,famFaceGrey,001,25,
183,./greyInner/SigmarGabriel3_3_cut.png,0,66,66,182,,,2.nein,3.697,None,act,2.411,None,None,None,None,None,,['return'],[1.0500404017257097],2017_Feb_24_1429,59.9218646384,famFaceGrey,001,25,
140,./greyInner/LisaEdelstein(DrLisaCuddy)9_1_cut.png,0,67,67,139,,,2.nein,3.695,None,None,None,music,0.962,None,None,None,,['return'],[0.9500856632075738],2017_Feb_24_1429,59.9218646384,famFaceGrey,001,25,
76,./greyInner/GeorgeClooney11_1_cut.png,0,68,68,75,,,1.ja,3.745,None,act,0.847,None,None,None,None,None,George Clooney,"['lshift', 'g', 'e', 'o', 'r', 'g', 'e', 'space', 'lshift', 'c', 'l', 'o', 'n', 'e', 'y', 'backspace', 'backspace', 'backspace', 'o', 'n', 'e', 'y', 'return']","[1.0164359165100905, 1.1831191031342314, 1.433189914419927, 1.8161036568126292, 1.9996099364834663, 2.1828486890372005, 2.299405505989853, 2.432651973205793, 3.2157766578420706, 3.4323007235725527, 3.982203993597068, 4.198710737426154, 4.481886585825123, 4.598450780624262, 4.798520004067541, 14.860803139497875, 15.127276185819937, 15.510680073817639, 16.22711929431898, 16.543585267532762, 16.676869265527785, 16.926744082724326, 19.042491582036746]",2017_Feb_24_1429,59.9218646384,famFaceGrey,001,25,
206,./greyInner/WillSmith1_1_cut.png,0,69,69,205,,,1.ja,1.93,None,act,1.83,None,None,None,None,None,Will Smith,"['lshift', 'w', 'i', 'l', 'l', 'space', 'lshift', 's', 'm', 'i', 't', 'h', 'return']","[0.8335792080724787, 1.06685483381807, 1.2334469200832245, 1.4166628975472122, 1.5498346239728562, 1.6496863934225985, 1.7666252544950112, 1.8998454180837143, 2.083097322451067, 2.7494252497454, 3.0493879435052804, 3.199416123672563, 3.9657071296605864]",2017_Feb_24_1429,59.9218646384,famFaceGrey,001,25,
155,./greyInner/NeilPatrickHarris(Barney)3_7_cut.png,0,70,70,154,,,1.ja,1.934,None,act,1.166,None,None,None,None,None,Barney Stinson,"['lshift', 'b', 'a', 'r', 'n', 'e', 'y', 'space', 'lshift', 's', 't', 'i', 'n', 's', 'o', 'n', 'return']","[0.6503728538918949, 0.9335932901376509, 1.149983913088363, 1.3332348551266477, 1.5998397403527633, 1.7664953402490937, 1.9664494051394286, 2.466372258531919, 2.6328084476990625, 2.7827160161177744, 2.8994338625816454, 3.2991986055239977, 3.498999660299887, 3.632526806442911, 3.782357067866542, 3.9989183436046005, 4.498700376367196]",2017_Feb_24_1429,59.9218646384,famFaceGrey,001,25,
167,./greyInner/RobertSeanLeonard(Wilson)10_1_cut.png,0,71,71,166,,,1.ja,1.802,None,act,0.988,None,None,None,None,None,,['return'],[0.8503907531849109],2017_Feb_24_1429,59.9218646384,famFaceGrey,001,25,
48,./greyInner/CristinMilioti(Tracy_Mutter)4_2_cut.png,0,72,72,47,,,2.nein,4.326,None,None,None,music,1.028,None,None,None,,['return'],[1.216542349957308],2017_Feb_24_1429,59.9218646384,famFaceGrey,001,25,
97,./greyInner/JasonSegel(Marshall)14_1_cut.png,0,73,73,96,,,1.ja,2.62,None,act,0.856,None,None,None,None,None,Marshall Erikson,"['lshift', 'm', 'a', 'r', 's', 'h', 'a', 'l', 'l', 'space', 'lshift', 'e', 'r', 'i', 'k', 's', 'p', 'm', 'backspace', 'backspace', 'o', 'n', 'return']","[0.8000545960603631, 1.0999765512824524, 1.3332444784064137, 1.5332209976077138, 1.7497040040216234, 1.966197596040729, 2.0996548130351584, 3.399725608280278, 3.532367092113418, 3.7155538789666025, 4.981708394803718, 5.1814196323211945, 5.46483894963967, 6.413939830777963, 6.63014664912771, 6.763974683082779, 6.847217958576948, 7.16335289104245, 7.530679810781294, 7.68068617818426, 8.447041339357384, 8.663559951895877, 9.096699183723103]",2017_Feb_24_1429,59.9218646384,famFaceGrey,001,25,
65,./greyInner/EmilyDeschanel8_3_cut.png,0,74,74,64,,,1.ja,8.429,None,act,1.523,None,None,None,None,None,Bones,"['lshift', 'b', 'o', 'n', 'e', 's', 'return']","[0.6836681111199141, 0.9168301821919158, 1.4000662723046844, 1.6497832677523547, 1.7497591774808825, 1.933025195987284, 3.382618628547789]",2017_Feb_24_1429,59.9218646384,famFaceGrey,001,25,
90,./greyInner/Ice-T(OdafinFinTutuola)7_1_cut.png,0,75,75,89,,,1.ja,1.559,None,act,0.86,None,None,None,None,None,,['return'],[1.1165751011831162],2017_Feb_24_1429,59.9218646384,famFaceGrey,001,25,
22,./greyInner/BenedictCumberbatch2_2_cut.png,0,76,76,21,,,2.nein,5.559,None,None,None,music,2.255,None,None,None,,['return'],[1.0667909994153888],2017_Feb_24_1429,59.9218646384,famFaceGrey,001,25,
52,./greyInner/DannFlorek(DonaldDonCragen)10_1_cut.png,0,77,77,51,,,2.nein,2.001,None,None,None,None,None,polit,1.269,None,,['return'],[1.91568148362785],2017_Feb_24_1429,59.9218646384,famFaceGrey,001,25,
89,./greyInner/Ice-T(OdafinFinTutuola)6_1_cut.png,0,78,78,88,,,1.ja,7.874,None,act,2.883,None,None,None,None,None,,['return'],[15.993806779340957],2017_Feb_24_1429,59.9218646384,famFaceGrey,001,25,
17,./greyInner/BastianSchweinsteiger12_1_cut.png,0,79,79,16,,,1.ja,2.547,None,None,None,None,None,sport,0.847,None,Scheinsteiger,"['lshift', 's', 'c', 'h', 'e', 'i', 'n', 's', 't', 'e', 'i', 'g', 'e', 'r', 'return']","[2.066496527117124, 2.3164669355392107, 2.5496097600553185, 2.6830916767939925, 2.882631619970198, 3.0661510514546535, 3.5158907578334038, 3.9823217183584347, 4.098946860580327, 4.265527078136074, 4.43210408793675, 4.615450941972085, 4.731976322887931, 4.798601481150399, 5.281921935329592]",2017_Feb_24_1429,59.9218646384,famFaceGrey,001,25,
68,./greyInner/EmmaWatson(HermioneGranger)3_1_cut.png,0,80,80,67,,,1.ja,3.926,None,act,2.427,None,None,None,None,None,Emma Watson,"['lshift', 'e', 'm', 'm', 'a', 'space', 'lshift', 'w', 'a', 't', 's', 'o', 'n', 'return']","[0.950357360412454, 1.200169626306888, 1.500139697913255, 1.6167770296233357, 1.783354360195517, 1.9665581481749541, 2.199873229357763, 2.3331010915680963, 2.5497133706812747, 3.1328195144669735, 3.3494167171083973, 3.5326419970770075, 3.7492433698025707, 4.81534438021481]",2017_Feb_24_1429,59.9218646384,famFaceGrey,001,25,
1,./greyInner/AlysonHannigan(Lily)1_1_cut.png,0,81,81,0,,,1.ja,2.645,None,act,0.833,None,None,None,None,None,Lilli,"['lshift', 'l', 'i', 'l', 'l', 'i', 'return']","[0.6671382072672714, 0.9001665147807216, 1.1832265630691836, 1.4000608191163337, 1.5499574811510684, 1.7333123545904527, 2.2664008717401884]",2017_Feb_24_1429,59.9218646384,famFaceGrey,001,25,
223,./greyInner/notfamousface8_9_cut.png,0,82,82,222,,,2.nein,2.341,None,None,None,music,3.859,None,None,None,,['return'],[0.8333148887177231],2017_Feb_24_1429,59.9218646384,famFaceGrey,001,25,
205,./greyInner/Usher7_1_cut.png,0,83,83,204,,,1.ja,3.06,None,None,None,music,1.444,None,None,None,,['return'],[0.8666322794888401],2017_Feb_24_1429,59.9218646384,famFaceGrey,001,25,
212,./greyInner/notfamousface11_1_cut.png,0,84,84,211,,,2.nein,2.167,None,None,None,host,3.032,None,None,None,,['return'],[0.8502566688512161],2017_Feb_24_1429,59.9218646384,famFaceGrey,001,25,
156,./greyInner/NicoleKidman14_1_cut.png,0,85,85,155,,,1.ja,1.644,None,act,2.094,None,None,None,None,None,Nicole Kidman,"['lshift', 'n', 'i', 'c', 'o', 'l', 'e', 'space', 'lshift', 'k', 'i', 'd', 'm', 'a', 'n', 'return']","[1.1505350061161153, 1.3170767305637128, 1.5836886728575337, 1.7668013604743464, 1.900179345815559, 2.0668195484686294, 2.166646618170489, 2.2999957336796797, 2.6499221637241135, 2.9163920022874663, 3.1164092600301956, 3.2494716018700274, 3.382889363423601, 3.51617207831805, 3.6492594406772696, 4.382461448349204]",2017_Feb_24_1429,59.9218646384,famFaceGrey,001,25,
158,./greyInner/NicoleKidman5_1_cut.png,0,86,86,157,,,1.ja,1.723,None,act,0.675,None,None,None,None,None,Nicole Kidman,"['lshift', 'n', 'i', 'c', 'o', 'l', 'e', 'space', 'lshift', 'k', 'i', 'd', 'm', 'a', 'n', 'return']","[0.9499377855099738, 1.149969478170533, 1.3833227316863486, 1.5331658241484547, 1.633105486198474, 1.8163493711654155, 1.8996696328795224, 2.016315625540301, 2.3328348475552048, 2.4993813836408663, 2.6660716273363505, 2.782666295846866, 2.915864967450034, 3.0158883520161908, 3.115868431832496, 3.5323885840953153]",2017_Feb_24_1429,59.9218646384,famFaceGrey,001,25,
9,./greyInner/AngelaMerkel5_1_cut.png,0,87,87,8,,,1.ja,1.411,None,None,None,None,None,polit,1.278,None,Angela Merkel,"['lshift', 'a', 'n', 'g', 'e', 'l', 'a', 'space', 'lshift', 'm', 'e', 'r', 'k', 'e', 'l', 'return']","[0.5836514628535951, 0.8001800194469979, 0.9835605549560569, 1.2002206296783697, 1.2668993575207423, 1.4500810119607195, 1.5500145792684634, 1.6666041153657716, 1.7830980602375348, 1.9331531855787034, 2.116427223485516, 2.216261991809006, 2.416436429753958, 2.8160991659533465, 2.9659749775564705, 3.3826423659666034]",2017_Feb_24_1429,59.9218646384,famFaceGrey,001,25,
8,./greyInner/AngelaMerkel4_1_cut.png,0,88,88,7,,,1.ja,1.978,None,None,None,None,None,polit,1.86,None,Angela Merkel,"['lshift', 'a', 'n', 'g', 'e', u'\xf6', 'a', 'backspace', 'backspace', 'l', 'a', 'space', 'lshift', 'm', 'e', 'r', 'k', 'e', 'l', 'return']","[0.5500636579781712, 0.8167580396839185, 0.9832667242117168, 1.1665805383308907, 1.2498350409841805, 1.4832486003724625, 1.5830506495549344, 1.9828516401721572, 2.149307717449119, 2.7825017378017947, 2.8658114139107056, 2.9823890812986065, 3.082463148457464, 3.215786601893342, 3.3989214230496145, 3.4822862726177846, 3.6821976743085543, 3.832082788412663, 4.631816929333581, 5.331263045554806]",2017_Feb_24_1429,59.9218646384,famFaceGrey,001,25,
105,./greyInner/JimParsons(SheldonCooper)9_3_cut.png,0,89,89,104,,,1.ja,3.026,None,act,0.611,None,None,None,None,None,Sheldon Cooper,"['lshift', 's', 'h', 'e', 'l', 'd', 'o', 'n', 'space', 'lshift', 'c', 'o', 'o', 'p', 'e', 'r', 'return']","[0.8669325257469609, 1.0334630230354378, 1.2165818053981639, 1.350065646791336, 1.5332293377796304, 1.649776852231298, 1.7498053692106623, 1.9826979885110632, 2.1164025237376336, 2.6162009160725574, 2.783102230321674, 3.115959211416339, 3.249151467502088, 3.482501192484051, 3.565666198654071, 3.648914927340229, 5.26507863340521]",2017_Feb_24_1429,59.9218646384,famFaceGrey,001,25,
19,./greyInner/BastianSchweinsteiger3_1_cut.png,0,90,90,18,,,1.ja,1.646,None,None,None,None,None,sport,1.229,None,Schweinsteiger,"['lshift', 's', 'c', 'h', 'w', 'e', 'i', 'n', 's', 't', 'e', 'i', 'g', 'e', 'r', 'return']","[0.9501976140018087, 1.0999755889533844, 1.349891786241642, 1.4666968837555032, 1.599763074904331, 1.7831500259344466, 1.882917752092908, 2.1163771824394644, 2.3828794193686917, 2.499469917795068, 2.6328815846063662, 3.2990786353293515, 3.5157428801358037, 3.6323872689172276, 3.6823891775311495, 5.065135474895214]",2017_Feb_24_1429,59.9218646384,famFaceGrey,001,25,
77,./greyInner/GeorgeClooney15_1_cut.png,0,91,91,76,,,1.ja,3.674,None,act,2.192,None,None,None,None,None,George Clooney,"['lshift', 'g', 'e', 'o', 'r', 'g', 'e', 'space', 'lshift', 'c', 'l', 'o', 'o', 'n', 'e', 'y', 'return']","[1.0998052569411811, 1.3830731680245663, 1.6495741218532203, 2.69939158431589, 2.932550768404326, 3.6155709121667314, 3.732082499715034, 3.8319888010701106, 4.065179741974134, 4.265079916509421, 4.564999626294593, 5.014855774334137, 5.181615947181854, 5.514718321854161, 5.648059417966579, 5.831310039226082, 6.8142797249420255]",2017_Feb_24_1429,59.9218646384,famFaceGrey,001,25,
82,./greyInner/HughLaurie(DrHouse)4_1_cut.png,0,92,92,81,,,1.ja,2.842,None,dummy,0.708,None,None,None,None,None,Dr House,"['lshift', 'd', 'r', 'period', 'space', 'lshift', 'h', 'o', 'u', 's', 'e', 'return']","[0.9832904616305314, 1.2995886690368934, 1.5497646948242618, 2.3828117356497387, 2.5159901983679447, 2.682544112300093, 2.8824340220053273, 3.315397468628362, 3.51562451382415, 3.615487510429375, 3.798709582635638, 4.431895583587902]",2017_Feb_24_1429,59.9218646384,famFaceGrey,001,25,
67,./greyInner/EmmaWatson(HermioneGranger)16_1_cut.png,0,93,93,66,,,1.ja,3.045,None,act,13.458,None,None,None,None,None,Emma Watson,"['lshift', 'e', 'm', 'm', 'a', 'space', 'lshift', 'w', 'a', 't', 's', 'o', 'n', 'return']","[1.2665978281547723, 1.4999667996926291, 1.7665251724101836, 1.9330989744485123, 2.099630113287276, 2.2662937325840176, 2.4828312709032616, 2.749746987996332, 2.999317068068194, 3.149358720824239, 3.3156261818585335, 4.215493091931421, 4.482043124473421, 4.8985170850064605]",2017_Feb_24_1429,59.9218646384,famFaceGrey,001,25,
60,./greyInner/ElvisPresley6_1_cut.png,0,94,94,59,,,1.ja,1.861,None,None,None,music,2.227,None,None,None,Elvis ,"['lshift', 'e', 'l', 'v', 'i', 's', 'space', 'lshift', 'return']","[0.3668762295747001, 0.7670307152584428, 1.4666163690017129, 2.2829599662036344, 2.716199600890832, 2.849266112814803, 2.949359426529554, 3.1992297528631752, 4.332150311747682]",2017_Feb_24_1429,59.9218646384,famFaceGrey,001,25,
45,./greyInner/CobieSmulders(Robin)5_1_cut.png,0,95,95,44,,,1.ja,2.297,None,act,0.931,None,None,None,None,None,Robin,"['lshift', 'r', 'o', 'b', 'i', 'n', 'return']","[0.5500023897802748, 0.8833703669151873, 1.2998244393384084, 1.5830923504254315, 1.8328603492409457, 2.0662630022525263, 2.699387414228113]",2017_Feb_24_1429,59.9218646384,famFaceGrey,001,25,
33,./greyInner/BritneySpears5_1_cut.png,0,96,96,32,,,1.ja,2.295,None,None,None,music,2.228,None,None,None,Britney Spears,"['lshift', 'b', 'r', 'i', 't', 'n', 'e', 's', 'space', 'backspace', 'backspace', 'y', 'space', 'lshift', 's', 'p', 'e', 'a', 'r', 's', 'return']","[2.266589808757999, 2.5498349447516375, 2.832923542096978, 3.1828348956732953, 3.4494131564970303, 3.765963172998454, 3.8992753992788494, 4.115783426212147, 4.265713128170319, 4.698842736717779, 4.898866089206422, 5.381954943171877, 5.681879143823608, 5.998030756636581, 6.181392045589746, 6.43141634436688, 6.647967676053668, 6.89815717442616, 6.9978873698019015, 7.564352300491009, 8.547333534137579]",2017_Feb_24_1429,59.9218646384,famFaceGrey,001,25,
145,./greyInner/MariskaHargitay(Liv)8_8_cut.png,0,97,97,144,,,1.ja,3.796,None,None,None,None,None,polit,1.44,None,,['return'],[2.199497279980278],2017_Feb_24_1429,59.9218646384,famFaceGrey,001,25,
173,./greyInner/SahraWagenknecht5_1_cut.png,0,98,98,172,,,2.nein,4.511,None,None,None,None,None,polit,3.844,None,,['return'],[1.6331879256104003],2017_Feb_24_1429,59.9218646384,famFaceGrey,001,25,
152,./greyInner/NeilPatrickHarris(Barney)11_2_cut.png,0,99,99,151,,,2.nein,5.479,None,act,1.131,None,None,None,None,None,,['return'],[1.0500275706908724],2017_Feb_24_1429,59.9218646384,famFaceGrey,001,25,
66,./greyInner/EmmaWatson(HermioneGranger)11_2_cut.png,0,100,100,65,,,1.ja,2.844,None,act,0.794,None,None,None,None,None,Emma Watson,"['lshift', 'e', 'm', 'm', 'a', 'space', 'lshift', 'w', 'a', 't', 's', 'o', 'n', 'return']","[1.166724887498276, 1.4331751587305916, 1.9331640919590427, 2.099783764955646, 2.2335813251957006, 2.3663953864743235, 2.5495722292762366, 2.8329107110621408, 3.049005899392796, 3.26582283353855, 3.432396635576879, 3.6491619247972267, 3.8823502994928276, 4.36560563616149]",2017_Feb_24_1429,59.9218646384,famFaceGrey,001,25,
78,./greyInner/GeorgeClooney16_1_cut.png,0,101,101,77,,,2.nein,6.407,None,act,3.624,None,None,None,None,None,,['return'],[0.8667660430437536],2017_Feb_24_1429,59.9218646384,famFaceGrey,001,25,
21,./greyInner/BenedictCumberbatch16_1_cut.png,0,102,102,20,,,1.ja,5.493,None,act,0.512,None,None,None,None,None,,['return'],[0.783373606751411],2017_Feb_24_1429,59.9218646384,famFaceGrey,001,25,
186,./greyInner/TaylorSwift1_2_cut.png,0,103,103,185,,,1.ja,2.681,None,None,None,music,3.563,None,None,None,,['return'],[0.90007894295195],2017_Feb_24_1429,59.9218646384,famFaceGrey,001,25,
190,./greyInner/TaylorSwift8_1_cut.png,0,104,104,189,,,1.ja,1.712,None,None,None,music,0.929,None,None,None,,['return'],[2.0826626710804703],2017_Feb_24_1429,59.9218646384,famFaceGrey,001,25,
209,./greyInner/WillSmith5_1_cut.png,0,105,105,208,,,1.ja,1.713,None,act,1.096,None,None,None,None,None,Will Smith,"['lshift', 'w', 'i', 'l', 'l', 'space', 'lshift', 's', 'm', 'i', 't', 'h', 'return']","[0.9169617003208259, 1.1334870491555193, 1.3000002245462383, 1.4833313605631702, 1.6333001971834165, 1.733019806950324, 1.9165174256704631, 2.116398032874713, 2.499279697676684, 2.699518932357023, 2.91616842147414, 3.099336603325355, 4.881968896926992]",2017_Feb_24_1429,59.9218646384,famFaceGrey,001,25,
26,./greyInner/Beyonce1_1_cut.png,0,106,106,25,,,1.ja,5.716,None,None,None,music,0.97,None,None,None,Beyonce,"['lshift', 'b', 'e', 'y', 'o', 'n', 'c', 'e', 'return']","[0.9666649665559817, 1.3000467370511615, 1.9994848338756128, 2.79915802737014, 3.1989805099765363, 3.432480678864522, 3.5988273715556716, 3.849022643895296, 4.998568056300428]",2017_Feb_24_1429,59.9218646384,famFaceGrey,001,25,
108,./greyInner/JoachimLoew15_1_cut.png,0,107,107,107,,,1.ja,2.461,None,None,None,None,None,sport,0.745,None,Jogi Löw,"['lshift', 'j', 'o', 'g', 'i', 'space', 'lshift', 'l', u'\xf6', 'w', 'return']","[0.816785626415367, 1.0333340711149503, 1.3998831092540058, 1.8830178341777355, 2.0329873123482685, 2.2162344050775573, 2.5994342795893317, 2.8494572952622548, 3.032414727334981, 3.1659184568343335, 3.582437646771723]",2017_Feb_24_1429,59.9218646384,famFaceGrey,001,25,
81,./greyInner/HughLaurie(DrHouse)2_1_cut.png,0,108,108,80,,,1.ja,1.433,None,act,2.251,None,None,None,None,None,Dr House,"['lshift', 'd', 'r', 'period', 'space', 'lshift', 'h', 'o', 'u', 's', 'e', 'return']","[0.5502766531899397, 0.7835432972096896, 1.0334113781136693, 1.2497275810528663, 1.383369564973691, 1.5832296425178356, 1.7664982272326597, 2.0493263545322407, 2.2495867604229716, 2.3829265734311775, 2.549330043457303, 2.932510992188327]",2017_Feb_24_1429,59.9218646384,famFaceGrey,001,25,
123,./greyInner/KaleyCuoco(Penny)3_1_cut.png,0,109,109,122,,,1.ja,1.463,None,act,0.696,None,None,None,None,None,Penny,"['lshift', 'p', 'e', 'n', 'n', 'y', 'return']","[0.6168950751598459, 1.0333940562159114, 1.2832695149663778, 1.4330734727627714, 1.583191470184829, 1.699702416182845, 2.0497128895149217]",2017_Feb_24_1429,59.9218646384,famFaceGrey,001,25,
47,./greyInner/CristinMilioti(Tracy_Mutter)2_1_cut.png,0,110,110,46,,,2.nein,2.263,None,None,None,music,2.479,None,None,None,,['return'],[0.9333565575107059],2017_Feb_24_1429,59.9218646384,famFaceGrey,001,25,
85,./greyInner/HughLaurie(DrHouse)9_2_cut.png,0,111,111,84,,,1.ja,2.469,None,act,0.624,None,None,None,None,None,Dr House,"['lshift', 'd', 'r', 'period', 'space', 'lshift', 'h', 'o', 'u', 's', 'e', 'return']","[0.6003876256181684, 0.850107828824548, 1.1001372600148898, 1.2834501118049957, 1.4333926447980048, 1.599741903693939, 1.7832369562056556, 2.049718984253559, 2.2994061475401395, 2.4495921494562936, 2.6328267319222505, 3.3157054135081125]",2017_Feb_24_1429,59.9218646384,famFaceGrey,001,25,
72,./greyInner/GuentherJauch3_1_cut.png,0,112,112,71,,,1.ja,1.534,None,None,None,host,1.381,None,None,None,Günther Jauch,"['lshift', 'g', u'\xfc', 'n', 't', 'h', 'e', 'r', 'space', 'lshift', 'j', 'a', 'u', 'c', 'h', 'return']","[0.6666807808069279, 1.1497933721911977, 1.583080160937243, 1.8827730821503792, 2.1327274517752812, 2.2994930778149865, 2.4157454784217407, 2.4491773861955153, 2.599621933499293, 2.9825048814054753, 3.165710273264267, 3.3488707564938522, 3.4823308604718477, 3.5988187106013356, 3.698792374896584, 4.148620294658031]",2017_Feb_24_1429,59.9218646384,famFaceGrey,001,25,
218,./greyInner/notfamousface3_3_cut.png,0,113,113,217,,,2.nein,7.026,None,None,None,music,2.809,None,None,None,,['return'],[0.9669738737648004],2017_Feb_24_1429,59.9218646384,famFaceGrey,001,25,
202,./greyInner/Usher11_1_cut.png,0,114,114,201,,,1.ja,1.678,None,None,None,music,0.928,None,None,None,,['return'],[0.9668705839176255],2017_Feb_24_1429,59.9218646384,famFaceGrey,001,25,
38,./greyInner/CarenMiosga2_11_cut.png,0,115,115,37,,,2.nein,3.553,None,act,2.024,None,None,None,None,None,,['return'],[0.9502720340205997],2017_Feb_24_1429,59.9218646384,famFaceGrey,001,25,
84,./greyInner/HughLaurie(DrHouse)8_1_cut.png,0,116,116,83,,,1.ja,5.939,None,None,None,music,1.009,None,None,None,Robbie Williams,"['lshift', 'r', 'o', 'b', 'b', 'i', 'e', 'space', 'lshift', 'w', 'i', 'l', 'l', 'i', 'a', 'comma', 's', 'backspace', 'backspace', 'a', 'm', 's', 'return']","[1.1497564829587645, 1.4496165284253948, 1.899530095357477, 2.299494681694341, 2.4660931834769144, 2.715925337477529, 2.84897548983281, 2.9325433905542013, 4.198572803783463, 4.481876641770214, 4.698421237160801, 5.198284747006255, 5.3314596811906085, 5.547598174271116, 5.647979544759437, 5.831141631868377, 5.94783542013829, 6.8641552478438825, 7.064139465670451, 7.830470568645978, 7.96362786015743, 8.030425916640525, 9.746116446149244]",2017_Feb_24_1429,59.9218646384,famFaceGrey,001,25,
165,./greyInner/OmarEpps(DrEricForeman)9_1_cut.png,0,117,117,164,,,2.nein,2.428,None,None,None,music,0.895,None,None,None,,['return'],[1.0839056777658698],2017_Feb_24_1429,59.9218646384,famFaceGrey,001,25,
70,./greyInner/EmmaWatson(HermioneGranger)9_1_cut.png,0,118,118,69,,,1.ja,2.33,None,act,0.73,None,None,None,None,None,Emma Watson,"['lshift', 'e', 'm', 'm', 'a', 'space', 'lshift', 'w', 'a', 't', 's', 'o', 'n', 'return']","[0.5835584378328349, 0.8335535459991661, 1.100097804577672, 1.249961105917464, 1.3666792731601163, 1.516523007172509, 1.6661373864008056, 1.816458114200941, 2.049653225192742, 2.2495498711905384, 2.4327661694296694, 3.2824027784336067, 3.5323693375430594, 3.915469129970006]",2017_Feb_24_1429,59.9218646384,famFaceGrey,001,25,
182,./greyInner/SigmarGabriel11_3_cut.png,0,119,119,181,,,2.nein,6.66,None,None,None,None,None,polit,1.076,None,,['return'],[1.0335563688313414],2017_Feb_24_1429,59.9218646384,famFaceGrey,001,25,
80,./greyInner/GeorgeClooney4_2_cut.png,0,120,120,79,,,1.ja,1.451,None,dummy,0.585,None,None,None,None,None,George Clooney,"['lshift', 'g', 'e', 'o', 'r', 'g', 'e', 'space', 'lshift', 'c', 'l', 'o', 'o', 'n', 'e', 'y', 'return']","[0.8501848150444857, 1.1834122923246468, 1.3999283386583556, 1.633270685793832, 1.8664516826465842, 2.0997263460631075, 2.2329118658526568, 2.3328579434200947, 2.616108853380865, 2.749338319474191, 2.999344975574786, 3.232508008972218, 3.3825586434504658, 3.615680617531325, 3.7157588547779596, 3.9321148339295178, 4.548632035057381]",2017_Feb_24_1429,59.9218646384,famFaceGrey,001,25,
216,./greyInner/notfamousface14_6_cut.png,0,121,121,215,,,2.nein,1.904,None,None,None,music,1.523,None,None,None,,['return'],[0.8667926674461341],2017_Feb_24_1429,59.9218646384,famFaceGrey,001,25,
95,./greyInner/JanHofer9_2_cut.png,0,122,122,94,,,2.nein,1.945,None,None,None,None,None,polit,2.946,None,,['return'],[0.7837328757777868],2017_Feb_24_1429,59.9218646384,famFaceGrey,001,25,
103,./greyInner/JimParsons(SheldonCooper)6_1_cut.png,0,123,123,102,,,1.ja,2.161,None,act,0.729,None,None,None,None,None,Sheldon,"['lshift', 's', 'h', 'e', 'l', 'd', 'o', 'n', 'return']","[0.5670118536327209, 0.7670679252623813, 0.9835551017640682, 1.1169006887357682, 1.7499317549227271, 1.8831628248917696, 1.983221494807367, 2.2163980007971986, 2.699610674266296]",2017_Feb_24_1429,59.9218646384,famFaceGrey,001,25,
111,./greyInner/JoshRadnor(Ted)1_2_cut.png,0,124,124,110,,,1.ja,4.51,None,act,3.728,None,None,None,None,None,Ted,"['lshift', 't', 'e', 'd', 'return']","[0.7171304926087032, 1.1666924891287636, 1.3502856990744476, 1.5168280650723318, 11.19590234426505]",2017_Feb_24_1429,59.9218646384,famFaceGrey,001,25,
151,./greyInner/NeilPatrickHarris(Barney)1_1_cut.png,0,125,125,150,,,1.ja,1.661,None,act,0.712,None,None,None,None,None,Barney,"['lshift', 'b', 'a', 'r', 'n', 'e', 'y', 'return']","[0.9334669044255861, 1.166484305555059, 1.3500672506706906, 1.533259811491007, 1.7831574037772953, 1.8832083750712627, 2.0830514514927927, 2.3828319445310626]",2017_Feb_24_1429,59.9218646384,famFaceGrey,001,25,
184,./greyInner/SigmarGabriel4_5_cut.png,0,126,126,183,,,2.nein,1.593,None,None,None,None,None,polit,0.702,None,,['return'],[0.8004475465604628],2017_Feb_24_1429,59.9218646384,famFaceGrey,001,25,
101,./greyInner/JimParsons(SheldonCooper)1_1_cut.png,0,127,127,100,,,1.ja,1.48,None,act,1.181,None,None,None,None,None,Sheldon,"['lshift', 's', 'h', 'e', 'l', 'd', 'o', 'n', 'return']","[0.43354020172409946, 0.6501784636820958, 0.9833985631157702, 1.1665840668683813, 1.3498407828737982, 1.5493961232932634, 1.5995946675502637, 2.299311197872157, 2.9991954939978314]",2017_Feb_24_1429,59.9218646384,famFaceGrey,001,25,
217,./greyInner/notfamousface2_cut.png,0,128,128,216,,,1.ja,13.482,None,None,None,music,1.76,None,None,None,,['return'],[0.8835230562508514],2017_Feb_24_1429,59.9218646384,famFaceGrey,001,25,
138,./greyInner/LisaEdelstein(DrLisaCuddy)2_2_cut.png,0,129,129,137,,,2.nein,3.938,None,None,None,music,2.106,None,None,None,,['return'],[0.9162476531200809],2017_Feb_24_1429,59.9218646384,famFaceGrey,001,25,
43,./greyInner/CobieSmulders(Robin)3_4_cut.png,0,130,130,42,,,1.ja,1.809,None,act,0.893,None,None,None,None,None,Robin,"['lshift', 'r', 'o', 'b', 'i', 'n', 'return']","[0.9665600728294521, 1.149814864180371, 1.6163080552287283, 1.916206273028365, 2.082739657304046, 2.299538948773261, 2.6325659411049855]",2017_Feb_24_1429,59.9218646384,famFaceGrey,001,25,
49,./greyInner/CristinMilioti(Tracy_Mutter)8_1_cut.png,0,131,131,48,,,2.nein,2.017,None,None,None,music,1.188,None,None,None,,['return'],[0.8167840225396503],2017_Feb_24_1429,59.9218646384,famFaceGrey,001,25,
102,./greyInner/JimParsons(SheldonCooper)10_1_cut.png,0,132,132,101,,,1.ja,1.512,None,act,0.596,None,None,None,None,None,Sheldon,"['lshift', 's', 'h', 'e', 'l', 'd', 'o', 'n', 'return']","[0.683454474361497, 0.8667833649487875, 1.1000285169793642, 1.1998045833133801, 1.3666972366117989, 1.4998734539003635, 1.5665457662253175, 1.7998172218831314, 2.282918906887062]",2017_Feb_24_1429,59.9218646384,famFaceGrey,001,25,
141,./greyInner/MariskaHargitay(Liv)13_1_cut.png,0,133,133,140,,,2.nein,3.545,None,None,None,host,1.879,None,None,None,,['return'],[0.9169203202254721],2017_Feb_24_1429,59.9218646384,famFaceGrey,001,25,
176,./greyInner/Shakira1_1_cut.png,0,134,134,175,,,1.ja,2.793,None,None,None,music,2.36,None,None,None,,['return'],[0.9832750643872714],2017_Feb_24_1429,59.9218646384,famFaceGrey,001,25,
79,./greyInner/GeorgeClooney3_1_cut.png,0,135,135,78,,,1.ja,2.929,None,act,0.547,None,None,None,None,None,George Clooney,"['lshift', 'g', 'e', 'o', 'r', 'g', 'e', 'space', 'lshift', 'c', 'l', 'o', 'o', 'm', 'n', 'e', 'backspace', 'backspace', 'backspace', 'n', 'e', 'y', 'return']","[1.0503387233329704, 1.2002212712286564, 1.4167533563595498, 1.766654124327033, 1.9165325021385797, 2.116438771416142, 2.216370414069388, 2.499527015908825, 2.8500369373468857, 2.9993946958420565, 3.18261356028961, 3.382550303278549, 3.5490445528885175, 3.8158807175495895, 3.8438501322088996, 4.265549532454315, 4.431884997982706, 4.5819811826440855, 5.198382583665079, 5.29827477087747, 5.514918165252311, 5.798257930142427]",2017_Feb_24_1429,59.9218646384,famFaceGrey,001,25,
107,./greyInner/JoachimLoew12_1_cut.png,0,136,136,106,,,2.nein,5.011,None,act,0.646,None,None,None,None,None,,['return'],[1.183370912232931],2017_Feb_24_1429,59.9218646384,famFaceGrey,001,25,
46,./greyInner/CristinMilioti(Tracy_Mutter)10_1_cut.png,0,137,137,45,,,2.nein,2.642,None,act,1.344,None,None,None,None,None,,['return'],[0.71662110044781],2017_Feb_24_1429,59.9218646384,famFaceGrey,001,25,
32,./greyInner/BritneySpears14_2_cut.png,0,138,138,31,,,1.ja,1.311,None,None,None,music,0.711,None,None,None,Britney Spears,"['lshift', 'b', 'r', 'i', 't', 'n', 'e', 'y', 'space', 'lshift', 's', 'p', 'e', 'r', 'a', 's', 'backspace', 'backspace', 'backspace', 'a', 'r', 's', 'return']","[0.7336655288745533, 0.9503002622950589, 1.250219009754801, 1.4332640136562986, 1.6832620088061958, 1.883159296357917, 1.983237854379695, 2.166120866440906, 2.332920173947059, 2.632752632685879, 2.782679768435628, 2.9494716980989324, 3.149357116941246, 3.349211420518259, 3.4491754615373793, 3.665775551162369, 4.148929843417136, 4.298817523729667, 4.498760040685738, 5.148589820943016, 5.281802927464014, 5.381494950503111, 5.7813382835447555]",2017_Feb_24_1429,59.9218646384,famFaceGrey,001,25,
143,./greyInner/MariskaHargitay(Liv)4_4_cut.png,0,139,139,142,,,1.ja,4.793,None,act,0.878,None,None,None,None,None,,['return'],[0.7334730633228901],2017_Feb_24_1429,59.9218646384,famFaceGrey,001,25,
178,./greyInner/Shakira3_1_cut.png,0,140,140,177,,,1.ja,4.911,None,act,0.813,None,None,None,None,None,,['return'],[0.8831817506725201],2017_Feb_24_1429,59.9218646384,famFaceGrey,001,25,
96,./greyInner/JasonSegel(Marshall)11_1_cut.png,0,141,141,95,,,1.ja,2.096,None,act,0.979,None,None,None,None,None,Marshall,"['lshift', 'm', 'a', 'r', 's', 'h', 'a', 'l', 'l', 'return']","[0.8001197135708935, 1.166750870343094, 1.4167199956609693, 1.566522028802865, 1.7164834875766246, 1.8497402196226176, 1.9664070627150068, 2.732648027660616, 2.882775969133945, 3.5323770361646893]",2017_Feb_24_1429,59.9218646384,famFaceGrey,001,25,
121,./greyInner/KaleyCuoco(Penny)10_1_cut.png,0,142,142,120,,,1.ja,1.426,None,dummy,0.423,None,None,None,None,None,Penny,"['lshift', 'p', 'e', 'n', 'n', 'y', 'return']","[2.6494605671759928, 2.9826729679880373, 3.165681082657102, 3.332365552389092, 3.4824893237746437, 3.5828177662369853, 3.915640103532496]",2017_Feb_24_1429,59.9218646384,famFaceGrey,001,25,
27,./greyInner/Beyonce11_2_cut.png,0,143,143,26,,,2.nein,2.209,None,None,None,music,1.859,None,None,None,,['return'],[1.6172010953887366],2017_Feb_24_1429,59.9218646384,famFaceGrey,001,25,
59,./greyInner/ElvisPresley5_2_cut.png,0,144,144,58,,,1.ja,1.817,None,None,None,music,1.199,None,None,None,Elvis,"['lshift', 'e', 'l', 'v', 'i', 's', 'return']","[0.6836058805929497, 0.9502088411609293, 1.233334327738703, 1.8157232165722235, 1.9662386553573015, 2.0661860160289507, 3.099251276926225]",2017_Feb_24_1429,59.9218646384,famFaceGrey,001,25,
74,./greyInner/GuentherJauch7_1_cut.png,0,145,145,73,,,1.ja,1.378,None,None,None,music,0.913,None,None,None,Günther Jauch,"['lshift', 'g', u'\xfc', 'n', 't', 'h', 'e', 'r', 'space', 'lshift', 'j', 'a', 'u', 'c', 'h', 'return']","[1.2164015293310513, 1.5164325483601715, 1.8829126196760626, 2.1990616662806133, 2.4493881359740044, 2.6326855905208504, 2.74923984126508, 2.8326351645446266, 2.9658007962279953, 3.2823389440236497, 3.6154733962866885, 3.782170697053516, 3.8987207777136064, 4.015522988243902, 4.114799927247077, 4.515262037035427]",2017_Feb_24_1429,59.9218646384,famFaceGrey,001,25,
63,./greyInner/EmilyDeschanel5_1_cut.png,0,146,146,62,,,1.ja,3.552,None,act,0.827,None,None,None,None,None,Bones,"['lshift', 'b', 'o', 'n', 'e', 's', 'return']","[0.5335940600016329, 0.7501691291035968, 1.116789379495458, 1.3165124857223418, 1.4666195767604222, 1.649858008539013, 1.8831031605732278]",2017_Feb_24_1429,59.9218646384,famFaceGrey,001,25,
51,./greyInner/DannFlorek(DonaldDonCragen)1_1_cut.png,0,147,147,50,,,2.nein,1.878,None,act,0.979,None,None,None,None,None,,['return'],[1.1833054739436193],2017_Feb_24_1429,59.9218646384,famFaceGrey,001,25,
214,./greyInner/notfamousface1_2_cut.png,0,148,148,213,,,2.nein,6.886,None,None,None,music,1.723,None,None,None,,['return'],[0.9333655392365472],2017_Feb_24_1429,59.9218646384,famFaceGrey,001,25,
71,./greyInner/GuentherJauch2_1_cut.png,0,149,149,70,,,1.ja,1.627,None,None,None,host,1.111,None,None,None,Günther Jauch,"['lshift', 'g', u'\xfc', 'n', 't', 'h', 'e', 'r', 'space', 'lshift', 'j', 'a', 'u', 'c', 'h', 'return']","[1.3998365967454447, 1.7995137678626634, 2.1993070598582563, 2.5158663788643025, 2.7490598859767488, 2.915799208389217, 3.0658033303589036, 3.132277082386281, 3.2822199361580715, 3.68197313116616, 3.8822081957587216, 4.032039740286564, 4.183438275173103, 4.248588826540072, 4.381877956951939, 4.69823903643919]",2017_Feb_24_1429,59.9218646384,famFaceGrey,001,25,
23,./greyInner/BenedictCumberbatch3_9_cut.png,0,150,150,22,,,1.ja,3.779,None,act,0.903,None,None,None,None,None,,['return'],[0.7338060287293047],2017_Feb_24_1429,59.9218646384,famFaceGrey,001,25,
153,./greyInner/NeilPatrickHarris(Barney)13_4_cut.png,0,151,151,152,,,1.ja,1.505,None,act,0.867,None,None,None,None,None,Barney Stinson,"['lshift', 'b', 'a', 'r', 'n', 'e', 'y', 'space', 'lshift', 's', 't', 'i', 'n', 's', 'o', 'n', 'return']","[2.1662472521529708, 2.332822337295511, 2.532667659146682, 2.682746201131522, 2.932644755746878, 3.0992191993354936, 3.2823530581626983, 3.4158468436107796, 3.5656617077911505, 3.848877653177624, 4.298566035409749, 5.015048881436087, 5.198323240118043, 5.314958005619701, 5.464766454279015, 5.681433906847815, 6.081172666938073]",2017_Feb_24_1429,59.9218646384,famFaceGrey,001,25,
126,./greyInner/KatjaBurkard1_1_cut.png,0,152,152,125,,,2.nein,2.077,None,None,None,host,1.693,None,None,None,,['return'],[1.0499339041234634],2017_Feb_24_1429,59.9218646384,famFaceGrey,001,25,
117,./greyInner/JudithRakers2_1_cut.png,0,153,153,116,,,2.nein,2.33,None,None,None,None,None,polit,1.499,None,,['return'],[1.0667547517368803],2017_Feb_24_1429,59.9218646384,famFaceGrey,001,25,
130,./greyInner/KatjaBurkard7_1_cut.png,0,154,154,129,,,2.nein,3.442,None,act,3.842,None,None,None,None,None,,['return'],[0.8500253894162597],2017_Feb_24_1429,59.9218646384,famFaceGrey,001,25,
86,./greyInner/Ice-T(OdafinFinTutuola)10_1_cut.png,0,155,155,85,,,1.ja,1.697,None,act,0.648,None,None,None,None,None,,['return'],[0.7169312907608401],2017_Feb_24_1429,59.9218646384,famFaceGrey,001,25,
16,./greyInner/BastianSchweinsteiger1_1_cut.png,0,156,156,15,,,1.ja,1.458,None,None,None,None,None,sport,1.058,None,Schweinsteiger,"['lshift', 's', 'c', 'h', 'w', 'e', 'i', 'n', 's', 't', 'e', 'o', 'g', 'backspace', 'backspace', 'i', 'g', 'e', 'r', 'return']","[0.866593465605547, 1.0497577981441282, 1.2831643004647049, 1.4156941542787536, 1.549006380555511, 1.765571826381347, 1.9322072173963534, 2.1654052153680823, 2.316118252118031, 2.515938553449814, 2.6326361910323612, 2.849209977030114, 3.18231780489441, 3.515564528730465, 3.6821758615515137, 4.398382519510051, 4.6147410648700316, 4.6651064126017445, 4.765123381646845, 5.498016161334817]",2017_Feb_24_1429,59.9218646384,famFaceGrey,001,25,
198,./greyInner/UrsulavonderLeyen5_1_cut.png,0,157,157,197,,,2.nein,6.207,None,None,None,None,None,polit,1.142,None,,['return'],[0.9835095515845751],2017_Feb_24_1429,59.9218646384,famFaceGrey,001,25,
142,./greyInner/MariskaHargitay(Liv)14_1_cut.png,0,158,158,141,,,1.ja,6.411,None,None,None,host,1.212,None,None,None,,['return'],[0.8169376742007444],2017_Feb_24_1429,59.9218646384,famFaceGrey,001,25,
83,./greyInner/HughLaurie(DrHouse)5_3_cut.png,0,159,159,82,,,1.ja,1.627,None,act,0.544,None,None,None,None,None,Dr House,"['lshift', 'd', 'r', 'period', 'space', 'lshift', 'h', 'o', 'u', 's', 'e', 'return']","[0.9832333635167743, 1.150060257754376, 1.3496672430992476, 1.7829123309784336, 1.949428714127862, 2.1327932108397363, 2.2994542639280553, 2.5994304302766977, 2.8326717329982785, 2.949109862864134, 3.1158572046733752, 4.115518465303467]",2017_Feb_24_1429,59.9218646384,famFaceGrey,001,25,
64,./greyInner/EmilyDeschanel6_12_cut.png,0,160,160,63,,,1.ja,1.629,None,act,0.63,None,None,None,None,None,Bones,"['lshift', 'b', 'o', 'n', 'e', 's', 'return']","[0.6500617012497969, 0.8834989980568935, 1.2667777834467415, 1.466496719585848, 1.5666054305438593, 1.7333024105355435, 1.9164705923867587]",2017_Feb_24_1429,59.9218646384,famFaceGrey,001,25,
180,./greyInner/Shakira9_1_cut.png,0,161,161,179,,,2.nein,7.206,None,None,None,music,1.11,None,None,None,,['return'],[1.1000208183577342],2017_Feb_24_1429,59.9218646384,famFaceGrey,001,25,
166,./greyInner/RobertSeanLeonard(Wilson)1_1_cut.png,0,162,162,165,,,1.ja,3.591,None,act,0.908,None,None,None,None,None,,['return'],[0.7335035370342666],2017_Feb_24_1429,59.9218646384,famFaceGrey,001,25,
147,./greyInner/MilaKunis10_1_cut.png,0,163,163,146,,,1.ja,4.529,None,act,1.079,None,None,None,None,None,,['return'],[0.7336196579199168],2017_Feb_24_1429,59.9218646384,famFaceGrey,001,25,
87,./greyInner/Ice-T(OdafinFinTutuola)12_1_cut.png,0,164,164,86,,,1.ja,1.413,None,act,0.714,None,None,None,None,None,,['return'],[0.6335199286841089],2017_Feb_24_1429,59.9218646384,famFaceGrey,001,25,
162,./greyInner/OmarEpps(DrEricForeman)2_2_cut.png,0,165,165,161,,,2.nein,1.619,None,None,None,music,1.154,None,None,None,,['return'],[0.9000430160485848],2017_Feb_24_1429,59.9218646384,famFaceGrey,001,25,
75,./greyInner/GuentherJauch9_1_cut.png,0,166,166,74,,,1.ja,1.939,None,act,0.954,None,None,None,None,None,Günther Jauch,"['left', 'left', 'lshift', 'g', u'\xfc', 'n', 't', 'h', 'e', 'r', 'space', 'lshift', 'j', 'a', 'u', 'c', 'h', 'return']","[3.2489625304842775, 3.882229687744257, 5.6979792079437175, 6.0979620785110455, 6.547761769990757, 6.864326542185154, 7.097560787839029, 7.2808595254864485, 7.397043921599106, 7.447298601640796, 7.597373935863288, 7.880377848367061, 8.063901449939294, 8.246891601156676, 8.396926517612883, 8.497075004786893, 8.598478367352072, 8.880043920638855]",2017_Feb_24_1429,59.9218646384,famFaceGrey,001,25,
122,./greyInner/KaleyCuoco(Penny)14_2_cut.png,0,167,167,121,,,1.ja,2.342,None,act,0.926,None,None,None,None,None,Penny,"['lshift', 'p', 'e', 'n', 'n', 'y', 'return']","[0.683535630665574, 1.0666784070635913, 1.2830151396592555, 1.4665900653744757, 1.5997868123231456, 1.7164844499056926, 2.5994419782109617]",2017_Feb_24_1429,59.9218646384,famFaceGrey,001,25,
35,./greyInner/BritneySpears8_5_cut.png,0,168,168,34,,,1.ja,1.406,None,None,None,music,1.121,None,None,None,Britney Spears,"['lshift', 'b', 'r', 'i', 't', 'n', 'e', 'y', 'space', 'lshift', 's', 'p', 'e', 'a', 'r', 's', 'return']","[0.6500764569391322, 0.9497308850404806, 1.1665872746234527, 1.4664768314760295, 1.7496825120324502, 2.0162822648417205, 2.149447896525089, 2.3827844696970715, 2.5493778390664374, 2.8325732547928055, 2.9992060795993893, 3.1490703432718874, 3.4489939023696934, 3.7155198767177353, 3.8987557422879036, 4.0318636343072285, 4.431702155707171]",2017_Feb_24_1429,59.9218646384,famFaceGrey,001,25,
185,./greyInner/SigmarGabriel8_2_cut.png,0,169,169,184,,,2.nein,4.332,None,None,None,None,None,polit,1.133,None,,['return'],[0.8165572339603386],2017_Feb_24_1429,59.9218646384,famFaceGrey,001,25,
137,./greyInner/LisaEdelstein(DrLisaCuddy)10_1_cut.png,0,170,170,136,,,2.nein,3.528,None,act,1.179,None,None,None,None,None,,['return'],[0.716864569370955],2017_Feb_24_1429,59.9218646384,famFaceGrey,001,25,
61,./greyInner/EmilyDeschanel15_1_cut.png,0,171,171,60,,,1.ja,1.328,None,act,0.611,None,None,None,None,None,Bones,"['lshift', 'b', 'o', 'n', 'e', 's', 'return']","[0.8001235628835275, 0.9998918985147611, 1.3664059720758814, 1.5998961969125958, 1.7163038530634367, 1.8994829412949912, 2.2661330238479422]",2017_Feb_24_1429,59.9218646384,famFaceGrey,001,25,
2,./greyInner/AlysonHannigan(Lily)12_2_cut.png,0,172,172,1,,,1.ja,2.779,None,dummy,0.791,None,None,None,None,None,Lilli,"['lshift', 'l', 'i', 'l', 'l', 'i', 'return']","[0.5335382449920871, 0.833183370592451, 1.0332952572316572, 1.2332323209993774, 1.3829961818046286, 1.5328982970349898, 2.6492411564504437]",2017_Feb_24_1429,59.9218646384,famFaceGrey,001,25,
181,./greyInner/SigmarGabriel1_2_cut.png,0,173,173,180,,,2.nein,1.595,None,None,None,None,None,polit,1.061,None,,['return'],[1.1670273791860382],2017_Feb_24_1429,59.9218646384,famFaceGrey,001,25,
15,./greyInner/BarackObama5_2_cut.png,0,174,174,14,,,1.ja,1.844,None,None,None,None,None,polit,1.211,None,Obama,"['lshift', 'o', 'b', 'a', 'm', 'a', 'return']","[0.6335000405779283, 1.133426743283053, 1.5167263791045116, 1.6832571971681318, 1.8332109573202615, 1.9165283320508024, 2.716205695633107]",2017_Feb_24_1429,59.9218646384,famFaceGrey,001,25,
30,./greyInner/Beyonce8_3_cut.png,0,175,175,29,,,1.ja,3.561,None,None,None,music,2.813,None,None,None,,['return'],[1.3500678922246152],2017_Feb_24_1429,59.9218646384,famFaceGrey,001,25,
149,./greyInner/MilaKunis5_2_cut.png,0,176,176,148,,,1.ja,1.761,None,act,0.811,None,None,None,None,None,,['return'],[0.9499903927608102],2017_Feb_24_1429,59.9218646384,famFaceGrey,001,25,
36,./greyInner/CarenMiosga1_1_cut.png,0,177,177,35,,,2.nein,2.894,None,None,None,None,None,polit,9.325,None,,['return'],[1.5330060777414474],2017_Feb_24_1429,59.9218646384,famFaceGrey,001,25,
133,./greyInner/LeonardoDiCaprio3_1_cut.png,0,178,178,132,,,1.ja,1.763,None,act,0.897,None,None,None,None,None,Leonardo DiCaprio,"['lshift', 'l', 'e', 'o', 'n', 'a', 'r', 'd', 'o', 'space', 'lshift', 'd', 'i', 'lshift', 'c', 'a', 'p', 'r', 'i', 'o', 'return']","[0.6835882379164104, 0.9666761937114643, 1.2333356108429143, 1.6498044389591087, 1.96640738349015, 2.099586808537424, 2.33285537721531, 2.5160171435454686, 3.1659360995108727, 3.2987219325077604, 3.4655504306247167, 3.6156607294251444, 3.765504463433899, 4.398726070518023, 4.598637792983936, 4.8484869481071655, 5.0149276281408675, 5.198321315463545, 5.348309077860904, 5.5148421413578035, 5.931283382746187]",2017_Feb_24_1429,59.9218646384,famFaceGrey,001,25,
37,./greyInner/CarenMiosga13_1_cut.png,0,179,179,36,,,2.nein,4.826,None,None,None,None,None,polit,0.794,None,,['return'],[1.0666315737798868],2017_Feb_24_1429,59.9218646384,famFaceGrey,001,25,
129,./greyInner/KatjaBurkard5_3_cut.png,0,180,180,128,,,1.ja,3.617,None,None,None,host,1.534,None,None,None,,['return'],[1.5330612511970685],2017_Feb_24_1429,59.9218646384,famFaceGrey,001,25,
188,./greyInner/TaylorSwift3_1_cut.png,0,181,181,187,,,1.ja,2.759,None,None,None,music,1.128,None,None,None,,['return'],[1.1334379704385356],2017_Feb_24_1429,59.9218646384,famFaceGrey,001,25,
104,./greyInner/JimParsons(SheldonCooper)8_1_cut.png,0,182,182,103,,,1.ja,1.81,None,act,0.777,None,None,None,None,None,Sheldon,"['lshift', 's', 'h', 'e', 'l', 'd', 'o', 'n', 'return']","[3.282381607223215, 3.515579925973725, 3.68222943112778, 3.8167118479577766, 4.015432208663697, 4.132011159155809, 4.248678643798485, 5.248342470636999, 5.681314898985875]",2017_Feb_24_1429,59.9218646384,famFaceGrey,001,25,
13,./greyInner/BarackObama2_1_cut.png,0,183,183,12,,,1.ja,1.685,None,None,None,None,None,polit,1.647,None,Obama,"['lshift', 'o', 'b', 'a', 'm', 'a', 'return']","[0.7996507391799241, 1.0994479125656653, 1.3994208711555984, 1.566015844404319, 1.7158246138424147, 1.832291613536654, 2.3823469313465466]",2017_Feb_24_1429,59.9218646384,famFaceGrey,001,25,
6,./greyInner/AngelaMerkel1_1_cut.png,0,184,184,5,,,1.ja,1.461,None,None,None,None,None,polit,0.911,None,Angela Merkel,"['lshift', 'a', 'n', 'g', 'e', 'l', 'a', 'space', 'lshift', 'm', 'e', 'r', 'k', 'e', 'l', 'return']","[0.6500568896080949, 1.1332156727257825, 1.3331508118353668, 1.5163424103266152, 1.6168289953202475, 1.782728205602325, 1.8662858414936636, 1.9994742482667789, 2.116193057059718, 2.232803764367418, 2.4160672166690347, 2.5325695017163525, 3.1991845234588254, 3.315629389617243, 3.3989454812435724, 3.6988266979205946]",2017_Feb_24_1429,59.9218646384,famFaceGrey,001,25,
204,./greyInner/Usher4_1_cut.png,0,185,185,203,,,1.ja,3.627,None,None,None,music,0.911,None,None,None,,['return'],[0.9839753182168351],2017_Feb_24_1429,59.9218646384,famFaceGrey,001,25,
220,./greyInner/notfamousface5_1_cut.png,0,186,186,219,,,2.nein,2.254,None,None,None,None,None,polit,0.835,None,,['return'],[0.7001784476451576],2017_Feb_24_1429,59.9218646384,famFaceGrey,001,25,
3,./greyInner/AlysonHannigan(Lily)14_2_cut.png,0,187,187,2,,,1.ja,1.646,None,act,0.612,None,None,None,None,None,Lilli,"['lshift', 'l', 'i', 'l', 'l', 'i', 'return']","[0.5837717538197467, 0.8503753559416509, 1.1002767975405732, 1.3502404696664598, 1.4834927108495322, 1.6665245629337733, 1.8999952204394503]",2017_Feb_24_1429,59.9218646384,famFaceGrey,001,25,
57,./greyInner/ElvisPresley2_1_cut.png,0,188,188,56,,,1.ja,1.773,None,None,None,music,0.753,None,None,None,Elvis,"['lshift', 'e', 'l', 'v', 'i', 's', 'return']","[0.4336790976958582, 0.766900480233744, 1.1999781230806548, 1.8500994886526314, 2.1665183078039263, 2.2998209108045558, 2.634447612639633]",2017_Feb_24_1429,59.9218646384,famFaceGrey,001,25,
131,./greyInner/LeonardoDiCaprio1_1_cut.png,0,189,189,130,,,1.ja,1.584,None,act,0.904,None,None,None,None,None,Leonardo DiCaprio,"['lshift', 'l', 'e', 'o', 'n', 'a', 'r', 'd', 'o', 'space', 'lshift', 'd', 'i', 'lshift', 'c', 'a', 'p', 'r', 'i', 'o', 'return']","[0.48348757843268686, 0.8665228948993899, 1.0833395082700008, 1.4164203909531352, 1.733037128848082, 1.899624724250316, 2.166119904111838, 2.366080063744448, 2.5992081325675827, 2.7992914701499103, 3.082306609812804, 3.332288245390373, 3.6489559866568015, 4.181970725345309, 4.331993773095746, 4.615131769933214, 4.798323047652957, 4.9484137791223475, 5.114956786670518, 5.298153517578612, 5.548023843915871]",2017_Feb_24_1429,59.9218646384,famFaceGrey,001,25,
187,./greyInner/TaylorSwift2_1_cut.png,0,190,190,186,,,1.ja,1.327,None,None,None,music,1.127,None,None,None,,['return'],[1.2997118469938869],2017_Feb_24_1429,59.9218646384,famFaceGrey,001,25,
146,./greyInner/MilaKunis1_3_cut.png,0,191,191,145,,,1.ja,4.829,None,act,0.814,None,None,None,None,None,,['return'],[0.7833126593250199],2017_Feb_24_1429,59.9218646384,famFaceGrey,001,25,
171,./greyInner/SahraWagenknecht12_1_cut.png,0,192,192,170,,,1.ja,4.245,None,None,None,None,None,polit,1.245,None,,['return'],[0.9504295349943277],2017_Feb_24_1429,59.9218646384,famFaceGrey,001,25,
4,./greyInner/AlysonHannigan(Lily)5_4_cut.png,0,193,193,3,,,1.ja,1.535,None,act,0.903,None,None,None,None,None,Lilli,"['lshift', u'\xd6', 'backspace', 'lshift', 'l', 'i', 'l', 'l', 'i', 'return']","[1.216331600182457, 1.4163222335264436, 1.9995919730317837, 2.4325432301702676, 2.832566839279025, 3.099036998617521, 3.4489467483108456, 3.982058040553966, 4.2319344616335, 4.581795453388622]",2017_Feb_24_1429,59.9218646384,famFaceGrey,001,25,
54,./greyInner/DannFlorek(DonaldDonCragen)5_1_cut.png,0,194,194,53,,,2.nein,3.327,None,None,None,None,None,polit,0.993,None,,['return'],[1.1502174379565986],2017_Feb_24_1429,59.9218646384,famFaceGrey,001,25,
208,./greyInner/WillSmith4_1_cut.png,0,195,195,207,,,1.ja,1.508,None,act,0.608,None,None,None,None,None,Will Smith,"['lshift', 'w', 'i', 'l', 'l', 'space', 'lshift', 's', 'm', 'i', 't', 'h', 'return']","[1.3998269734693167, 1.6831458879241836, 1.8663929806498345, 2.066244397246919, 2.2164053786400473, 2.3330385402623506, 2.4162301708347513, 2.5661816855536017, 2.74943968466323, 3.482468473339395, 3.7324035964084032, 3.915706504147238, 4.216769780083268]",2017_Feb_24_1429,59.9218646384,famFaceGrey,001,25,
25,./greyInner/BenedictCumberbatch6_5_cut.png,0,196,196,24,,,1.ja,1.914,None,act,1.316,None,None,None,None,None,,['return'],[0.8005912541739235],2017_Feb_24_1429,59.9218646384,famFaceGrey,001,25,
193,./greyInner/TomCruise5_1_cut.png,0,197,197,192,,,1.ja,1.578,None,act,0.644,None,None,None,None,None,,['return'],[0.7503259885270381],2017_Feb_24_1429,59.9218646384,famFaceGrey,001,25,
207,./greyInner/WillSmith14_1_cut.png,0,198,198,206,,,1.ja,3.008,None,act,1.01,None,None,None,None,None,Will Smith,"['lshift', 'w', 'i', 'l', 'l', 'space', 'lshift', 's', 'm', 'i', 't', 'h', 'return']","[0.6333508797761169, 0.949811399797909, 1.2331194078724366, 1.433044923702255, 1.5829059796160436, 1.6996584698790684, 1.799603264342295, 1.9662142763882002, 2.0827178445397294, 2.332660024680081, 3.0324445594960707, 3.215731749212864, 3.4988822563100257]",2017_Feb_24_1429,59.9218646384,famFaceGrey,001,25,
124,./greyInner/KaleyCuoco(Penny)5_2_cut.png,0,199,199,123,,,1.ja,1.584,None,act,0.986,None,None,None,None,None,Penny,"['lshift', 'p', 'e', 'm', 'm', 'backspace', 'backspace', 'n', 'n', 'y', 'return']","[0.4502215118118329, 0.8499798392331286, 1.0338357646542136, 1.2331315973606252, 1.3663052484407672, 1.7661296557016612, 1.9496105940743291, 2.7824330917574116, 2.915889346422773, 3.03244006863315, 4.065373490630009]",2017_Feb_24_1429,59.9218646384,famFaceGrey,001,25,
62,./greyInner/EmilyDeschanel3_1_cut.png,0,200,200,61,,,1.ja,1.51,None,act,0.585,None,None,None,None,None,Bones,"['lshift', 'b', 'o', 'n', 'e', 's', 'return']","[0.7834621409056126, 1.1333834385332011, 1.4833133971114876, 1.7331298330936988, 1.8663705263388692, 2.0330165029590717, 2.182784533855738]",2017_Feb_24_1429,59.9218646384,famFaceGrey,001,25,
134,./greyInner/LeonardoDiCaprio4_1_cut.png,0,201,201,133,,,1.ja,1.227,None,act,0.662,None,None,None,None,None,Leonardo DiCaprio,"['lshift', 'l', 'e', 'o', 'n', 'a', 'r', 'd', 'o', 'space', 'lshift', 'd', 'i', 'lshift', 'c', 'a', 'p', 'r', 'i', 'o', 'return']","[0.433890489024634, 0.7671978395119368, 0.9669562310882611, 1.1835993046879594, 1.4001143886926002, 1.5501560414450068, 1.7332735407035216, 1.949787341603951, 2.08307775512003, 2.1997644863222376, 2.3663655543132336, 2.499614908509102, 3.4493708140762465, 3.748973276480683, 3.8991788457278744, 4.148859914268542, 4.348930741591175, 4.498799496126594, 4.71548298748894, 4.882076356858306, 5.198588521805505]",2017_Feb_24_1429,59.9218646384,famFaceGrey,001,25,
172,./greyInner/SahraWagenknecht2_2_cut.png,0,202,202,171,,,1.ja,1.939,None,None,None,None,None,polit,1.273,None,,['return'],[0.8337697489696438],2017_Feb_24_1429,59.9218646384,famFaceGrey,001,25,
136,./greyInner/LisaEdelstein(DrLisaCuddy)1_1_cut.png,0,203,203,135,,,2.nein,1.829,None,None,None,music,1.096,None,None,None,,['return'],[0.7669280669615546],2017_Feb_24_1429,59.9218646384,famFaceGrey,001,25,
5,./greyInner/AlysonHannigan(Lily)8_3_cut.png,0,204,204,4,,,1.ja,1.599,None,act,0.918,None,None,None,None,None,Lilli,"['lshift', 'l', 'i', 'l', 'l', 'i', 'return']","[0.5671590897763963, 0.8336488164459297, 1.1169164067578095, 1.31691955036149, 1.4668351381769753, 1.633343181150849, 1.8999323483585613]",2017_Feb_24_1429,59.9218646384,famFaceGrey,001,25,
189,./greyInner/TaylorSwift7_1_cut.png,0,205,205,188,,,1.ja,1.58,None,None,None,music,0.829,None,None,None,,['return'],[0.8168228364229435],2017_Feb_24_1429,59.9218646384,famFaceGrey,001,25,
161,./greyInner/OmarEpps(DrEricForeman)1_5_cut.png,0,206,206,160,,,1.ja,2.632,None,act,0.765,None,None,None,None,None,,['return'],[0.8002101723795931],2017_Feb_24_1429,59.9218646384,famFaceGrey,001,25,
18,./greyInner/BastianSchweinsteiger14_1_cut.png,0,207,207,17,,,1.ja,1.512,None,None,None,None,None,sport,0.813,None,Schweinsteiger,"['lshift', 's', 'c', 'h', 'w', 'e', 'i', 'n', 's', 't', 'e', 'i', 'g', 'e', 'r', 'return']","[0.45104205660754815, 0.8842409527533164, 1.1007175436498073, 1.2340980951994425, 1.3838016501358652, 1.583712089497567, 1.7171779674426944, 1.9337437340436736, 2.1334129499155097, 2.283641935806372, 2.433539560170175, 3.049867824280227, 3.28323198418002, 3.366548396585131, 3.4665040974286967, 3.6497123762710544]",2017_Feb_24_1429,59.9218646384,famFaceGrey,001,25,
135,./greyInner/LeonardoDiCaprio7_1_cut.png,0,208,208,134,,,1.ja,2.169,None,act,1.286,None,None,None,None,None,Leonardo DiCaprio,"['lshift', 'l', 'e', 'o', 'n', 'a', 'r', 'd', 'o', 'space', 'lshift', 'd', 'i', 'lshift', 'c', 'a', 'p', 'r', 'i', 'o', 'return']","[0.7669858066292363, 1.0835759201218025, 1.2667498759401496, 1.4500171775507624, 1.8497132744450937, 1.9997433792632364, 2.216298881037801, 2.8161553017343977, 2.9828044861133094, 3.1161475068802247, 3.3493474295100896, 3.449053566691873, 3.599252078867721, 4.2654946797702, 4.415409626035398, 4.665242100811156, 4.815409818500484, 4.981834780512145, 5.115161120931589, 5.298511824279558, 5.548475817184226]",2017_Feb_24_1429,59.9218646384,famFaceGrey,001,25,
164,./greyInner/OmarEpps(DrEricForeman)5_2_cut.png,0,209,209,163,,,1.ja,2.647,None,None,None,music,0.684,None,None,None,,['return'],[1.150134677769529],2017_Feb_24_1429,59.9218646384,famFaceGrey,001,25,
119,./greyInner/JudithRakers7_1_cut.png,0,210,210,118,,,2.nein,2.295,None,None,None,music,2.478,None,None,None,,['return'],[0.8169081628184358],2017_Feb_24_1429,59.9218646384,famFaceGrey,001,25,
163,./greyInner/OmarEpps(DrEricForeman)3_1_cut.png,0,211,211,162,,,1.ja,2.058,None,dummy,4.558,None,None,None,None,None,,['return'],[0.9331284858344588],2017_Feb_24_1429,59.9218646384,famFaceGrey,001,25,
191,./greyInner/TomCruise1_1_cut.png,0,212,212,190,,,1.ja,2.862,None,act,7.627,None,None,None,None,None,,['return'],[7.364078101240011],2017_Feb_24_1429,59.9218646384,famFaceGrey,001,25,
94,./greyInner/JanHofer7_1_cut.png,0,213,213,93,,,1.ja,4.675,None,act,0.843,None,None,None,None,None,,['return'],[0.9499371439596871],2017_Feb_24_1429,59.9218646384,famFaceGrey,001,25,
112,./greyInner/JoshRadnor(Ted)3_1_cut.png,0,214,214,111,,,1.ja,2.575,None,act,1.299,None,None,None,None,None,Ted,"['lshift', 't', 'e', 'd', 'return']","[0.9666983272472862, 1.2167155689530773, 1.4165932891737611, 1.5997864915480022, 2.232899676368106]",2017_Feb_24_1429,59.9218646384,famFaceGrey,001,25,
55,./greyInner/DannFlorek(DonaldDonCragen)8_1_cut.png,0,215,215,54,,,2.nein,1.665,None,None,None,None,None,polit,0.734,None,,['return'],[1.000066721389885],2017_Feb_24_1429,59.9218646384,famFaceGrey,001,25,
12,./greyInner/BarackObama11_2_cut.png,0,216,216,11,,,1.ja,1.916,None,None,None,None,None,polit,0.702,None,Obama,"['lshift', 'o', 'b', 'a', 'm', 'a', 'return']","[0.6502493551597581, 0.9835778768538148, 1.3000448123966635, 1.4667437170428457, 1.5831966025980364, 1.666491523013974, 2.0496317332072067]",2017_Feb_24_1429,59.9218646384,famFaceGrey,001,25,
114,./greyInner/JoshRadnor(Ted)7_1_cut.png,0,217,217,113,,,1.ja,2.059,None,dummy,0.743,None,None,None,None,None,Ted,"['lshift', 't', 'e', 'd', 'return']","[0.3668880982841074, 0.8499933118218905, 1.033110490305262, 1.1836923297050816, 1.4498259951033106]",2017_Feb_24_1429,59.9218646384,famFaceGrey,001,25,
219,./greyInner/notfamousface4_2_cut.png,0,218,218,218,,,2.nein,4.913,None,None,None,host,3.465,None,None,None,,['return'],[0.9836218231539533],2017_Feb_24_1429,59.9218646384,famFaceGrey,001,25,
91,./greyInner/JanHofer1_3_cut.png,0,219,219,90,,,2.nein,3.013,None,None,None,None,None,polit,0.963,None,,['return'],[1.0833844168992073],2017_Feb_24_1429,59.9218646384,famFaceGrey,001,25,
56,./greyInner/ElvisPresley1_1_cut.png,0,220,220,55,,,1.ja,1.609,None,None,None,music,1.158,None,None,None,Elvis,"['lshift', 'e', 'l', 'v', 'i', 's', 'return']","[0.4500816535073682, 0.7834037596840062, 1.3498776721025934, 1.73300825901606, 1.932939228037867, 2.049584579144721, 2.3994304944317264]",2017_Feb_24_1429,59.9218646384,famFaceGrey,001,25,
196,./greyInner/UrsulavonderLeyen1_1_cut.png,0,221,221,195,,,2.nein,2.829,None,None,None,None,None,polit,0.915,None,,['return'],[1.416949671220209],2017_Feb_24_1429,59.9218646384,famFaceGrey,001,25,
113,./greyInner/JoshRadnor(Ted)6_2_cut.png,0,222,222,112,,,1.ja,3.378,None,dummy,0.763,None,None,None,None,None,Ted,"['lshift', 't', 'e', 'd', 'return']","[0.4671703490166692, 0.8502441585915221, 1.0335031200302183, 1.2002414801136183, 1.55003831668364]",2017_Feb_24_1429,59.9218646384,famFaceGrey,001,25,
31,./greyInner/BritneySpears1_1_cut.png,0,223,223,30,,,1.ja,1.609,None,None,None,music,0.893,None,None,None,Britney Spears,"['lshift', 'b', 'r', 'i', 't', 'n', 'e', 'y', 'space', 'lshift', 's', 'p', 'e', 'a', 'r', 's', 'return']","[0.5167639098872314, 0.8167699083969637, 1.033412981993024, 1.2166642448064522, 1.4332899965047545, 1.6498740473361977, 1.7829713537466887, 1.9994697574074962, 2.4326811638129584, 2.732340403556009, 2.899238189271273, 3.0826328389193804, 3.2491395987926808, 3.4490025633203913, 3.5824007575429277, 3.6992382534263015, 3.9987387090877746]",2017_Feb_24_1429,59.9218646384,famFaceGrey,001,25,
