num,pic,trials.thisRepN,trials.thisTrialN,trials.thisN,trials.thisIndex,key_resp_2.keys,key_resp_2.rt,ratingBekannt.response,ratingBekannt.rt,key_resp_5.keys,ratingK1.response,ratingK1.rt,ratingK2.response,ratingK2.rt,ratingK3.response,ratingK3.rt,key_resp_6.keys,inputText,key_resp_4.keys,key_resp_4.rt,date,frameRate,expName,session,participant,
,,,,,,space,50.6777383146,,,,,,,,,,,,,,2017_Feb_28_1210,60.0351653599,famFaceGrey,001,26,
25,./greyInner/BenedictCumberbatch6_5_cut.png,0,0,0,24,,,1.ja,7.001,None,act,5.469,None,None,None,None,None,Domenik Cumberbach,"['lshift', 'd', 'o', 'm', 'e', 'n', 'i', 'k', 'space', 'lshift', 'c', 'u', 'n', 'backspace', 'm', 'b', 'e', 'r', 'b', 'a', 'backspace', 'a', 'c', 'h', 'return']","[8.947108031328753, 9.180052107659321, 10.129950291782734, 10.796088204499029, 10.946323080318507, 11.096133883707807, 11.895840497440986, 12.062434881465379, 12.545646809897335, 13.96166442975391, 14.061623626415894, 14.544893936983499, 14.777805935217657, 15.294506754364193, 16.29412759126899, 21.24215433926838, 21.442122132859367, 21.6087123467305, 22.708375141784927, 23.657887747193854, 28.589205656523518, 31.55467583159225, 31.837938571728955, 31.971379601923218, 36.9026044847742]",2017_Feb_28_1210,60.0351653599,famFaceGrey,001,26,
119,./greyInner/JudithRakers7_1_cut.png,0,1,1,118,,,1.ja,32.08,None,None,None,host,11.906,None,None,None,,['return'],[3.1658299629953035],2017_Feb_28_1210,60.0351653599,famFaceGrey,001,26,
179,./greyInner/Shakira7_1_cut.png,0,2,2,178,,,1.ja,2.945,None,None,None,music,7.777,None,None,None,,['return'],[36.63652598069166],2017_Feb_28_1210,60.0351653599,famFaceGrey,001,26,
6,./greyInner/AngelaMerkel1_1_cut.png,0,3,3,5,,,1.ja,3.241,None,None,None,None,None,polit,14.971,None,Angela Merkel,"['lshift', 'a', 'n', 'g', 'e', 'l', 'a', 'space', 'lshift', 'm', 'e', 'r', 'k', 'e', 'l', 'return']","[1.5498063766126506, 1.8164561915864397, 2.0663670144795105, 2.5995267839271037, 2.7492958857919803, 3.0492899192659024, 3.1991873335155105, 3.532311945370566, 3.764987848817327, 4.031614888343029, 4.931783362503666, 5.0983463099928485, 5.1983667758177035, 5.314992788844393, 5.4315617028596535, 6.397732784327673]",2017_Feb_28_1210,60.0351653599,famFaceGrey,001,26,
185,./greyInner/SigmarGabriel8_2_cut.png,0,4,4,184,,,1.ja,1.72,None,None,None,None,None,polit,1.419,None,Sigmar Gabriell,"['lshift', 's', 'i', 'g', 'm', 'a', 'r', 'space', 'lshift', 'g', 'a', 'b', 'r', 'i', 'e', 'l', 'l', 'return']","[1.833043133490719, 2.2504930403365506, 2.9994216319282714, 3.2158535083171955, 3.8323884195506253, 4.048936097866317, 4.1988941397166855, 4.598816574880402, 4.815087740008494, 4.981919501942684, 5.165300674409991, 5.831692324866708, 5.998225118945811, 6.148269771655578, 6.281478877215704, 6.9478246559947365, 7.914092934093787, 9.679999820362355]",2017_Feb_28_1210,60.0351653599,famFaceGrey,001,26,
92,./greyInner/JanHofer3_1_cut.png,0,5,5,91,,,1.ja,3.029,None,None,None,None,None,polit,1.364,None,,['return'],[1.250180278899279],2017_Feb_28_1210,60.0351653599,famFaceGrey,001,26,
82,./greyInner/HughLaurie(DrHouse)4_1_cut.png,0,6,6,81,,,1.ja,2.357,None,act,1.041,None,None,None,None,None,Dr House,"['lshift', 'd', 'r', 'period', 'period', 'space', 'lshift', 'h', 'o', 'u', 'e', 's', 'e', 'backspace', 'backspace', 'backspace', 's', 'e', 'return']","[1.1331327596917617, 1.3498007308680826, 1.482605973198588, 2.2327272284019273, 3.8655446604088866, 4.098700131392434, 5.048400393662632, 5.1648175782838734, 6.04793333658381, 6.247931604367295, 6.380939901046077, 6.514431935413086, 6.647605434286561, 7.230751217684883, 7.380354475792956, 7.547419445485502, 8.230488177297048, 8.396983440004078, 9.24681272037651]",2017_Feb_28_1210,60.0351653599,famFaceGrey,001,26,
95,./greyInner/JanHofer9_2_cut.png,0,7,7,94,,,2.nein,4.21,None,None,None,None,None,sport,3.462,None,,['return'],[1.1999122984852875],2017_Feb_28_1210,60.0351653599,famFaceGrey,001,26,
80,./greyInner/GeorgeClooney4_2_cut.png,0,8,8,79,,,1.ja,1.485,None,act,0.751,None,None,None,None,None,George Clooney,"['lshift', 'g', 'e', 'o', 'r', 'g', 'e', 'space', 'lshift', 'c', 'l', 'l', 'o', 'n', 'e', 'y', 'backspace', 'backspace', 'backspace', 'backspace', 'backspace', 'o', 'o', 'n', 'e', 'y', 'return']","[0.8832273900752625, 1.099930005594615, 1.3664967382992472, 1.8330052813380462, 2.3328256439999677, 2.449540192571476, 2.6327526342538476, 3.032612517130474, 3.232108762709686, 3.6489264102820016, 4.015464850105673, 4.132136414028537, 4.315334420567524, 4.498544296001455, 4.698491238830684, 4.898375308591312, 5.598206770275283, 5.748113487171395, 5.914716532281091, 6.064742900476631, 6.214618822400553, 6.7477760256015245, 6.864388565827539, 7.097725278053076, 7.247594463578025, 7.4807929192102165, 9.79658381108311]",2017_Feb_28_1210,60.0351653599,famFaceGrey,001,26,
208,./greyInner/WillSmith4_1_cut.png,0,9,9,207,,,1.ja,1.89,None,act,1.057,None,None,None,None,None,Will Smith,"['lshift', 'w', 'i', 'l', 'l', 'space', 'lshift', 's', 'm', 'i', 't', 'h', 'return']","[0.933197364976877, 1.166562947489183, 1.5163588666418946, 1.7830622520359611, 1.9329044919595617, 2.2328513706324884, 2.4493470824327233, 2.7993316207903263, 2.999214728208244, 3.1824592479861167, 3.448975297299512, 3.5824987682008214, 4.6651880802928645]",2017_Feb_28_1210,60.0351653599,famFaceGrey,001,26,
43,./greyInner/CobieSmulders(Robin)3_4_cut.png,0,10,10,42,,,1.ja,4.307,None,dummy,2.958,None,None,None,None,None,,['return'],[3.2826439536638645],2017_Feb_28_1210,60.0351653599,famFaceGrey,001,26,
182,./greyInner/SigmarGabriel11_3_cut.png,0,11,11,181,,,1.ja,3.27,None,None,None,None,None,polit,1.775,None,,['return'],[4.665440855689667],2017_Feb_28_1210,60.0351653599,famFaceGrey,001,26,
160,./greyInner/NicoleKidman8_2_cut.png,0,12,12,159,,,1.ja,3.243,None,None,None,music,3.126,None,None,None,,['return'],[0.8666789418848566],2017_Feb_28_1210,60.0351653599,famFaceGrey,001,26,
74,./greyInner/GuentherJauch7_1_cut.png,0,13,13,73,,,1.ja,1.311,None,None,None,host,1.144,None,None,None,Günter Jauch,"['lshift', 'g', u'\xfc', 'm', 'backspace', 'n', 't', 'e', 'r', 'space', 'lshift', 'j', 'a', 'u', 'c', 'h', 'return']","[0.8835202630916683, 1.0836365782679422, 1.4335200706227624, 2.383087529576187, 2.7828421962967695, 3.3159567356296975, 4.015446886371137, 4.2489622735929515, 4.398886954222689, 4.5154821722771885, 5.13199110025289, 5.298508817626498, 5.448498616792676, 5.598479754871732, 5.6650555977557815, 5.781713368097371, 6.864562749888137]",2017_Feb_28_1210,60.0351653599,famFaceGrey,001,26,
105,./greyInner/JimParsons(SheldonCooper)9_3_cut.png,0,14,14,104,,,2.nein,3.607,None,act,5.591,None,None,None,None,None,,['return'],[1.0500370181225662],2017_Feb_28_1210,60.0351653599,famFaceGrey,001,26,
178,./greyInner/Shakira3_1_cut.png,0,15,15,177,,,1.ja,1.88,None,None,None,music,9.393,None,None,None,,['return'],[0.8336285587438397],2017_Feb_28_1210,60.0351653599,famFaceGrey,001,26,
120,./greyInner/JudithRakers8_1_cut.png,0,16,16,119,,,2.nein,3.623,None,act,0.708,None,None,None,None,None,,['return'],[1.0497858466305843],2017_Feb_28_1210,60.0351653599,famFaceGrey,001,26,
37,./greyInner/CarenMiosga13_1_cut.png,0,17,17,36,,,1.ja,15.221,None,None,None,music,0.86,None,None,None,,['return'],[0.9168291956866597],2017_Feb_28_1210,60.0351653599,famFaceGrey,001,26,
90,./greyInner/Ice-T(OdafinFinTutuola)7_1_cut.png,0,18,18,89,,,1.ja,1.942,None,act,1.125,None,None,None,None,None,Ice T,"['lshift', 'i', 'c', 'e', 'space', 'lshift', 't', 'backspace', 'lshift', 'c', 'u', 'b', 'e', 'backspace', 'backspace', 'backspace', 'backspace', 'lshift', 't', 'return']","[1.8662433213403347, 2.0495282595193203, 2.3661477286141235, 2.515999271186047, 2.9492344883155965, 3.2156270369596314, 3.34911746742182, 4.048747157880825, 4.415162738597246, 4.665268275532981, 4.915195458254857, 5.065112440142002, 5.181466751695552, 7.264279564456956, 7.41410127439849, 7.580619312553608, 7.7306418313773975, 8.263809299568493, 8.413679126654642, 10.379407530397657]",2017_Feb_28_1210,60.0351653599,famFaceGrey,001,26,
224,./greyInner/notfamousface9_1_cut.png,0,19,19,223,,,2.nein,3.193,None,None,None,host,2.676,None,None,None,,['return'],[0.8000761534003686],2017_Feb_28_1210,60.0351653599,famFaceGrey,001,26,
28,./greyInner/Beyonce3_2_cut.png,0,20,20,27,,,1.ja,2.078,None,None,None,music,6.009,None,None,None,Kate Perry,"['lshift', 'k', 'a', 't', 'e', 'space', 'lshift', 'p', 'e', 'r', 'r', 'y', 'return']","[4.431995719498445, 4.598628918018221, 4.765253776233294, 4.9320027766798376, 5.05017046300236, 5.265125784630072, 5.49843683437939, 5.681632916232047, 5.881680905064059, 6.014848309098852, 6.164842919978582, 6.264826816774985, 6.797528190230878]",2017_Feb_28_1210,60.0351653599,famFaceGrey,001,26,
107,./greyInner/JoachimLoew12_1_cut.png,0,21,21,106,,,2.nein,2.246,None,None,None,None,None,polit,1.68,None,,['return'],[0.9505808060066556],2017_Feb_28_1210,60.0351653599,famFaceGrey,001,26,
123,./greyInner/KaleyCuoco(Penny)3_1_cut.png,0,22,22,122,,,1.ja,1.629,None,dummy,1.313,None,None,None,None,None,Penny,"['lshift', 'c', 'a', 'l', 'y', 'e', 'space', 'lshift', 'c', 'o', 'c', 'o', 'backspace', 'backspace', 'backspace', 'backspace', 'backspace', 'backspace', 'backspace', 'backspace', 'y', 'l', 'y', 'space', 'backspace', 'backspace', 'backspace', 'backspace', 'i', 'l', 'y', 'space', 'lshift', 'c', 'o', 'c', 'o', 'space', 'lshift', '8', 'backspace', 'backspace', 'backspace', 'backspace', 'backspace', 'backspace', 'backspace', 'backspace', 'backspace', 'backspace', 'backspace', 'backspace', 'backspace', 'lshift', 'p', 'e', 'n', 'n', 'y', 'return']","[0.9665900214022258, 1.1332488823991298, 1.6496844156908992, 1.8662798903696967, 2.049531146548361, 2.2328840902910088, 2.3661374636230903, 2.798899528836955, 2.8991910545737483, 3.1657744678886957, 3.2823998393523652, 3.415765806802483, 9.146756968645605, 10.59598632446614, 10.912681177086597, 11.07930346905323, 11.24604284607085, 11.379086749436283, 11.529271904207235, 11.67912857927422, 12.428795608636392, 12.64530286855188, 12.961856256768442, 13.24524538460355, 13.594942503220409, 13.728403101053118, 13.861527199658667, 14.028231932333256, 14.927773600496948, 15.127691352258807, 15.29428156612903, 15.427559318814929, 15.910678862331224, 16.094048486683278, 16.377248032970783, 16.44385242536009, 16.593742461647707, 18.259676036892415, 18.542955136857927, 18.626431966207747, 19.892442785508138, 22.108416265904452, 22.24153843982367, 22.424781676478233, 22.591469086980396, 22.758174140435585, 22.907923033098996, 23.041352835960424, 23.191196359007336, 23.324559760209922, 23.441161073102194, 23.59108543295133, 23.757749105662697, 23.990905859769555, 24.190761059244323, 24.390716021597655, 24.524080385142042, 24.65705211279146, 24.757317976052036, 25.273743565133373]",2017_Feb_28_1210,60.0351653599,famFaceGrey,001,26,
144,./greyInner/MariskaHargitay(Liv)6_5_cut.png,0,23,23,143,,,1.ja,3.236,None,act,0.765,None,None,None,None,None,Agent Benson,"['lshift', 'v', 'i', 'c', 't', 'o', 'r', 'i', 'a', 'space', 'lshift', 'b', 'e', 'n', 's', 'o', 'n', 'backspace', 'backspace', 'backspace', 'backspace', 'backspace', 'backspace', 'backspace', 'backspace', 'backspace', 'backspace', 'backspace', 'backspace', 'backspace', 'backspace', 'backspace', 'lshift', 'a', 'g', 'e', 'n', 't', 'space', 'lshift', 'b', 'e', 'n', 's', 'o', 'n', 'return']","[3.665646797066074, 3.782426784952804, 3.982249585550562, 4.6152424847432485, 4.748533068666802, 5.115107435958635, 6.2482122877063375, 6.398010580638584, 6.5646046438814665, 6.764514696899823, 7.114441815466307, 7.280811332036137, 7.4477069293816385, 7.563763556203412, 8.31387871656807, 8.430342093646686, 8.58043678818649, 12.312261018184472, 13.511936580320253, 14.578175923977142, 15.527748836206229, 15.694080500623386, 15.827657541944973, 15.994206375072281, 16.12735902318309, 16.29419367214632, 16.46071331420626, 16.577236677324436, 16.72733842904563, 16.877091171080792, 16.993841326338952, 17.227193756832094, 17.6434266207134, 17.893470567704753, 18.09301781745762, 18.193149594276292, 18.326645157233543, 18.543169739320547, 18.92639584627068, 19.126300446013374, 19.426259514362755, 19.6594698388908, 19.926035288471212, 20.159292126238142, 20.2425424842304, 20.392557625091285, 22.05854444997567]",2017_Feb_28_1210,60.0351653599,famFaceGrey,001,26,
57,./greyInner/ElvisPresley2_1_cut.png,0,24,24,56,,,1.ja,3.328,None,dummy,3.267,None,None,None,None,None,Elvis,"['backspace', 'lshift', 'e', 'l', 'v', 'i', 's', 'space', 'backspace', 'backspace', 's', 'return']","[4.898193746567813, 6.6310464003245215, 6.714636465352669, 7.747536723004487, 8.030857845275932, 8.147290427382359, 8.28057716193507, 8.363884298157245, 9.096948025785423, 9.24699139537097, 10.279597496882161, 10.6128237963012]",2017_Feb_28_1210,60.0351653599,famFaceGrey,001,26,
102,./greyInner/JimParsons(SheldonCooper)10_1_cut.png,0,25,25,101,,,1.ja,2.878,None,act,3.961,None,None,None,None,None,Sheldon Cooper,"['lshift', 's', 'h', 'e', 'l', 'd', 'o', 'n', 'space', 'lshift', 'c', 'o', 'o', 'p', 'e', 'r', 'return']","[0.867527407525813, 1.1842575460514126, 1.4008251127870608, 1.8006429733577534, 2.035072586316346, 2.233830073343597, 2.3504063653208505, 2.550108552277379, 2.7168626852189846, 2.866754004629911, 3.0000776289925852, 3.283215585335711, 3.416576099509257, 3.5831451418371216, 3.6831810051480716, 3.8330893259499135, 4.449529286019242]",2017_Feb_28_1210,60.0351653599,famFaceGrey,001,26,
203,./greyInner/Usher2_1_cut.png,0,26,26,202,,,1.ja,4.444,None,None,None,music,1.728,None,None,None,,['return'],[6.815210599115744],2017_Feb_28_1210,60.0351653599,famFaceGrey,001,26,
109,./greyInner/JoachimLoew4_1_cut.png,0,27,27,108,,,1.ja,1.341,None,None,None,None,None,sport,0.959,None,Jogi Löw ,"['lshift', 'j', 'o', 'b', 'backspace', 'g', 'i', 'space', 'lshift', 'l', u'\xe4', u'\xf6', 'w', 'backspace', 'backspace', 'backspace', u'\xf6', 'w', 'space', 'j', 'a', 'backspace', 'backspace', 'return']","[0.7500407391826229, 0.9164522780583866, 1.1165721218249018, 1.4164965458312508, 1.816277837371672, 2.449438505006583, 2.565958018754827, 3.0158510703822685, 3.232253755703823, 3.432283460020699, 3.699206580372447, 4.132059105816552, 4.3486526558099285, 4.481852137941132, 4.615164214189463, 5.164830730303038, 5.314895912993961, 5.6980604300006235, 6.114618886556855, 6.281103242710742, 6.614405887999055, 6.730970631861965, 8.280429923474912]",2017_Feb_28_1210,60.0351653599,famFaceGrey,001,26,
39,./greyInner/CarenMiosga6_2_cut.png,0,28,28,38,,,2.nein,4.561,None,dummy,1.012,None,None,None,None,None,,['return'],[0.9831060707156212],2017_Feb_28_1210,60.0351653599,famFaceGrey,001,26,
199,./greyInner/UrsulavonderLeyen7_1_cut.png,0,29,29,198,,,2.nein,2.032,None,act,3.063,None,None,None,None,None,,['return'],[0.6339485056741978],2017_Feb_28_1210,60.0351653599,famFaceGrey,001,26,
81,./greyInner/HughLaurie(DrHouse)2_1_cut.png,0,30,30,80,,,1.ja,1.485,None,act,0.668,None,None,None,None,None,Dr House,"['lshift', 'd', 'r', 'period', 'space', 'lshift', 'j', 'backspace', 'lshift', 'g', 'backspace', 'lshift', 'h', 'o', 'u', 's', 'e', 'return']","[0.8000809651139207, 0.983386754055573, 1.099862641593063, 1.8329266900027505, 2.5323645534472234, 2.9324775325012524, 3.099138318183577, 3.532243939805994, 3.8820093847680255, 4.015346802711974, 4.3820093847680255, 4.71513014725133, 4.915216629798124, 5.248172190086734, 5.431551758649221, 5.581565295606197, 5.714338780621802, 6.431177728049079]",2017_Feb_28_1210,60.0351653599,famFaceGrey,001,26,
131,./greyInner/LeonardoDiCaprio1_1_cut.png,0,31,31,130,,,1.ja,2.252,None,act,0.887,None,None,None,None,None,Leonardo de Caprio,"['lshift', 'l', 'e', 'o', 'n', 'a', 'r', 'd', 'o', 'space', 'd', 'e', 'space', 'lshift', 'c', 'a', 'p', 'r', 'i', 'a', 'backspace', 'o', 'return']","[0.5334247345217591, 0.8334617526452348, 1.083218600676446, 1.2664948777701284, 1.7829846230442854, 1.9662564092041066, 2.482732360896989, 2.899170203811991, 3.0655541555252057, 3.2658337482107527, 3.8987750016685823, 4.065430334074335, 4.648540831567516, 5.081599939950138, 5.281760202117766, 5.431330740568228, 6.014795701022194, 6.247900809395105, 6.347805794074702, 6.531196910751532, 7.430755901086741, 7.747382427362936, 13.378540138680364]",2017_Feb_28_1210,60.0351653599,famFaceGrey,001,26,
73,./greyInner/GuentherJauch4_1_cut.png,0,32,32,72,,,1.ja,1.594,None,None,None,host,0.61,None,None,None,Günther Jauch,"['lshift', 'g', u'\xfc', 'n', 't', 'h', 'e', 'r', 'space', 'lshift', 'j', 'a', 'u', 'c', 'h', 'return']","[0.7166342891750901, 0.9667751120168759, 1.2664968024555492, 1.6163578401428822, 1.8662606435118505, 2.049638928951026, 2.165885458101002, 2.2992507839881, 2.43268539856399, 2.6991180448267187, 2.882424475330481, 2.9991489681115127, 3.148880538604317, 3.299018538573364, 3.398926089500492, 4.098783855222791]",2017_Feb_28_1210,60.0351653599,famFaceGrey,001,26,
155,./greyInner/NeilPatrickHarris(Barney)3_7_cut.png,0,33,33,154,,,1.ja,2.36,None,act,4.137,None,None,None,None,None,Neil Patrick Harris,"['lshift', 'n', 'e', 'i', 'l', 'space', 'lshift', 'o', 'a', 'backspace', 'backspace', 'lshift', 'p', 'a', 't', 'r', 'i', 'c', 'k', 'space', 'lshift', 'h', 'a', 'r', 'r', 'i', 's', 'return']","[2.1997644184621095, 2.3329905254131518, 2.4996525942196968, 2.6162920800461507, 2.7827321684280832, 3.149365238635255, 3.3159859266979765, 3.515597332641846, 3.932398941165957, 4.16560285007472, 4.298764159271741, 4.632066162997944, 4.865336473564639, 4.998779749225832, 5.5480603658443215, 5.715091011974437, 5.91495840112475, 6.014671879571324, 6.131559008299519, 6.331149884262231, 6.498012441168612, 6.631282495111009, 6.747807782915515, 6.897958293342526, 7.014455352422374, 7.214320496106666, 7.364403321750615, 8.114037952236686]",2017_Feb_28_1210,60.0351653599,famFaceGrey,001,26,
44,./greyInner/CobieSmulders(Robin)4_7_cut.png,0,34,34,43,,,1.ja,2.271,None,act,1.084,None,None,None,None,None,Robin Shabatski,"['lshift', 'r', 'o', 'b', 'i', 'n', 'space', 'lshift', 's', 'h', 'a', 'b', 'b', 'a', 't', 's', 'k', 'i', 'space', 'backspace', 'backspace', 'backspace', 'backspace', 'backspace', 'backspace', 'backspace', 'backspace', 'b', 'a', 't', 's', 'k', 'i', 'return']","[0.7502569455491539, 0.9168891817262192, 1.26662158624913, 1.5332149437736007, 1.6831466815847307, 1.8329780149560975, 1.9825084557860464, 2.2829656969670395, 2.549438440850281, 2.699588309715182, 3.4490910992262798, 3.6489738858635974, 3.782295264759341, 3.8990175120743515, 4.1654700467570365, 4.332154249449559, 4.69863109932885, 4.848582725559936, 5.031909365264255, 5.998107392332713, 8.280738835539523, 8.41388731349798, 8.580426523196365, 8.747166220994586, 9.563411980270757, 9.73006570877169, 9.93001618019207, 10.696327250470858, 10.929536933436793, 11.079497220754092, 11.246070754014909, 11.512680150587585, 11.662554147826086, 12.612238371048988]",2017_Feb_28_1210,60.0351653599,famFaceGrey,001,26,
151,./greyInner/NeilPatrickHarris(Barney)1_1_cut.png,0,35,35,150,,,1.ja,2.477,None,act,0.661,None,None,None,None,None,Neil Patrick Harris,"['lshift', 'n', 'e', 'i', 'l', 'space', 'lshift', 'p', 'a', 't', 'r', 'i', 'c', 'k', 'space', 'lshift', 'h', 'a', 'r', 'r', 'i', 's', 'return']","[0.6832477275875135, 0.8332230916093977, 1.0000375313720724, 1.0830049605565364, 1.2666892710312823, 1.533142768057587, 1.6663833101511045, 1.8829813510783424, 2.032872991269869, 2.182975705332865, 2.3495280670504144, 2.582727805806826, 2.7160344287785847, 2.799199459034753, 2.9825738951021776, 3.065608367506684, 3.149218000174187, 3.2491980475988385, 3.3990714032752294, 3.515605993728059, 3.7490783963003196, 3.8655645488279333, 4.2817720710127105]",2017_Feb_28_1210,60.0351653599,famFaceGrey,001,26,
42,./greyInner/CobieSmulders(Robin)2_1_cut.png,0,36,36,41,,,1.ja,1.694,None,act,1.01,None,None,None,None,None,Robin Schabatski,"['lshift', 'r', 'o', 'b', 'i', 'n', 'space', 'lshift', 's', 'c', 'h', 'a', 'b', 'a', 't', 's', 'k', 'i', 'return']","[0.9667526573493888, 1.1832329716635286, 1.84954667234706, 2.049705972171978, 2.216272769032912, 2.3827693148632534, 2.532688221436729, 2.7493484938695474, 2.965962253062571, 3.1657751094508058, 3.282215069519225, 3.449116120141298, 3.532505055508409, 3.648960733844433, 3.782206729214522, 3.9654550983641457, 4.2487682011114885, 4.398627442426005, 4.681972944050358]",2017_Feb_28_1210,60.0351653599,famFaceGrey,001,26,
62,./greyInner/EmilyDeschanel3_1_cut.png,0,37,37,61,,,1.ja,1.516,None,None,None,music,1.25,None,None,None,Nelly Furtado,"['lshift', 'n', 'e', 'l', 'l', 'y', 'space', 'lshift', 'f', 'u', 'r', 't', 'a', 'd', 'i', 'o', 'backspace', 'backspace', 'o', 'return']","[4.981700408547113, 5.165134509872587, 5.3482106196461245, 5.5481902821338736, 5.681468997162483, 5.781421136643075, 5.914821106874115, 6.214597650857286, 6.364677268691594, 6.7476775458462726, 6.9642123929234, 7.114350072111847, 7.264269620247433, 7.480684174463931, 7.630959789465123, 8.11392920749222, 8.247135105241796, 9.263447779426315, 9.913067718144703]",2017_Feb_28_1210,60.0351653599,famFaceGrey,001,26,
69,./greyInner/EmmaWatson(HermioneGranger)4_1_cut.png,0,38,38,68,,,1.ja,2.176,None,act,0.677,None,None,None,None,None,Emma Whatson ,"['lshift', 'e', 'm', 'm', 'a', 'space', 'lshift', 'w', 'h', 'a', 't', 's', 'o', 'n', 'space', 'return']","[0.5336101459170095, 0.8167740855178636, 0.9665743031355305, 1.1333531362115536, 1.1834385922593356, 1.316664378428868, 1.5663561079263673, 1.7996681200183957, 2.1495079861624617, 2.2994621786419884, 2.3827866370347692, 2.4994007811656047, 3.3490334228099528, 3.5323927821718826, 3.7153312769132754, 5.498320070109912]",2017_Feb_28_1210,60.0351653599,famFaceGrey,001,26,
96,./greyInner/JasonSegel(Marshall)11_1_cut.png,0,39,39,95,,,1.ja,1.412,None,act,0.563,None,None,None,None,None,Marshal Erickson,"['lshift', 'm', 'a', 'r', 's', 'h', 'a', 'l', 'space', 'lshift', 'e', 'r', 'i', 'c', 'k', 's', 'o', 'n', 'return']","[0.5673081858167279, 0.8670481607705369, 1.0167784481391209, 1.150448515939388, 1.3503572858335247, 1.9334623300501335, 2.183366416543322, 2.3164241134900294, 2.499962147846418, 2.7330098364273, 2.916434635105361, 3.1163100437797766, 3.4159053465200486, 3.782664804426531, 3.866011717486799, 4.432343446060258, 4.515721795654827, 4.64904413689419, 5.098715849659129]",2017_Feb_28_1210,60.0351653599,famFaceGrey,001,26,
190,./greyInner/TaylorSwift8_1_cut.png,0,40,40,189,,,1.ja,1.679,None,None,None,music,1.329,None,None,None,Taylor Swift,"['lshift', 't', 'a', 'y', 'l', 'o', 'r', 'space', 's', 'backspace', 'lshift', 's', 'w', 'i', 'f', 't', 'return']","[0.6006902564704433, 0.8174105149428215, 1.0006595256545552, 1.5506301421191893, 1.7171051956247538, 1.900254443457925, 2.0169892012299897, 2.2002285885128003, 2.716670858204452, 3.099868415650235, 3.3829540846963937, 3.5830357555287264, 3.8162877815811953, 3.999566945703009, 4.21617300615344, 4.332571585478945, 4.915555053711614]",2017_Feb_28_1210,60.0351653599,famFaceGrey,001,26,
61,./greyInner/EmilyDeschanel15_1_cut.png,0,41,41,60,,,1.ja,2.676,None,act,1.909,None,None,None,None,None,,['return'],[1.2998981199662012],2017_Feb_28_1210,60.0351653599,famFaceGrey,001,26,
68,./greyInner/EmmaWatson(HermioneGranger)3_1_cut.png,0,42,42,67,,,1.ja,5.859,None,act,1.844,None,None,None,None,None,Emma Whatson,"['lshift', 'e', 'm', 'm', 'a', 'space', 'lshift', 'w', 'h', 'a', 't', 's', 'o', 'n', 'return']","[0.766646607164148, 0.9166354439867064, 1.4831618866028293, 1.616286626769579, 1.699758002843737, 1.8327974152753086, 2.0327825310387198, 2.3660964036607766, 2.782127817098626, 2.9493438746230822, 3.0492161396450683, 3.7156190174346193, 3.7989165302278707, 3.9487597324941817, 4.431972944050358]",2017_Feb_28_1210,60.0351653599,famFaceGrey,001,26,
128,./greyInner/KatjaBurkard4_1_cut.png,0,43,43,127,,,1.ja,1.566,None,None,None,host,1.014,None,None,None,Katja Burkhard,"['lshift', 'k', 'a', 't', 'j', 'a', 'space', 'lshift', 'b', 'u', 'r', 'k', 'h', 'a', 'r', 'd', 'return']","[0.5499208954151982, 0.7835103830384469, 0.9333731529432043, 1.0833247791742906, 1.3665827075965353, 1.4998976708739065, 1.8663629726388535, 2.1162247160445986, 2.249528451988226, 2.4328502799780836, 2.649506061477041, 3.315830668712806, 3.5324133121530394, 3.6990016013387503, 3.8824331364166937, 4.082166759907523, 4.898178028301118]",2017_Feb_28_1210,60.0351653599,famFaceGrey,001,26,
112,./greyInner/JoshRadnor(Ted)3_1_cut.png,0,44,44,111,,,1.ja,1.315,None,dummy,0.553,None,None,None,None,None,Ted Mosbi,"['lshift', 't', 'e', 'd', 'space', 'lshift', 'm', 'o', 's', 'b', 'i', 'return']","[0.7668503030736247, 0.9663388499102439, 1.183276918654883, 1.3333613482036526, 1.5331517499244, 1.8498937573458534, 1.9995130545021311, 2.2329966844081355, 2.3829633873447165, 3.165882891853471, 3.316004852774313, 4.098906072768841]",2017_Feb_28_1210,60.0351653599,famFaceGrey,001,26,
214,./greyInner/notfamousface1_2_cut.png,0,45,45,213,,,1.ja,2.469,None,None,None,music,3.788,None,None,None,,['return'],[0.7664714607590213],2017_Feb_28_1210,60.0351653599,famFaceGrey,001,26,
1,./greyInner/AlysonHannigan(Lily)1_1_cut.png,0,46,46,0,,,1.ja,1.448,None,act,0.827,None,None,None,None,None,Lilly Auldrin,"['lshift', 'l', 'i', 'i', 'l', 'backspace', 'backspace', 'l', 'l', 'y', 'space', 'lshift', 'a', 'u', 'l', 'd', 'r', 'i', 'n', 'return']","[1.1666171594715706, 1.3335355322651594, 1.54998793863615, 1.6831418698711786, 1.9662195193932348, 2.2996418159791574, 2.416134704907563, 2.949387821615346, 3.132596734706567, 3.2492262763234976, 3.5658226491887035, 3.7824222940198524, 3.9156718179810923, 4.082303091815447, 4.332897819715981, 4.4988859277245865, 4.66544983755648, 4.7319971309352695, 4.865228049600773, 5.781703423887848]",2017_Feb_28_1210,60.0351653599,famFaceGrey,001,26,
113,./greyInner/JoshRadnor(Ted)6_2_cut.png,0,47,47,112,,,1.ja,1.545,None,act,0.479,None,None,None,None,None,Ted Mosbi,"['lshift', 't', 'e', 'd', 'space', 'lshift', 'm', 'o', 's', 'v', 'backspace', 'b', 'i', 'return']","[1.03382635228445, 1.2672111816546021, 1.4170027381869659, 1.600444538255033, 1.7169887521367855, 2.2167728665499453, 2.8165806545985106, 2.966275976842553, 3.09963777413941, 3.283160731791213, 4.1659088751111994, 4.749346889964727, 5.448901517679587, 5.748750558159372]",2017_Feb_28_1210,60.0351653599,famFaceGrey,001,26,
174,./greyInner/SahraWagenknecht6_2_cut.png,0,48,48,173,,,2.nein,2.472,None,None,None,None,None,polit,2.822,None,,['return'],[0.8337485308229589],2017_Feb_28_1210,60.0351653599,famFaceGrey,001,26,
136,./greyInner/LisaEdelstein(DrLisaCuddy)1_1_cut.png,0,49,49,135,,,1.ja,1.729,None,act,0.647,None,None,None,None,None,,['return'],[0.5839172616088035],2017_Feb_28_1210,60.0351653599,famFaceGrey,001,26,
149,./greyInner/MilaKunis5_2_cut.png,0,50,50,148,,,1.ja,1.326,None,dummy,0.561,None,None,None,None,None,Mila Kunis,"['lshift', 'm', 'i', 'l', 'a', 'space', 'lshift', 'k', 'u', 'n', 'i', 's', 'return']","[0.6999989093446857, 0.8833483244961826, 1.0166260771820816, 1.1664949419255208, 1.2832675518502583, 1.516443552815872, 1.6830180484193988, 1.7830940093508616, 1.9995916458365173, 2.132721839280748, 2.2827960038384845, 2.365802247519241, 2.899177581773074]",2017_Feb_28_1210,60.0351653599,famFaceGrey,001,26,
198,./greyInner/UrsulavonderLeyen5_1_cut.png,0,51,51,197,,,1.ja,2.391,None,None,None,None,None,polit,1.425,None,,['return'],[0.7832332282878269],2017_Feb_28_1210,60.0351653599,famFaceGrey,001,26,
7,./greyInner/AngelaMerkel3_1_cut.png,0,52,52,6,,,1.ja,1.017,None,None,None,None,None,polit,1.669,None,Angela Merkel,"['lshift', 'a', 'n', 'g', 'e', 'l', 'a', 'space', 'lshift', 'm', 'e', 'r', 'k', 'e', 'l', 'return']","[0.6333820064974134, 0.8831658001299729, 1.0332406062498194, 1.2331012590011596, 1.366430657421006, 1.5496690823611061, 1.6830632785349735, 1.849560465927425, 2.0324774683449505, 2.1495256291154874, 2.4324704753198603, 2.599398792323882, 2.782485487869053, 2.8990203991024828, 3.0324168407432808, 3.5822732591859676]",2017_Feb_28_1210,60.0351653599,famFaceGrey,001,26,
41,./greyInner/CobieSmulders(Robin)12_1_cut.png,0,53,53,40,,,1.ja,1.606,None,act,1.426,None,None,None,None,None,,['return'],[3.432626374867141],2017_Feb_28_1210,60.0351653599,famFaceGrey,001,26,
111,./greyInner/JoshRadnor(Ted)1_2_cut.png,0,54,54,110,,,1.ja,1.495,None,act,0.64,None,None,None,None,None,Ted Mosby,"['lshift', 't', 'e', 'd', 'space', 'lshift', 'm', 'o', 'b', 'backspace', 's', 'b', 'y', 'return']","[0.9833617331414644, 1.1334358976992007, 1.283315027433673, 1.4500428563369496, 1.5332178308026414, 1.7330954849439877, 1.8164966099875528, 1.9996080056662322, 2.2829897555393472, 2.682800558929557, 2.849350675180176, 3.7823283051993712, 3.915705499982323, 4.732009962173834]",2017_Feb_28_1210,60.0351653599,famFaceGrey,001,26,
29,./greyInner/Beyonce5_3_cut.png,0,55,55,28,,,1.ja,1.742,None,None,None,music,1.275,None,None,None,Beyonce,"['lshift', 'b', 'e', 'y', 'o', 'n', 'c', 'e', 'return']","[4.015562367517305, 4.231940031923841, 4.43200951307972, 4.731924313657146, 4.948639118852952, 5.13165620493055, 5.84819554294063, 6.031492350015469, 6.797786739684852]",2017_Feb_28_1210,60.0351653599,famFaceGrey,001,26,
27,./greyInner/Beyonce11_2_cut.png,0,56,56,26,,,2.nein,2.909,None,None,None,music,1.227,None,None,None,,['return'],[0.9333936829252707],2017_Feb_28_1210,60.0351653599,famFaceGrey,001,26,
167,./greyInner/RobertSeanLeonard(Wilson)10_1_cut.png,0,57,57,166,,,2.nein,2.304,None,act,0.572,None,None,None,None,None,,['return'],[0.6836515908162255],2017_Feb_28_1210,60.0351653599,famFaceGrey,001,26,
191,./greyInner/TomCruise1_1_cut.png,0,58,58,190,,,1.ja,2.296,None,act,1.146,None,None,None,None,None,Tom Cruise,"['lshift', 't', 'o', 'm', 'space', 'lshift', 'c', 'r', 'u', 'i', 's', 'e', 'return']","[5.465389979828615, 5.64843048291641, 6.115113851577917, 6.648280036645701, 6.948219216575126, 7.231482598273942, 7.33129968897083, 7.597897216647652, 7.714459073481521, 7.914544272905005, 8.597518053552449, 8.780402977873564, 9.414002153081128]",2017_Feb_28_1210,60.0351653599,famFaceGrey,001,26,
145,./greyInner/MariskaHargitay(Liv)8_8_cut.png,0,59,59,144,,,1.ja,2.692,None,act,0.654,None,None,None,None,None,Agent Benson,"['capslock', 'lshift', 'a', 'g', 'e', 'h', 'n', 't', 'space', 'backspace', 'backspace', 'backspace', 'backspace', 'n', 't', 'space', 'lshift', 'b', 'e', 'n', 's', 'o', 'm', 'backspace', 'n', 'return']","[0.550494772553975, 0.6339738473698162, 0.9004892551211015, 1.0504476177529796, 1.5501354978778181, 1.666735206865269, 1.8333680846044444, 1.999987810323546, 2.200048951174722, 2.5663968471080807, 2.6829811586094365, 3.1161454831481024, 3.316191868074384, 3.8157950620261545, 3.949287096394073, 4.082470539477072, 4.282380592495429, 4.399177260992474, 4.515547290812719, 4.632159189476624, 4.74846762935158, 4.915514635310501, 5.032009769704928, 5.615321396860054, 6.08175872652555, 7.131188185509018]",2017_Feb_28_1210,60.0351653599,famFaceGrey,001,26,
65,./greyInner/EmilyDeschanel8_3_cut.png,0,60,60,64,,,2.nein,1.727,None,None,None,music,4.001,None,None,None,Adele,"['lshift', 'a', 'd', 'e', 'l', 'e', 'return']","[0.7330091948651898, 0.9494949624559013, 1.1994551856168982, 1.3662154133962758, 1.5160980717209895, 1.6158163618820254, 1.9991980475988385]",2017_Feb_28_1210,60.0351653599,famFaceGrey,001,26,
211,./greyInner/notfamousface10_4_cut.png,0,61,61,210,,,2.nein,3.114,None,None,None,music,3.315,None,None,None,,['return'],[1.0334439813786958],2017_Feb_28_1210,60.0351653599,famFaceGrey,001,26,
184,./greyInner/SigmarGabriel4_5_cut.png,0,62,62,183,,,1.ja,1.574,None,None,None,None,None,polit,1.763,None,SigmaR Gabriel,"['lshift', 's', 'i', 'g', 'm', 'a', 'l', 'space', 'lshift', 'backspace', 'backspace', 'r', 'space', 'lshift', 'g', 'a', 'b', 'r', 'i', 'e', 'l', 'return']","[0.9003679999177621, 1.0668472235765876, 1.266887834445697, 1.6834247986771516, 2.3165312543305845, 2.4496235956203236, 2.532974999614453, 2.732970380368897, 2.9494676960739525, 3.59926951759644, 3.7326281070836558, 4.365745148508722, 4.582268126689996, 4.715462476326138, 4.849030856561512, 4.93207238614832, 5.048779556757836, 5.231932012399739, 5.348370368564247, 5.481846363883051, 5.615202387123645, 6.298318915298296]",2017_Feb_28_1210,60.0351653599,famFaceGrey,001,26,
54,./greyInner/DannFlorek(DonaldDonCragen)5_1_cut.png,0,63,63,53,,,2.nein,1.927,None,None,None,None,None,polit,1.327,None,,['return'],[0.850017899577324],2017_Feb_28_1210,60.0351653599,famFaceGrey,001,26,
147,./greyInner/MilaKunis10_1_cut.png,0,64,64,146,,,1.ja,1.963,None,dummy,1.797,None,None,None,None,None,Mila Kunis,"['lshift', 'm', 'i', 'l', 'a', 'space', 'lshift', 'k', 'u', 'n', 'i', 's', 'return']","[0.7499028033689683, 0.9000507475475388, 1.0666836252867142, 1.250024379352908, 1.3498395453634657, 1.5161558122936185, 1.699803232958402, 1.7831555992952417, 1.9498157434163659, 2.11628919301711, 2.249548981969383, 2.3160847272329192, 2.6161079517751205]",2017_Feb_28_1210,60.0351653599,famFaceGrey,001,26,
34,./greyInner/BritneySpears7_1_cut.png,0,65,65,33,,,1.ja,2.229,None,None,None,music,0.595,None,None,None,Britney Spears,"['lshift', 'b', 'r', 'i', 't', 'n', 'e', 'y', 'space', 'lshift', 's', 'p', 'e', 'a', 'r', 's', 'return']","[0.7006757571716662, 0.8507457515770511, 1.1173849807792067, 1.2170840240823964, 1.4338844777948907, 1.6338009464325296, 1.7336732114536062, 1.9501159943956736, 2.06694794879877, 2.2167802445128473, 2.400107525778367, 2.6000089177114205, 3.399773272017228, 3.6662229196717817, 3.7828867848511436, 3.9327886900337035, 6.398463202574931]",2017_Feb_28_1210,60.0351653599,famFaceGrey,001,26,
172,./greyInner/SahraWagenknecht2_2_cut.png,0,66,66,171,,,1.ja,1.89,None,None,None,None,None,polit,1.385,None,Sarah Wagenknecht,"['lshift', 's', 'a', 'r', 'a', 'h', 'space', 'lshift', 'w', 'a', 'g', 'e', 'n', 'k', 'n', 'e', 'c', 'h', 'z', 'backspace', 't', 'return']","[1.5831919758575168, 1.766290861079142, 1.9496874310325438, 2.0996990433031897, 2.216355530520559, 2.333029981472464, 2.6992258272302934, 2.9161645375370426, 3.0826581963392528, 3.249182008551543, 3.3325860206223297, 3.715782615725402, 3.882376678968285, 4.032303925846463, 4.199041378177753, 4.315254866889518, 4.465420774801714, 4.565477488875331, 4.732035624650962, 5.265230038442496, 5.664979572668926, 6.581406509030785]",2017_Feb_28_1210,60.0351653599,famFaceGrey,001,26,
148,./greyInner/MilaKunis4_1_cut.png,0,67,67,147,,,1.ja,1.846,None,act,1.346,None,None,None,None,None,Mila Kunis,"['lshift', 'm', 'i', 'l', 'a', 'space', 'lshift', 'k', 'u', 'n', 'i', 'd', 'backspace', 'd', 'backspace', 's', 'return']","[1.3838856326055975, 1.8337517386335094, 2.0003782007524933, 2.1502496317434634, 2.2498508368535113, 2.350285430899021, 2.483388037179793, 3.0165811678480168, 3.533081819675317, 3.6828631112166477, 3.7827700205816654, 3.882875493361098, 4.299486878775497, 4.532377705467297, 4.965765293552977, 5.182405677566749, 5.8487755149180884]",2017_Feb_28_1210,60.0351653599,famFaceGrey,001,26,
30,./greyInner/Beyonce8_3_cut.png,0,68,68,29,,,2.nein,3.678,None,None,None,music,1.662,None,None,None,,['return'],[0.9499812663925695],2017_Feb_28_1210,60.0351653599,famFaceGrey,001,26,
72,./greyInner/GuentherJauch3_1_cut.png,0,69,69,71,,,1.ja,1.119,None,None,None,host,4.749,None,None,None,GÜnther Jauch,"['lshift', 'g', u'\xdc', 'n', 't', 'h', 'e', 'r', 'space', 'lshift', 'j', 'a', 'u', 'c', 'h', 'return']","[0.6168316336206772, 0.8499466862031113, 1.1665526824981498, 1.4997748117657466, 1.7495829847503046, 1.9329891781326296, 2.0163752264707, 2.1494787950941827, 2.2995112581284047, 2.5159482670133, 2.6826783413816884, 2.7327589857159182, 3.5989557938173675, 3.8155458152195934, 3.9321737529317033, 4.598541986377313]",2017_Feb_28_1210,60.0351653599,famFaceGrey,001,26,
36,./greyInner/CarenMiosga1_1_cut.png,0,70,70,35,,,1.ja,2.559,None,None,None,None,None,polit,1.06,None,,['return'],[0.9500075704290794],2017_Feb_28_1210,60.0351653599,famFaceGrey,001,26,
55,./greyInner/DannFlorek(DonaldDonCragen)8_1_cut.png,0,71,71,54,,,2.nein,2.48,None,None,None,None,None,polit,1.066,None,,['return'],[0.8001951631358679],2017_Feb_28_1210,60.0351653599,famFaceGrey,001,26,
181,./greyInner/SigmarGabriel1_2_cut.png,0,72,72,180,,,1.ja,1.078,None,None,None,None,None,polit,0.928,None,Sigmar Gabriel,"['lshift', 's', 'i', 'g', 'm', 'a', 'r', 'space', 'lshift', 'g', 'a', 'r', 'i', 'e', 'l', 'backspace', 'backspace', 'backspace', 'backspace', 'b', 'r', 'i', 'e', 'l', 'return']","[0.783954664668272, 1.000601143519816, 1.1837285782476101, 1.3838189101661555, 1.5835589492744475, 1.7168828944195411, 1.90011618686367, 2.3001043821241183, 2.4998995955593273, 2.666392612798518, 2.833211864275654, 3.099722781093078, 3.199605311105188, 3.3994406221609097, 3.516219326924329, 4.115990545942623, 4.2659909308804345, 4.482499473919233, 4.765704473482401, 5.548501760446015, 5.765468057914404, 5.865330378726867, 6.0318339817386, 6.131910905012774, 7.1147914667126315]",2017_Feb_28_1210,60.0351653599,famFaceGrey,001,26,
186,./greyInner/TaylorSwift1_2_cut.png,0,73,73,185,,,1.ja,1.299,None,None,None,music,0.632,None,None,None,Taylor Swift,"['lshift', 't', 'a', 'y', 'l', 'o', 'r', 'space', 'lshift', 's', 'w', 'i', 'f', 't', 'return']","[0.5001860529573605, 0.6835348265467474, 0.9500669149074383, 1.1499628535639204, 1.2998230572211469, 1.466539338010989, 1.5828875547249481, 1.7496917294956802, 1.9162732822824182, 2.0498567392223777, 2.299396097763747, 2.482578706816639, 2.71605175095101, 2.8326344585475454, 3.298994159220456]",2017_Feb_28_1210,60.0351653599,famFaceGrey,001,26,
218,./greyInner/notfamousface3_3_cut.png,0,74,74,217,,,2.nein,1.736,None,None,None,music,0.975,None,None,None,,['return'],[0.8669362082164298],2017_Feb_28_1210,60.0351653599,famFaceGrey,001,26,
21,./greyInner/BenedictCumberbatch16_1_cut.png,0,75,75,20,,,1.ja,1.178,None,act,1.011,None,None,None,None,None,Domenik Cumberbatch,"['lshift', 'd', 'o', 'm', 'i', 'k', 'backspace', 'backspace', 'e', 'n', 'i', 'k', 'space', 'lshift', 'c', 'u', 'm', 'b', 'e', 'r', 'b', 'a', 't', 'c', 'h', 'return']","[0.41685261269594776, 0.8000026945592253, 0.9998498745098914, 1.1497883487209037, 1.3498696987735457, 1.7496327057997405, 2.2494091214703076, 2.3494093780955154, 2.8660242279438535, 2.9825090973463375, 3.1157583005278866, 3.2657301359595294, 3.4323360680973565, 3.848768457735787, 4.332056732037017, 4.764952883691876, 5.048466474539964, 5.248327448070995, 5.481578832561354, 5.664584049744008, 5.8314485313349, 5.931355119919317, 6.081342673618565, 6.564529260354902, 6.714596688512756, 7.73064568074733]",2017_Feb_28_1210,60.0351653599,famFaceGrey,001,26,
189,./greyInner/TaylorSwift7_1_cut.png,0,76,76,188,,,1.ja,1.163,None,dummy,0.497,None,None,None,None,None,Taylor Swift,"['backspace', 'lshift', 't', 'a', 'y', 'l', 'o', 'r', 'space', 'lshift', 's', 'w', 'i', 'f', 't', 'return']","[1.083672826514885, 3.049534033576492, 3.3159358848661213, 3.4994787309387902, 3.715790956028286, 3.849295500853259, 4.032549323279454, 4.115803851424062, 4.282272168529744, 4.515236133280268, 4.732281022084862, 4.932177281521945, 5.098745361507099, 5.348657146741971, 5.481743393194847, 6.01508761169498]",2017_Feb_28_1210,60.0351653599,famFaceGrey,001,26,
196,./greyInner/UrsulavonderLeyen1_1_cut.png,0,77,77,195,,,1.ja,3.392,None,None,None,None,None,polit,0.963,None,,['return'],[1.2831969800390652],2017_Feb_28_1210,60.0351653599,famFaceGrey,001,26,
60,./greyInner/ElvisPresley6_1_cut.png,0,78,78,59,,,1.ja,1.644,None,None,None,music,0.694,None,None,None,Elvis Presley,"['lshift', 'e', 'l', 'v', 'b', 'i', 'backspace', 'backspace', 'v', 'i', 's', 'backspace', 'backspace', 'backspace', 'i', 's', 'space', 'lshift', 'p', 'r', 'e', 's', 'l', 'e', 'y', 'return']","[0.5168153379490832, 0.883166441692083, 1.0997850126004778, 1.4332031390331395, 1.5828410414851533, 2.082713691444951, 2.2161168694856315, 3.282174009556911, 3.5154696618192247, 3.615358928231217, 4.081922004033913, 4.23205807931663, 4.3818695242680405, 4.9317371700435615, 5.031687705621152, 5.231296545316582, 5.464796535052301, 5.681226165974294, 5.931418634550937, 6.09779809533029, 6.2975955542315205, 6.581049479820649, 6.697596580730533, 6.8808921046820615, 9.579874459162966]",2017_Feb_28_1210,60.0351653599,famFaceGrey,001,26,
221,./greyInner/notfamousface6_8_cut.png,0,79,79,220,,,1.ja,2.252,None,None,None,None,None,sport,2.043,None,,['return'],[0.6503583764897485],2017_Feb_28_1210,60.0351653599,famFaceGrey,001,26,
142,./greyInner/MariskaHargitay(Liv)14_1_cut.png,0,80,80,141,,,1.ja,2.444,None,dummy,1.011,None,None,None,None,None,Agent Benson,"['lshift', 'a', 'g', 'e', 'n', 't', 'space', 'lshift', 'b', 'e', 'n', 's', 'o', 'n', 'return']","[0.8501125299608248, 1.0332800623091316, 1.1997871939111064, 1.333216034428915, 1.433061674631972, 1.5997263096851384, 1.783111973085397, 1.8496637573971384, 1.949541796477206, 2.04977429851715, 2.149556424088587, 2.282858556127394, 2.4492235817633627, 2.5994424185355456, 2.899094178725136]",2017_Feb_28_1210,60.0351653599,famFaceGrey,001,26,
66,./greyInner/EmmaWatson(HermioneGranger)11_2_cut.png,0,81,81,65,,,2.nein,6.875,None,act,0.828,None,None,None,None,None,,['return'],[0.6668208553819568],2017_Feb_28_1210,60.0351653599,famFaceGrey,001,26,
100,./greyInner/JasonSegel(Marshall)9_1_cut.png,0,82,82,99,,,1.ja,2.727,None,dummy,0.612,None,None,None,None,None,Mrschal Erikson,"['lshift', 'm', 'r', 's', 'c', 'h', 'a', 'l', 'space', 'lshift', 'e', 'r', 'i', 'k', 's', 'o', 'n', 'return']","[0.6836766117321531, 0.8501750822488248, 1.1001898381728097, 1.2666257564014813, 1.4499418103332573, 1.500159107356012, 1.6664404091625329, 1.7499801115809532, 1.9332878252080263, 2.0331206341707, 2.2664647243600484, 2.4330482018303883, 2.532992321786878, 2.716266674193321, 2.832514165687826, 2.882678854632104, 3.0493720391914394, 3.5991774534613796]",2017_Feb_28_1210,60.0351653599,famFaceGrey,001,26,
103,./greyInner/JimParsons(SheldonCooper)6_1_cut.png,0,83,83,102,,,1.ja,1.644,None,act,0.745,None,None,None,None,None,Sheldon Cooper,"['lshift', 's', 'h', 'e', 'l', 'd', 'o', 'n', 'space', 'lshift', 'c', 'o', 'o', 'p', 'e', 'r', 'return']","[0.40062205843787524, 0.700435492231918, 0.8002230710790172, 0.9503790347825998, 1.0837623244042334, 1.2169072737724491, 1.2835819171923504, 1.4667751120159664, 1.6001606471036212, 1.7333861124934629, 1.8167426489835634, 2.2832139814290713, 2.416195653288014, 2.566492119052782, 2.666417312932026, 2.81611776767204, 3.1660458485803247]",2017_Feb_28_1210,60.0351653599,famFaceGrey,001,26,
130,./greyInner/KatjaBurkard7_1_cut.png,0,84,84,129,,,2.nein,2.476,None,act,1.642,None,None,None,None,None,,['return'],[0.6667396977991302],2017_Feb_28_1210,60.0351653599,famFaceGrey,001,26,
33,./greyInner/BritneySpears5_1_cut.png,0,85,85,32,,,1.ja,1.161,None,None,None,music,0.562,None,None,None,Britney Spears,"['lshift', 'b', 'r', 'i', 't', 'n', 'e', 'y', 'space', 'lshift', 's', 'p', 'e', 'r', 'a', 'r', 's', 'backspace', 'backspace', 'backspace', 'backspace', 'backspace', 'e', 'a', 'r', 's', 'return']","[0.3001470459930715, 0.7667178205374512, 1.4498908061614202, 1.6830004054663732, 1.8828312255882338, 2.0994963097364234, 2.232852974537309, 2.449476357160165, 2.6993252693282557, 3.0489107561697892, 3.2989822903255117, 3.482223602293743, 3.6322486873650632, 3.8154707524754485, 4.031978012390027, 4.115366947757138, 4.248685439624751, 4.748428814855288, 5.031651457371481, 5.198333735379492, 5.364954423441304, 5.531445515995074, 6.231022277595912, 6.431192163192463, 6.564571924223856, 6.681034659741272, 7.414087480818125]",2017_Feb_28_1210,60.0351653599,famFaceGrey,001,26,
175,./greyInner/SahraWagenknecht9_1_cut.png,0,86,86,174,,,1.ja,1.941,None,None,None,None,None,polit,1.408,None,Sarah Wagenknecht,"['lshift', 's', 'r', 'a', 'h', 'backspace', 'backspace', 'backspace', 'a', 'r', 'a', 'h', 'space', 'lshift', 'w', 'a', 'g', 'e', 'n', 'k', 'n', 'e', 'c', 'h', 't', 'return']","[0.41713361681831884, 0.6170443113987858, 0.8001714253459795, 0.9500893695767445, 1.1165471009098837, 1.7496837099733966, 1.8830641125659895, 2.7325835185311007, 2.9493502902423643, 3.498912231763825, 3.6490335511225567, 3.7489385358021536, 4.048771858015243, 4.198560206737966, 4.332032673466529, 4.498659135586422, 4.631884921755045, 4.765198281127596, 4.898497205356762, 5.314937935299895, 5.464630049735206, 5.649119841200445, 5.88116508928033, 5.981420687548962, 6.164607466755115, 7.797449919677092]",2017_Feb_28_1210,60.0351653599,famFaceGrey,001,26,
127,./greyInner/KatjaBurkard10_1_cut.png,0,87,87,126,,,1.ja,1.862,None,None,None,host,0.779,None,None,None,Katja Burkhard,"['lshift', 'k', 'a', 't', 'j', 'a', 'space', 'lshift', 'b', 'u', 'r', 'k', 'h', 'a', 'r', 't', 'backspace', 'd', 'return']","[0.5670547688587249, 0.7004531351849437, 0.8837306954010273, 1.0333310664809687, 1.300144479744631, 1.4169193351372087, 1.566746498354405, 1.7665471650670952, 1.7999183291667578, 1.9665303561432665, 2.116549346375905, 2.5496129456932977, 2.865947561294888, 3.065958981096628, 3.182732874145586, 3.316071254434064, 4.01579557527657, 4.232020227163957, 5.031782977566763]",2017_Feb_28_1210,60.0351653599,famFaceGrey,001,26,
117,./greyInner/JudithRakers2_1_cut.png,0,88,88,116,,,2.nein,2.811,None,None,None,music,1.299,None,None,None,,['return'],[0.6667275081217667],2017_Feb_28_1210,60.0351653599,famFaceGrey,001,26,
153,./greyInner/NeilPatrickHarris(Barney)13_4_cut.png,0,89,89,152,,,1.ja,1.106,None,act,0.572,None,None,None,None,None,Neil Partik Harris,"['lshift', 'n', 'e', 'i', 'l', 'space', 'lshift', 'p', 'a', 'r', 't', 'i', 'k', 'space', 'lshift', 'h', 'a', 'r', 'r', 'i', 's', 'return']","[0.4834406452573603, 0.7001317126632784, 0.8500772440547735, 0.9333814932488167, 1.1166122194445052, 1.3829832757637632, 1.500968758500676, 1.7329508127313602, 2.2994153446215932, 2.6158612712169997, 2.749179763084612, 3.082381683150743, 3.2824062549716473, 3.415545751064201, 3.632261197821208, 3.765616258719092, 3.8655969477058534, 4.032149630204003, 4.148446842746125, 4.381973136520173, 4.481946126763432, 5.115066696776921]",2017_Feb_28_1210,60.0351653599,famFaceGrey,001,26,
188,./greyInner/TaylorSwift3_1_cut.png,0,90,90,187,,,1.ja,1.496,None,act,0.995,None,None,None,None,None,Taylor Swift,"['lshift', 't', 'a', 'y', 'l', 'o', 'r', 'space', 'lshift', 's', 'w', 'i', 'f', 't', 'return']","[0.46674977032125753, 0.7666639293365733, 1.0332181515841512, 1.266466328264869, 1.3832726201908372, 1.5664013380428514, 1.6495496876887046, 1.8163342948209902, 1.9828751084241958, 2.132606678917, 2.3328253232193674, 2.482658902057665, 2.665928763532065, 2.799325846734064, 3.1658678151488857]",2017_Feb_28_1210,60.0351653599,famFaceGrey,001,26,
11,./greyInner/BarackObama1_3_cut.png,0,91,91,10,,,1.ja,1.472,None,None,None,None,None,polit,1.338,None,Barak Obama,"['lshift', 'b', 'a', 'r', 'a', 'k', 'space', 'lshift', 'o', 'b', 'a', 'm', 'a', 'return']","[0.5005440445092972, 0.766779089699412, 0.9502087000928441, 1.0669078511782573, 1.2001368451565213, 1.383262996761914, 1.916530548611263, 2.1664105765321438, 2.3329789772978984, 2.632999956373169, 2.7828547067547333, 2.9328746593309916, 3.066036289308613, 3.4660979434083856]",2017_Feb_28_1210,60.0351653599,famFaceGrey,001,26,
88,./greyInner/Ice-T(OdafinFinTutuola)5_1_cut.png,0,92,92,87,,,1.ja,1.296,None,None,None,music,4.194,None,None,None,Ice T,"['lshift', 'i', 'c', 'e', 'space', 'lshift', 't', 'return']","[0.9502930654853117, 1.1835261654614442, 1.4000834672060591, 1.583654862783078, 1.699883107417918, 2.016455742492326, 2.1330929828527587, 2.766313957308739]",2017_Feb_28_1210,60.0351653599,famFaceGrey,001,26,
18,./greyInner/BastianSchweinsteiger14_1_cut.png,0,93,93,17,,,1.ja,2.246,None,None,None,None,None,sport,1.446,None,Bastian Schwinsteiger,"['lshift', 'b', 'a', 's', 't', 'i', 'a', 'n', 'space', 'lshift', 's', 'c', 'h', 'w', 'i', 'n', 's', 't', 'e', 'i', 'g', 'e', 'r', 'return']","[0.6507757125182252, 0.8841987148225599, 1.1006296288687736, 1.267168197005958, 1.4337853564775287, 1.7169852235456347, 1.8337369827077055, 1.950175659652814, 2.3002628479189298, 2.4667250701859302, 2.6829776300182857, 2.8500442036165623, 2.9498985049031035, 3.2164636337038246, 3.383130193442412, 3.5663878652412677, 3.7162047634683404, 3.849495026612203, 3.9994322176989954, 4.116061117754725, 4.282716129378969, 4.399276703090436, 4.515967513869327, 7.464828292366292]",2017_Feb_28_1210,60.0351653599,famFaceGrey,001,26,
89,./greyInner/Ice-T(OdafinFinTutuola)6_1_cut.png,0,94,94,88,,,1.ja,1.802,None,act,1.453,None,None,None,None,None,Ice T,"['lshift', 'i', 'c', 'e', 'space', 'lshift', 't', 'return']","[1.0666207522172044, 1.5332774960606912, 1.749881311043282, 1.9329744222086447, 2.0496828759423806, 2.1993842930241954, 2.282834176772667, 3.3989530351009307]",2017_Feb_28_1210,60.0351653599,famFaceGrey,001,26,
139,./greyInner/LisaEdelstein(DrLisaCuddy)6_3_cut.png,0,95,95,138,,,2.nein,1.907,None,act,0.941,None,None,None,None,None,,['return'],[0.8999779302703246],2017_Feb_28_1210,60.0351653599,famFaceGrey,001,26,
79,./greyInner/GeorgeClooney3_1_cut.png,0,96,96,78,,,1.ja,1.129,None,act,0.663,None,None,None,None,None,George Clooney,"['lshift', 'g', 'e', 'o', 'r', 'g', 'e', 'space', 'lshift', 'c', 'l', 'o', 'o', 'n', 'e', 'y', 'return']","[0.6002966582327645, 0.7502915898930951, 1.049960993035711, 1.2332202687375684, 1.4665473575350916, 1.5497720530511288, 1.6832438782166719, 1.9996949373071402, 2.2163045263478125, 2.3827077249188733, 2.916088833229878, 3.2158393939553207, 3.349214984833452, 3.5154218654570286, 3.66582033956729, 3.8656424986020284, 4.565329608853062]",2017_Feb_28_1210,60.0351653599,famFaceGrey,001,26,
97,./greyInner/JasonSegel(Marshall)14_1_cut.png,0,97,97,96,,,1.ja,1.471,None,act,3.803,None,None,None,None,None,,['return'],[0.8998794505150727],2017_Feb_28_1210,60.0351653599,famFaceGrey,001,26,
135,./greyInner/LeonardoDiCaprio7_1_cut.png,0,98,98,134,,,1.ja,1.138,None,dummy,0.438,None,None,None,None,None,Leonardo de Caprio,"['lshift', 'l', 'e', 'o', 'n', 'a', 'r', 'd', 'i', 'backspace', 'o', 'space', 'd', 'i', 'space', 'backspace', 'backspace', 'e', 'space', 'lshift', 'c', 'a', 'p', 'r', 'i', 'o', 'return']","[0.633389063679715, 0.8000049400270655, 1.000117726613098, 1.1666178010345902, 1.4498266499704187, 1.633100681596261, 1.7164748610375682, 1.9162001442236942, 2.082764374836188, 2.8659446742676664, 3.382487989962101, 3.7821489886428026, 3.9821084419290855, 4.1987844326285995, 4.348602934762312, 4.915136755340427, 5.048405526158604, 5.231627270488389, 5.581538670787268, 5.764681182219647, 5.897820036749181, 6.048018022758697, 6.414242738803296, 6.5978808568197564, 6.747706736914552, 6.914236643964614, 7.880475730995386]",2017_Feb_28_1210,60.0351653599,famFaceGrey,001,26,
31,./greyInner/BritneySpears1_1_cut.png,0,99,99,30,,,1.ja,1.509,None,None,None,music,1.542,None,None,None,Britney Spears,"['lshift', 'b', 'r', 'i', 't', 'n', 'e', 'y', 'space', 'lshift', 's', 'p', 'e', 'a', 'r', 's', 'return']","[0.5004837376891373, 0.8168818679205287, 1.1668128358578542, 1.4833764890663588, 1.7161457397724007, 2.199360555234307, 2.3996462427567167, 2.5993946221715305, 2.7159526296345575, 3.115894311655211, 3.3989793391410785, 3.5656019518883113, 3.8155843089352857, 4.01561112622403, 4.131923736251338, 4.298789500968269, 4.831997387560477]",2017_Feb_28_1210,60.0351653599,famFaceGrey,001,26,
47,./greyInner/CristinMilioti(Tracy_Mutter)2_1_cut.png,0,100,100,46,,,1.ja,2.728,None,None,None,music,10.41,None,None,None,,['return'],[1.3174974465837295],2017_Feb_28_1210,60.0351653599,famFaceGrey,001,26,
108,./greyInner/JoachimLoew15_1_cut.png,0,101,101,107,,,1.ja,0.961,None,None,None,None,None,sport,1.379,None,Jogi LÖw,"['lshift', 'j', 'o', 'g', 'i', 'space', 'lshift', 'l', u'\xd6', 'w', 'return']","[0.7169861858892546, 1.0000946303825913, 1.9830775212103617, 2.2156995334553358, 2.3487597966504836, 2.7819780123900273, 2.999216652893665, 3.1994035398820415, 3.382020612101769, 3.5658563311899343, 3.732361217325888]",2017_Feb_28_1210,60.0351653599,famFaceGrey,001,26,
168,./greyInner/RobertSeanLeonard(Wilson)11_2_cut.png,0,102,102,167,,,1.ja,2.96,None,act,1.527,None,None,None,None,None,,['return'],[1.0497675621154485],2017_Feb_28_1210,60.0351653599,famFaceGrey,001,26,
164,./greyInner/OmarEpps(DrEricForeman)5_2_cut.png,0,103,103,163,,,1.ja,2.798,None,None,None,None,None,sport,1.998,None,,['return'],[0.6503291854223789],2017_Feb_28_1210,60.0351653599,famFaceGrey,001,26,
99,./greyInner/JasonSegel(Marshall)7_1_cut.png,0,104,104,98,,,1.ja,1.278,None,act,0.794,None,None,None,None,None,Marshal Erikson,"['lshift', 'm', 'a', 'r', 's', 'h', 'a', 'l', 'space', 'lshift', 'e', 'r', 'i', 'k', 's', 'o', 'n', 'return']","[0.7831116523047967, 0.9834079255997494, 1.616358802486502, 1.8163291623259283, 2.232838218613324, 2.3326485729085107, 2.4826281070836558, 2.649146466019374, 2.8325382242583146, 2.9325006287308497, 3.1158420243591536, 3.265621711994754, 3.3657393744506408, 3.532028695781264, 3.632286539517736, 3.6988088119815075, 3.8322421434331773, 4.265311837587433]",2017_Feb_28_1210,60.0351653599,famFaceGrey,001,26,
138,./greyInner/LisaEdelstein(DrLisaCuddy)2_2_cut.png,0,105,105,137,,,2.nein,3.691,None,dummy,0.856,None,None,None,None,None,,['return'],[0.6168698065557692],2017_Feb_28_1210,60.0351653599,famFaceGrey,001,26,
133,./greyInner/LeonardoDiCaprio3_1_cut.png,0,106,106,132,,,1.ja,1.013,None,act,0.998,None,None,None,None,None,Leonardo de Caprio,"['lshift', 'l', 'e', 'o', 'n', 'a', 'r', 'd', 'o', 'space', 'd', 'e', 'space', 'lshift', 'c', 'a', 'p', 'r', 'i', 'o', 'return']","[0.6501870794563729, 0.8502052356598142, 1.0668982277493342, 1.183258954921257, 1.3999484184223547, 1.549995958161162, 1.6665542864047893, 1.8824331364176032, 2.0326070638548117, 2.415928763530246, 2.715414679963942, 2.849141846774728, 3.065441561408079, 3.265184808327831, 3.382210193649371, 3.5325037723850983, 3.7492333335048897, 3.899035155027377, 4.065471394038468, 4.448809132762108, 6.181561382078144]",2017_Feb_28_1210,60.0351653599,famFaceGrey,001,26,
193,./greyInner/TomCruise5_1_cut.png,0,107,107,192,,,1.ja,1.876,None,dummy,0.727,None,None,None,None,None,Tom Cruise,"['lshift', 't', 'o', 'm', 'space', 'lshift', 'c', 'r', 'u', 'i', 's', 'e', 'return']","[0.6667663226198783, 0.9000427280243457, 1.2998346053373098, 1.466592266870066, 1.6330817555190151, 1.849632641644348, 2.0995271047086135, 2.3825669020770874, 2.5659923423172586, 3.148852630662077, 3.2823536468949897, 3.4324355101962283, 3.648802909612641]",2017_Feb_28_1210,60.0351653599,famFaceGrey,001,26,
219,./greyInner/notfamousface4_2_cut.png,0,108,108,218,,,1.ja,4.587,None,None,None,music,0.571,None,None,None,,['return'],[0.5170652263168449],2017_Feb_28_1210,60.0351653599,famFaceGrey,001,26,
170,./greyInner/RobertSeanLeonard(Wilson)8_1_cut.png,0,109,109,169,,,1.ja,2.413,None,act,1.579,None,None,None,None,None,,['return'],[0.4340214512649254],2017_Feb_28_1210,60.0351653599,famFaceGrey,001,26,
215,./greyInner/notfamousface13_1_cut.png,0,110,110,214,,,2.nein,3.662,None,None,None,music,1.83,None,None,None,,['return'],[0.5502455257483234],2017_Feb_28_1210,60.0351653599,famFaceGrey,001,26,
51,./greyInner/DannFlorek(DonaldDonCragen)1_1_cut.png,0,111,111,50,,,1.ja,1.512,None,act,4.912,None,None,None,None,None,Alfred Hitchcock,"['lshift', 'a', 'l', 'f', 'r', 'e', 'd', 'space', 'lshift', 'h', 'i', 't', 'c', 'h', 'c', 'o', 'k', 'backspace', 'c', 'k', 'backspace', 'backspace', 'backspace', 'backspace', 'backspace', 'backspace', 'backspace', 'backspace', 'backspace', 'backspace', 'space', 'lshift', 'h', 'i', 't', 'c', 'h', 'c', 'o', 'c', 'k', 'return']","[7.048097897215484, 7.248028480216817, 7.481279223144156, 7.714520342644391, 7.897819395186161, 8.081124221784194, 8.280921039124223, 8.414206490553624, 8.797332193063994, 8.997373766274904, 9.197308198647079, 9.513442005367324, 9.697085576661266, 9.813772217288715, 11.17968064330671, 11.26315298172267, 11.396355030101404, 13.878663639348815, 14.361893531515307, 14.4785285264079, 24.25812858953759, 25.624085453480802, 26.740417631146556, 27.056819289970008, 27.239868133361597, 27.406817942690395, 27.739671494633512, 27.906666534076066, 28.55627139608987, 29.03943616971992, 30.755409008555944, 32.65459910078607, 32.83792317424195, 33.00454386230558, 33.23773365685156, 33.3377130627141, 33.43767514640422, 33.854193184559335, 33.93744258020706, 34.070765563008536, 34.120786542083806, 34.57046691593496]",2017_Feb_28_1210,60.0351653599,famFaceGrey,001,26,
220,./greyInner/notfamousface5_1_cut.png,0,112,112,219,,,2.nein,1.373,None,None,None,None,None,polit,0.733,None,,['return'],[0.4501592998258275],2017_Feb_28_1210,60.0351653599,famFaceGrey,001,26,
206,./greyInner/WillSmith1_1_cut.png,0,113,113,205,,,1.ja,1.013,None,act,0.513,None,None,None,None,None,Will Smith,"['lshift', 'w', 'i', 'l', 'l', 'space', 'lshift', 's', 'm', 'i', 't', 'h', 'return']","[0.6503378465076821, 0.7836874541280849, 0.9335184667197609, 1.1166423728554946, 1.2501036122503137, 1.4500223263548833, 1.533262419356106, 1.6499436067078932, 1.7165864928119845, 1.8662776449036755, 2.066557558369823, 2.233069501686259, 3.082483370715636]",2017_Feb_28_1210,60.0351653599,famFaceGrey,001,26,
58,./greyInner/ElvisPresley4_10_cut.png,0,114,114,57,,,1.ja,1.09,None,None,None,music,0.709,None,None,None,Elvis Presley,"['lshift', 'e', 'l', 'v', 'i', 's', 'space', 'lshift', 'p', 'r', 'e', 's', 'l', 'e', 'x', 'backspace', 'y', 'return']","[0.283870940838824, 0.6505585438080743, 0.8338864666366135, 1.133782341135884, 1.3669740603691025, 1.500163277509273, 1.7167382222069136, 1.9830316495335865, 2.216638138546841, 2.41667714551113, 2.58320095772433, 3.116344046562517, 3.2828771614222205, 3.432718439002201, 3.6327324250523816, 4.215546520938005, 4.666229656071664, 5.082079828267524]",2017_Feb_28_1210,60.0351653599,famFaceGrey,001,26,
157,./greyInner/NicoleKidman3_1_cut.png,0,115,115,156,,,1.ja,1.181,None,dummy,0.421,None,None,None,None,None,Nicole Kidman,"['lshift', 'n', 'i', 'c', 'o', 'l', 'e', 'space', 'lshift', 'k', 'i', 'd', 'm', 'a', 'n', 'return']","[0.4670618901946, 0.6835922463396855, 0.8501847056759289, 1.0499452747681062, 1.1999957015341352, 1.3832729409714375, 1.4831452059916046, 1.7995494310634967, 1.9995396793219697, 2.099697439398369, 2.249559246960416, 2.3996568285274407, 2.532806589610118, 2.666004788618011, 2.799393852297726, 3.565861463684996]",2017_Feb_28_1210,60.0351653599,famFaceGrey,001,26,
210,./greyInner/WillSmith6_1_cut.png,0,116,116,209,,,1.ja,1.312,None,act,0.462,None,None,None,None,None,Will Smith,"['lshift', 'w', 'i', 'l', 'l', 'space', 'lshift', 's', 'm', 'i', 't', 'h', 'return']","[0.6501864378933533, 0.8167798595732165, 1.00003079497219, 1.2332100037456257, 1.3666696392356243, 1.5831335937218682, 1.6996239164018334, 1.8164632487660128, 1.9495084352547565, 2.0995396151647583, 2.3328506649140763, 2.4326087319132057, 3.065861463684996]",2017_Feb_28_1210,60.0351653599,famFaceGrey,001,26,
85,./greyInner/HughLaurie(DrHouse)9_2_cut.png,0,117,117,84,,,1.ja,1.456,None,dummy,0.82,None,None,None,None,None,Dr House,"['lshift', 'd', 'r', 'space', 'lshift', 'h', 'o', 'u', 's', 'e', 'return']","[2.2495797769406636, 2.4163528359604243, 2.5494281758601574, 3.199414446433366, 3.3489513028835063, 3.465822713344096, 3.8489737575509935, 4.048957590190184, 4.248755369872015, 4.415558582300946, 4.782056924505014]",2017_Feb_28_1210,60.0351653599,famFaceGrey,001,26,
8,./greyInner/AngelaMerkel4_1_cut.png,0,118,118,7,,,1.ja,1.343,None,None,None,None,None,polit,0.943,None,Angela Merkel,"['lshift', 'a', 'n', 'g', 'e', 'l', 's', 'a', 'space', 'backspace', 'backspace', 'backspace', 'a', 'space', 'lshift', 'm', 'e', 'r', 'k', 'e', 'l', 'return']","[0.43359577492992685, 0.600586644221039, 0.7666774021363381, 0.9500194393258425, 1.0665267633976327, 1.2165072599145788, 1.3499245523180434, 1.4668758372390585, 1.8661887885773467, 2.0161468304268055, 2.14953300707748, 2.449354139615025, 2.632780542196997, 2.8159076561441907, 2.965647887722298, 3.1325575994287647, 3.2823850834283803, 4.065442844532299, 4.1819703778037365, 4.265244794367391, 4.798506251379877]",2017_Feb_28_1210,60.0351653599,famFaceGrey,001,26,
4,./greyInner/AlysonHannigan(Lily)5_4_cut.png,0,119,119,3,,,1.ja,1.468,None,act,0.767,None,None,None,None,None,Lilly Auldrin,"['lshift', 'l', 'i', 'l', 'l', 'y', 'space', 'lshift', 'a', 'u', 'l', 'd', 'r', 'i', 'n', 'return']","[0.6004304238922487, 0.8504381226357509, 1.0668231650051894, 1.4171313713522977, 1.550041509057337, 1.6667791538566235, 1.8667235304383212, 2.0164627996746276, 2.1665154719084967, 2.432847392949043, 2.666270074472777, 2.7663142780893395, 2.9327441014793294, 3.032835459896887, 3.1494839275910635, 3.566018325574987]",2017_Feb_28_1210,60.0351653599,famFaceGrey,001,26,
169,./greyInner/RobertSeanLeonard(Wilson)2_6_cut.png,0,120,120,168,,,2.nein,1.606,None,act,0.666,None,None,None,None,None,,['return'],[0.45032674748654244],2017_Feb_28_1210,60.0351653599,famFaceGrey,001,26,
212,./greyInner/notfamousface11_1_cut.png,0,121,121,211,,,1.ja,9.198,None,act,0.669,None,None,None,None,None,,['return'],[0.4335027484521561],2017_Feb_28_1210,60.0351653599,famFaceGrey,001,26,
110,./greyInner/JoachimLoew8_1_cut.png,0,122,122,109,,,1.ja,1.024,None,None,None,None,None,sport,1.34,None,Jogi Löw,"['lshift', 'j', 'o', 'g', 'i', 'space', 'lshift', 'l', u'\xd6', 'w', 'e', 'backspace', 'backspace', 'backspace', 'backspace', 'lshift', 'l', u'\xd6', 'backspace', 'capslock', u'\xf6', 'w', 'return']","[0.5335058921045857, 0.7667592012803652, 0.9162999071013473, 1.6829734598668438, 1.8329263692212407, 2.016205533343964, 2.299171230310094, 2.4660312209689437, 2.6991748230575467, 2.8325539425259194, 2.999330209353502, 3.3656543674969726, 3.499070376776217, 3.6321749077433196, 3.782269281502522, 4.498611660003007, 4.665153756730433, 5.0483894871103985, 6.164534007913971, 6.347811247349455, 6.5477630018940545, 7.28066794294682, 7.780549253991921]",2017_Feb_28_1210,60.0351653599,famFaceGrey,001,26,
104,./greyInner/JimParsons(SheldonCooper)8_1_cut.png,0,123,123,103,,,1.ja,1.593,None,act,1.109,None,None,None,None,None,Sheldon Cooper,"['lshift', 's', 'h', 'e', 'l', 'd', 'o', 'n', 'space', 'lshift', 'c', 'o', 'o', 'p', 'e', 'r', 'return']","[0.31688026401570824, 0.5831708043133403, 0.7166958791203797, 0.9166723337966687, 1.0498192078503052, 1.19992128035301, 1.2999042148057924, 1.4496556737176434, 1.882887683037552, 2.0660824817678076, 2.249446652844199, 2.565922732848776, 2.6992890210804035, 3.348968945836532, 3.4655285572043795, 3.648900106243673, 3.8820687292463845]",2017_Feb_28_1210,60.0351653599,famFaceGrey,001,26,
209,./greyInner/WillSmith5_1_cut.png,0,124,124,208,,,1.ja,1.462,None,act,0.845,None,None,None,None,None,Will Smith,"['lshift', 'w', 'i', 'l', 'l', 'space', 'lshift', 's', 'm', 'i', 't', 'h', 'return']","[0.2669548776666488, 0.41687955829729617, 0.6169807967689849, 0.8000273946945526, 0.9501252970439964, 1.1167334746478446, 1.1665866852817999, 1.2666177368773788, 1.3332692840685922, 1.4998726499597979, 1.6498284463432356, 1.7664490060924436, 2.099690061437286]",2017_Feb_28_1210,60.0351653599,famFaceGrey,001,26,
202,./greyInner/Usher11_1_cut.png,0,125,125,201,,,1.ja,7.508,None,None,None,music,0.561,None,None,None,,['return'],[0.5333503133388149],2017_Feb_28_1210,60.0351653599,famFaceGrey,001,26,
26,./greyInner/Beyonce1_1_cut.png,0,126,126,25,,,1.ja,2.25,None,None,None,music,4.868,None,None,None,Beyonce,"['lshift', 'b', 'e', 'o', 'n', 'y', 'e', 'backspace', 'backspace', 'backspace', 'backspace', 'y', 'o', 'n', 'c', 'e', 'return']","[0.5838155740439106, 0.750361520142178, 0.9836260566517012, 1.2836088627918798, 1.5166658540219942, 1.6666562947484636, 1.8500589595405472, 3.2326922632764763, 4.598876881700562, 4.782178821271373, 4.948756524683631, 6.114590978611886, 6.214936395550467, 6.398132156622523, 6.514898350927979, 6.664755988338584, 7.164555179457238]",2017_Feb_28_1210,60.0351653599,famFaceGrey,001,26,
23,./greyInner/BenedictCumberbatch3_9_cut.png,0,127,127,22,,,1.ja,1.561,None,act,0.567,None,None,None,None,None,Domenik Cumberbatch,"['lshift', 'd', 'o', 'm', 'e', 'n', 'i', 'k', 'space', 'lshift', 'c', 'u', 'm', 'b', 'e', 'r', 'b', 'a', 't', 'c', 'h', 'return']","[0.5000715341539035, 0.8334854904351232, 1.0667840297264775, 1.2500076987416833, 1.3998913194100169, 1.4833049549106363, 1.6499978186893713, 1.8498356959917146, 2.0330840651404287, 2.1662235612329823, 2.2996607420554938, 2.6494999666374497, 2.915588094150735, 3.1325890359621553, 3.2992796542748692, 3.432442567376711, 3.5657398877010564, 3.6823338226313354, 3.7989377017711377, 3.9489361620217096, 4.632005535395365, 5.66492921005738]",2017_Feb_28_1210,60.0351653599,famFaceGrey,001,26,
183,./greyInner/SigmarGabriel3_3_cut.png,0,128,128,182,,,1.ja,1.324,None,None,None,None,None,polit,1.498,None,Sigmar Gabriel,"['lshift', 's', 'o', 'backspace', 'i', 'g', 'm', 'a', 'r', 'space', 'lshift', 'g', 'a', 'b', 'r', 'i', 'e', 'l', 'return']","[0.3157745320440881, 0.5658338765224471, 0.7656534693105641, 1.1988011132380052, 1.6821073512728617, 1.8985392276626953, 2.1484237465156184, 2.2983622207284498, 2.5150231347233785, 2.7982133783625613, 3.1145996396990085, 3.6977999558603187, 3.9314808660565177, 4.047653936368079, 4.230697326484005, 4.347640912659699, 4.4976271832347265, 4.63085746033903, 5.147100845835666]",2017_Feb_28_1210,60.0351653599,famFaceGrey,001,26,
94,./greyInner/JanHofer7_1_cut.png,0,129,129,93,,,1.ja,2.607,None,None,None,None,None,polit,2.274,None,,['return'],[0.6668099488288135],2017_Feb_28_1210,60.0351653599,famFaceGrey,001,26,
114,./greyInner/JoshRadnor(Ted)7_1_cut.png,0,130,130,113,,,1.ja,1.192,None,act,0.643,None,None,None,None,None,Ted Mosby,"['lshift', 't', 'e', 'd', 'space', 'lshift', 'comma', 'backspace', 'lshift', 'm', 'backspace', 'space', 'm', 'lshift', 'backspace', 'lshift', 'm', 'o', 's', 'b', 'y', 'return']","[0.5502586777674878, 0.7002314755409316, 0.8669153574537631, 1.0167531064435025, 1.149879771295673, 1.4333766815343552, 1.5332319451645162, 1.9495642511446931, 2.4494997741712723, 2.5494981061092403, 3.082632854642725, 3.365951731448149, 3.5825244306779496, 3.7156504539689195, 4.082314960711301, 4.382120054198822, 4.482077005395695, 4.715322615827972, 5.515092423411261, 5.68158159127961, 5.814986373225111, 6.148015392354864]",2017_Feb_28_1210,60.0351653599,famFaceGrey,001,26,
171,./greyInner/SahraWagenknecht12_1_cut.png,0,131,131,170,,,1.ja,3.161,None,act,3.561,None,None,None,None,None,,['return'],[0.6674377171675587],2017_Feb_28_1210,60.0351653599,famFaceGrey,001,26,
87,./greyInner/Ice-T(OdafinFinTutuola)12_1_cut.png,0,132,132,86,,,1.ja,1.78,None,act,1.063,None,None,None,None,None,Ice T,"['lshift', 'i', 'c', 'e', 'space', 'lshift', 't', 'return']","[0.5840333843170811, 0.9339162351097912, 1.2504362621075416, 1.366983042236825, 1.5169542361054482, 2.0500164881414094, 2.166701524865857, 2.7662263841066306]",2017_Feb_28_1210,60.0351653599,famFaceGrey,001,26,
76,./greyInner/GeorgeClooney11_1_cut.png,0,133,133,75,,,1.ja,1.579,None,act,0.714,None,None,None,None,None,George Cloony,"['lshift', 'g', 'e', 'o', 'r', 'g', 'e', 'space', 'lshift', 'c', 'l', 'o', 'o', 'n', 'y', 'return']","[0.4501625076354685, 0.650012253832756, 0.8831561767019593, 1.0499808814547578, 1.2997762232025707, 1.4330642408785934, 1.5331726006861572, 1.649702700206035, 1.8661528611100948, 2.016172813686353, 2.466123605885514, 2.7325873679019423, 2.865877631045805, 3.0491760420245555, 3.215782615725402, 3.765483776182009]",2017_Feb_28_1210,60.0351653599,famFaceGrey,001,26,
207,./greyInner/WillSmith14_1_cut.png,0,134,134,206,,,1.ja,1.774,None,dummy,0.409,None,None,None,None,None,Will Smith,"['lshift', 'w', 'i', 'l', 'l', 'space', 'lshift', 's', 'm', 'i', 't', 'h', 'return']","[0.4003121840305539, 0.6169727772448823, 0.7835087791336264, 0.9999717712744314, 1.1333066229708493, 1.299734200894818, 1.3996776792901073, 1.5329579982244468, 1.5830319061569753, 1.732863560308033, 1.932832637025058, 2.0329323357473186, 2.3993989206355764]",2017_Feb_28_1210,60.0351653599,famFaceGrey,001,26,
150,./greyInner/MilaKunis7_3_cut.png,0,135,135,149,,,1.ja,2.357,None,dummy,0.624,None,None,None,None,None,Mila Kunis,"['lshift', 'm', 'i', 'l', 'a', 'space', 'lshift', 'k', 'u', 'n', 'i', 's', 'return']","[0.766810847015222, 2.665839586423317, 2.899272532938994, 3.0656564846522087, 3.1991504437046387, 3.3490424046776752, 3.5488295985887817, 3.6156248556490027, 3.932227323351981, 4.482048776670126, 4.631689566151181, 4.698405911094596, 5.031384888394314]",2017_Feb_28_1210,60.0351653599,famFaceGrey,001,26,
166,./greyInner/RobertSeanLeonard(Wilson)1_1_cut.png,0,136,136,165,,,1.ja,2.167,None,dummy,0.52,None,None,None,None,None,,['return'],[0.8337145280420373],2017_Feb_28_1210,60.0351653599,famFaceGrey,001,26,
3,./greyInner/AlysonHannigan(Lily)14_2_cut.png,0,137,137,2,,,1.ja,1.478,None,dummy,0.495,None,None,None,None,None,Lilly Auldrin,"['lshift', 'l', 'i', 'l', 'l', 'y', 'space', 'lshift', 'a', 'u', 'l', 'd', 'backspace', 'd', 'r', 'o', 'backspace', 'i', 'n', 'return']","[0.5836776382311655, 0.7670081273063261, 0.9669762416797312, 1.20022987163793, 1.3170445038686012, 1.4000879581399204, 1.5334885699339793, 1.6833853426196583, 1.8167429697659827, 1.8999923654137092, 2.0999479693291505, 2.233180812680075, 2.799740295735319, 3.3325571503373794, 3.500614937102, 3.615578342409208, 4.215648208502898, 4.782251638549496, 4.915472613005477, 5.348293060353171]",2017_Feb_28_1210,60.0351653599,famFaceGrey,001,26,
71,./greyInner/GuentherJauch2_1_cut.png,0,138,138,70,,,1.ja,1.013,None,None,None,host,1.144,None,None,None,Günther Jauch,"['lshift', 'g', u'\xfc', 'n', 't', 'h', 'e', 'r', 'space', 'lshift', 'j', 'a', 'u', 'c', 'h', 'return']","[0.48342332308493496, 0.7167420715777553, 1.0499106304250745, 2.18283809030072, 2.416040074524062, 2.599118429763621, 2.6992511689259118, 2.8326527430617716, 2.98248856736609, 3.6487134117232927, 3.8155470983438136, 3.915462989576554, 4.065562495828999, 4.182080405671513, 4.265233567031828, 5.064690292398154]",2017_Feb_28_1210,60.0351653599,famFaceGrey,001,26,
17,./greyInner/BastianSchweinsteiger12_1_cut.png,0,139,139,16,,,1.ja,1.264,None,None,None,None,None,sport,1.563,None,Bastian Schweinsteiger,"['lshift', 'b', 'a', 's', 't', 'i', 'a', 'n', 'space', 'lshift', 's', 'c', 'h', 'w', 'i', 'n', 's', 't', 'e', 'i', 'g', 'e', 'r', 'backspace', 'backspace', 'backspace', 'backspace', 'backspace', 'backspace', 'backspace', 'backspace', 'backspace', 'e', 'i', 'n', 's', 't', 'e', 'i', 'g', 'e', 'r', 'return']","[0.45028985767567065, 0.6835707540139992, 0.866836766117558, 1.0332800623073126, 1.1167299460576032, 1.333271208754013, 1.4500245718209044, 1.5497451074479613, 1.716574303134621, 1.8330967039109964, 2.016003120555979, 2.216182950363873, 2.3160815194241877, 2.466092169352123, 2.5827393539202603, 2.716015823481939, 2.865937937865965, 2.949338421345601, 3.1325964139250573, 3.249128758910956, 3.4323097640590277, 3.532456938362884, 3.6823623721356853, 4.648570984976686, 5.6148719827342575, 5.814926707966151, 5.948015841446249, 6.114729876768251, 6.281213270580338, 6.431205956772828, 6.58139111154378, 6.730890757402449, 7.247596709043137, 7.347374664463132, 7.497490209763782, 7.880414461831606, 7.997103668707496, 8.197248854170539, 8.347044580854345, 8.547225052223439, 8.663748094561015, 8.780331443718751, 9.813370599526024]",2017_Feb_28_1210,60.0351653599,famFaceGrey,001,26,
2,./greyInner/AlysonHannigan(Lily)12_2_cut.png,0,140,140,1,,,1.ja,1.528,None,act,0.616,None,None,None,None,None,Lilly Auldrin,"['lshift', 'k', 'backspace', 'lshift', 'l', 'i', 'l', u'\xf6', 'y', 'backspace', 'backspace', 'l', 'y', 'space', 'lshift', 'a', 'u', 'k', 'd', 'r', 'i', 'backspace', 'backspace', 'backspace', 'backspace', 'l', 'd', 'r', 'i', 'n', 'return']","[0.6833455657815648, 0.9498770125810552, 1.4165347187663428, 1.6663380800364394, 1.8163727885366825, 1.9995169038738823, 2.2328366147085035, 2.383377515565371, 2.51607080534086, 2.982451356776437, 3.115772735671271, 3.532337928627385, 3.64876666136297, 3.982045568860485, 4.131624447616559, 4.315082928294942, 4.515353539112766, 4.748472120285442, 4.898391989201627, 5.131676414132016, 5.281595320704582, 5.631436149191359, 5.7815087098460936, 6.097663367329005, 6.248032971150678, 6.78100315905067, 6.997741381257583, 7.147538070285009, 7.230776559381411, 7.380750961059675, 7.930645552436545]",2017_Feb_28_1210,60.0351653599,famFaceGrey,001,26,
106,./greyInner/JoachimLoew1_1_cut.png,0,141,141,105,,,1.ja,0.953,None,None,None,None,None,sport,1.719,None,Jogi Löw,"['lshift', 'j', 'o', 'g', 'i', 'space', 'lshift', 'l', u'\xf6', 'w', 'return']","[0.5333855992448662, 0.8835000538911117, 1.183531297956506, 1.4333484528087865, 1.682903850398361, 1.9331239061375527, 2.2663492432129715, 2.4157497677551873, 2.6328613789992232, 2.8326992563015665, 3.265898225183264]",2017_Feb_28_1210,60.0351653599,famFaceGrey,001,26,
222,./greyInner/notfamousface7_cut.png,0,142,142,221,,,1.ja,3.129,None,None,None,None,None,sport,2.47,None,,['return'],[0.6003595313013648],2017_Feb_28_1210,60.0351653599,famFaceGrey,001,26,
161,./greyInner/OmarEpps(DrEricForeman)1_5_cut.png,0,143,143,160,,,1.ja,1.666,None,None,None,music,4.413,None,None,None,,['return'],[0.4835105755064433],2017_Feb_28_1210,60.0351653599,famFaceGrey,001,26,
45,./greyInner/CobieSmulders(Robin)5_1_cut.png,0,144,144,44,,,1.ja,1.813,None,act,0.664,None,None,None,None,None,Robin Schabatski,"['lshift', 'r', 'o', 'b', 'i', 'n', 'space', 'lshift', 's', 'c', 'h', 'a', 'b', 'a', 't', 's', 'k', 'i', 'return']","[0.817220291834019, 1.1506849315082945, 1.5338356549327727, 2.017038922280335, 2.200336691696066, 2.466825474628422, 2.7999805606741575, 3.199906524429025, 3.4332169326171424, 3.9494818104376463, 4.082675518511678, 4.249382175870778, 4.415985862542584, 4.532520452994504, 4.666086908544457, 4.848976323799434, 5.149093537162116, 5.298769291768622, 6.798429905511512]",2017_Feb_28_1210,60.0351653599,famFaceGrey,001,26,
146,./greyInner/MilaKunis1_3_cut.png,0,145,145,145,,,1.ja,1.387,None,dummy,0.41,None,None,None,None,None,Mila Kunis,"['lshift', 'm', 'i', 'l', 'a', 'space', 'lshift', 'lshift', 'k', 'i', 'backspace', 'u', 'n', 'i', 's', 'return']","[0.7171035917217523, 0.9003532439946866, 1.0509432243361516, 1.2502688144450076, 1.3501952914484718, 1.716723787063529, 1.899979534175145, 2.666306964283649, 2.799485916433696, 3.1494563404285145, 3.715738989514648, 4.048771216454043, 4.199018281949975, 4.3155512684970745, 4.3988818217276275, 4.615544339627377]",2017_Feb_28_1210,60.0351653599,famFaceGrey,001,26,
115,./greyInner/JoshRadnor(Ted)9_1_cut.png,0,146,146,114,,,1.ja,1.262,None,dummy,0.463,None,None,None,None,None,Ted Mosby,"['lshift', 't', 'e', 'd', 'space', 'lshift', 'm', 'o', 's', 'b', 'y', 'return']","[0.5335941068697139, 0.7337639924662653, 0.9168307995914802, 1.066951156608411, 1.383466371889881, 1.5666926071535272, 1.699973246868467, 1.8833310023255763, 2.116459206927175, 2.232921942444591, 2.982684564532974, 3.3159233744099765]",2017_Feb_28_1210,60.0351653599,famFaceGrey,001,26,
59,./greyInner/ElvisPresley5_2_cut.png,0,147,147,58,,,1.ja,1.33,None,None,None,music,0.766,None,None,None,Elvis Presley,"['lshift', 'e', 'l', 'c', 'i', 'backspace', 'backspace', 'v', 'i', 's', 'space', 'lshift', 'p', 'r', 'e', 's', 'l', 'e', 'x', 'backspace', 'y', 'return']","[0.7668233574731858, 1.1666553324066626, 1.4330761097735376, 1.733035498904428, 1.8996577908710606, 2.366091591946315, 2.499403347414045, 3.0158327858680423, 3.1658508137570607, 3.315544532095373, 3.6823392759069975, 3.815497698076797, 3.998895230372, 4.232082458671357, 4.38202381991141, 4.565235940812272, 4.698585869213275, 4.865213935237989, 5.048262778631397, 5.431661465738216, 5.581539953909669, 5.797862443991107]",2017_Feb_28_1210,60.0351653599,famFaceGrey,001,26,
162,./greyInner/OmarEpps(DrEricForeman)2_2_cut.png,0,148,148,161,,,1.ja,1.402,None,None,None,music,0.619,None,None,None,,['return'],[0.450307179848096],2017_Feb_28_1210,60.0351653599,famFaceGrey,001,26,
173,./greyInner/SahraWagenknecht5_1_cut.png,0,149,149,172,,,1.ja,2.526,None,act,0.661,None,None,None,None,None,,['return'],[0.43357011245279864],2017_Feb_28_1210,60.0351653599,famFaceGrey,001,26,
213,./greyInner/notfamousface12_2_cut.png,0,150,150,212,,,2.nein,2.668,None,None,None,None,None,polit,2.035,None,,['return'],[0.45018015058849414],2017_Feb_28_1210,60.0351653599,famFaceGrey,001,26,
91,./greyInner/JanHofer1_3_cut.png,0,151,151,90,,,2.nein,2.079,None,None,None,None,None,polit,1.079,None,,['return'],[0.5174190477173397],2017_Feb_28_1210,60.0351653599,famFaceGrey,001,26,
122,./greyInner/KaleyCuoco(Penny)14_2_cut.png,0,152,152,121,,,1.ja,3.976,None,dummy,0.694,None,None,None,None,None,Penny,"['lshift', 'p', 'e', 'n', 'n', 'y', 'return']","[0.7332703105676046, 0.9332390665022103, 1.0998895871944114, 1.2497706416143046, 1.3830823970802157, 1.4495562316187716, 1.666161650508002]",2017_Feb_28_1210,60.0351653599,famFaceGrey,001,26,
50,./greyInner/CristinMilioti(Tracy_Mutter)9_1_cut.png,0,153,153,49,,,2.nein,3.284,None,dummy,0.651,None,None,None,None,None,,['return'],[0.5335748600118677],2017_Feb_28_1210,60.0351653599,famFaceGrey,001,26,
35,./greyInner/BritneySpears8_5_cut.png,0,154,154,34,,,1.ja,1.088,None,None,None,music,0.589,None,None,None,Britney Spears,"['lshift', 'b', 'r', 'i', 't', 'n', 'e', 'y', 'space', 'lshift', 's', 'p', 'e', 'a', 'r', 's', 'return']","[0.7331885114217584, 0.8500772440547735, 1.0833478754029784, 1.5829603720030718, 1.7827106761033065, 2.0328508573820727, 2.1662607718244544, 2.3994075817208795, 2.8325815296884684, 3.3487636460213253, 3.69856983016507, 3.865477937968535, 4.048648357344064, 4.215165753937981, 4.2819930890946125, 4.431874143514506, 4.715093578221058]",2017_Feb_28_1210,60.0351653599,famFaceGrey,001,26,
5,./greyInner/AlysonHannigan(Lily)8_3_cut.png,0,155,155,4,,,1.ja,1.958,None,act,1.383,None,None,None,None,None,Lilly Auldrin,"['lshift', 'l', 'i', 'l', 'l', 'y', 'space', 'lshift', 'a', 'u', 'l', 'd', 'r', 'i', 'n', 'return']","[0.7169990171278187, 0.9503982816404459, 1.1501402454359777, 1.400144736369839, 1.5332672310705675, 1.7499387308362202, 2.0663641274495603, 2.199796496559429, 2.4497236792813055, 2.4996092887904524, 2.8160581024130806, 2.9495340977337037, 3.1327462186345656, 3.199283247022322, 3.349282990397114, 4.248890418657538]",2017_Feb_28_1210,60.0351653599,famFaceGrey,001,26,
64,./greyInner/EmilyDeschanel6_12_cut.png,0,156,156,63,,,2.nein,7.136,None,act,0.709,None,None,None,None,None,,['return'],[0.43367019611287105],2017_Feb_28_1210,60.0351653599,famFaceGrey,001,26,
194,./greyInner/TomCruise6_1_cut.png,0,157,157,193,,,1.ja,2.096,None,dummy,1.595,None,None,None,None,None,Tom Cruise,"['lshift', 't', 'o', 'm', 'space', 'lshift', 'c', 'r', 'u', 'i', 's', 'e', 'backspace', 'backspace', 'backspace', 'i', 's', 'e', 'return']","[0.8340920872306015, 0.9674003141080902, 1.2838609966274817, 1.4838599059712578, 1.8170967911628395, 1.9835246898674086, 2.116929151032309, 2.3834009325728402, 2.5833915016137325, 2.749803040489496, 2.8831872924547497, 3.0498394170499523, 3.8661682585952803, 4.016172813684534, 4.216015502701339, 4.932557086178349, 5.0655448528759734, 5.232341008124422, 6.8817973485529365]",2017_Feb_28_1210,60.0351653599,famFaceGrey,001,26,
67,./greyInner/EmmaWatson(HermioneGranger)16_1_cut.png,0,158,158,66,,,1.ja,2.93,None,act,2.081,None,None,None,None,None,Emma Whatson,"['lshift', 'e', 'm', 'n', 'm', 'backspace', 'backspace', 'm', 'a', 'space', 'lshift', 'w', 'h', 'a', 't', 's', 'o', 'n', 'return']","[0.6500966192252235, 0.9667003700524219, 1.1664866016199085, 1.3164937229576026, 1.6163283282949124, 1.7498043236137164, 2.1828438643588015, 2.315521115086085, 2.432747950850171, 2.7157787663527415, 2.91593902852037, 3.065795703587355, 3.1989785051082436, 3.298934814742097, 3.4156394191031723, 4.098697885925503, 4.23209079897606, 4.465248836206229]",2017_Feb_28_1210,60.0351653599,famFaceGrey,001,26,
187,./greyInner/TaylorSwift2_1_cut.png,0,159,159,186,,,1.ja,1.21,None,None,None,music,0.792,None,None,None,Taylor Swift,"['lshift', 't', 'a', 'y', 'l', 'o', 'r', 'space', 'lshift', 's', 'w', 'i', 'f', 't', 'return']","[0.4669059906482289, 0.6335132059102762, 0.7502328869777557, 0.9834079255997494, 1.1499654198123608, 1.3167176280694548, 1.4162383171569672, 1.583212826619274, 1.7830468545507756, 1.8996770377289067, 2.0996788341017236, 2.299546544034456, 2.56611905079626, 2.682695984336533, 3.082538545040734]",2017_Feb_28_1210,60.0351653599,famFaceGrey,001,26,
48,./greyInner/CristinMilioti(Tracy_Mutter)4_2_cut.png,0,160,160,47,,,1.ja,5.676,None,act,1.311,None,None,None,None,None,Mutter aus How i met you mother,"['lshift', 'lshift', 'm', 'u', 't', 't', 'e', 'r', 'space', 'a', 'u', 's', 'space', 'lshift', 'h', 'o', 'w', 'space', 'i', 'space', 'm', 'e', 't', 'space', 'y', 'o', 'u', 'space', 'm', 'o', 't', 'h', 'e', 'r', 'return']","[1.2002314755409316, 4.4322353428760835, 4.565468827790028, 4.748710139758259, 4.965288933826741, 5.081569144977038, 5.181962679060234, 5.331936118396698, 5.464953396942292, 5.714958850217954, 5.8149036117374635, 6.248081088295294, 6.414507703875643, 6.731196140877728, 6.980850339001336, 7.297739905665367, 7.930744673752997, 8.04750798103123, 8.280710286033354, 8.463975656573894, 8.713833550609706, 8.930395343286364, 9.030458472980172, 9.247073836078926, 9.680197421434059, 9.896660092796083, 10.0799799960987, 10.22988029737644, 11.36273301529036, 11.529369742400377, 11.696040793072825, 12.429145580665136, 12.595615822456239, 12.728878177656952, 19.376367168453726]",2017_Feb_28_1210,60.0351653599,famFaceGrey,001,26,
46,./greyInner/CristinMilioti(Tracy_Mutter)10_1_cut.png,0,161,161,45,,,1.ja,2.775,None,act,0.727,None,None,None,None,None,Mutter aus How i met your Mother,"['lshift', 'm', 'u', 't', 't', 'e', 'r', 'space', 'a', 'u', 's', 'space', 'lshift', 'h', 'o', 'w', 'space', 'i', 'space', 'm', 'e', 't', 'space', 'y', 'o', 'u', 't', 'backspace', 'r', 'space', 'lshift', 'm', 'o', 't', 'h', 'e', 'r', 'return']","[0.8167118540113734, 0.9498641813406721, 1.1498810544198932, 1.3664762083171809, 1.5164438735973818, 1.5997635202766105, 1.7493885914900602, 1.7994567253645073, 1.9830868238586845, 2.0828881962879677, 2.1993015315365483, 2.332661404148894, 2.7656679044539487, 2.9655256701753387, 3.265690359121436, 3.3991066891812807, 3.532020034695961, 4.182121786416246, 4.3652758459629695, 4.515111028706087, 4.6484991300421825, 4.748370111939948, 4.931712149129453, 5.581511083624719, 5.7647020329823135, 5.931360252416198, 6.147934876333238, 6.664312027489359, 6.797654257148679, 7.114353921482689, 7.33077938225324, 7.647372868090315, 7.830658447830501, 8.08062284114385, 8.23046476028685, 8.330461809102417, 8.480333881654587, 8.64689682914468]",2017_Feb_28_1210,60.0351653599,famFaceGrey,001,26,
140,./greyInner/LisaEdelstein(DrLisaCuddy)9_1_cut.png,0,162,162,139,,,2.nein,3.045,None,act,1.745,None,None,None,None,None,,['return'],[0.5173051704769023],2017_Feb_28_1210,60.0351653599,famFaceGrey,001,26,
180,./greyInner/Shakira9_1_cut.png,0,163,163,179,,,2.nein,3.375,None,None,None,music,0.66,None,None,None,,['return'],[0.40030352294525073],2017_Feb_28_1210,60.0351653599,famFaceGrey,001,26,
75,./greyInner/GuentherJauch9_1_cut.png,0,164,164,74,,,1.ja,1.455,None,None,None,host,1.055,None,None,None,Günther Jauch,"['lshift', 'g', u'\xfc', 'n', 't', 'h', 'e', 'r', 'space', 'lshift', 'j', 'a', 'u', 'c', 'd', 'h', 'backspace', 'backspace', 'backspace', 'c', 'h', 'return']","[0.4834060009143286, 0.8000286778187728, 1.1333277945159352, 1.399977288709124, 1.6664189168386656, 1.8664082027535187, 1.9492784353078605, 2.0829674291853735, 2.199480206531007, 2.349530954079455, 2.4161337425648526, 2.5328665756514965, 2.649359464578083, 2.7494078383479064, 2.849286839769775, 3.2990955260047485, 3.4490323963109404, 3.7657006241115596, 4.68188793709669, 4.765044306266645, 5.214821876748829]",2017_Feb_28_1210,60.0351653599,famFaceGrey,001,26,
38,./greyInner/CarenMiosga2_11_cut.png,0,165,165,37,,,1.ja,1.743,None,None,None,music,0.554,None,None,None,Adele,"['lshift', 'a', 'd', 'e', 'l', 'e', 'return']","[0.31657776756946987, 0.5168252821586066, 0.8499733110238594, 1.0333233677374665, 1.1666479544437607, 1.3165780883500702, 1.6830196523242194]",2017_Feb_28_1210,60.0351653599,famFaceGrey,001,26,
205,./greyInner/Usher7_1_cut.png,0,166,166,204,,,1.ja,4.643,None,dummy,0.578,None,None,None,None,None,,"['pound', 'return']","[0.633242787562267, 1.516426230644356]",2017_Feb_28_1210,60.0351653599,famFaceGrey,001,26,
63,./greyInner/EmilyDeschanel5_1_cut.png,0,167,167,62,,,2.nein,9.091,None,act,3.077,None,None,None,None,None,,['return'],[0.8837088822965598],2017_Feb_28_1210,60.0351653599,famFaceGrey,001,26,
52,./greyInner/DannFlorek(DonaldDonCragen)10_1_cut.png,0,168,168,51,,,2.nein,2.186,None,None,None,None,None,polit,1.554,None,,['return'],[0.5004545466217678],2017_Feb_28_1210,60.0351653599,famFaceGrey,001,26,
24,./greyInner/BenedictCumberbatch4_1_cut.png,0,169,169,23,,,1.ja,1.181,None,dummy,0.482,None,None,None,None,None,Dominik Cumberbatch,"['lshift', 'd', 'o', 'm', 'i', 'n', 'i', 'k', 'space', 'lshift', 'c', 'u', 'm', 'b', 'e', 'r', 'b', 'a', 't', 'c', 'h', 'return']","[0.666902654527803, 0.9500502342998516, 1.199840764331384, 1.6997689093968802, 1.8997341367412446, 2.0664722306337353, 2.232903978710965, 2.4160554720110667, 2.94943176860761, 3.299261369760643, 3.4324874767116853, 3.765707360511442, 4.032277621807225, 4.29879206721489, 4.515460679953321, 4.681972623269758, 5.081796899459732, 5.265215603300021, 5.431567797697426, 5.998163208219921, 6.098027774498405, 7.28106635289987]",2017_Feb_28_1210,60.0351653599,famFaceGrey,001,26,
22,./greyInner/BenedictCumberbatch2_2_cut.png,0,170,170,21,,,1.ja,1.431,None,act,0.6,None,None,None,None,None,Dominik Cumberbatch,"['lshift', 'd', 'o', 'm', 'i', 'n', 'i', 'k', 'space', 'lshift', 'c', 'u', 'm', 'b', 'e', 'r', 'b', 'a', 't', 's', 'backspace', 'c', 'h', 'return']","[0.533777593578634, 0.7835145531898888, 0.9335482993465121, 1.1016195589127165, 1.2668679460257408, 1.433388229648699, 1.5831839563325047, 1.7667152542890108, 1.9331457192420203, 2.549684479847201, 2.6995196625885, 2.966157929447945, 3.1826379229805752, 3.432691814183272, 3.5824670108850114, 3.73255111965409, 3.88239175567287, 4.098950019759286, 4.298784689251988, 4.498878870543194, 5.198542563783121, 6.331417094801509, 6.4313015495008585, 7.164124049846578]",2017_Feb_28_1210,60.0351653599,famFaceGrey,001,26,
20,./greyInner/BastianSchweinsteiger6_2_cut.png,0,171,171,19,,,1.ja,1.219,None,None,None,None,None,sport,1.276,None,Bastian Schweinsteiger,"['lshift', 'b', 'a', 's', 't', 'i', 'a', 'n', 'space', 'lshift', 's', 'c', 'h', 'w', 'e', 'i', 'n', 's', 't', 'e', 'i', 'g', 'e', 'r', 'return']","[0.6332517694281705, 2.949281001554482, 3.199176106181767, 3.3823487710233167, 3.4822620960076165, 3.7156854190943704, 3.848834538614028, 3.982158804539722, 4.1320857306363905, 4.231946447544033, 4.382012271797066, 4.581841808794707, 4.648564569357404, 4.815040905987189, 5.131733192360116, 5.248237629402865, 5.3982691300934675, 5.548172959961448, 5.631538157536852, 5.798194773065916, 5.914705304947347, 6.114658021833748, 6.197985046474059, 6.314556526736851, 6.864445023275039]",2017_Feb_28_1210,60.0351653599,famFaceGrey,001,26,
9,./greyInner/AngelaMerkel5_1_cut.png,0,172,172,8,,,1.ja,1.21,None,None,None,None,None,polit,1.878,None,Angela Merkel,"['lshift', 'a', 'n', 'g', 'e', 'l', 'a', 'lshift', 'm', 'e', 'r', 'backspace', 'backspace', 'backspace', 'space', 'lshift', 'm', 'e', 'r', 'k', 'e', 'l', 'return']","[0.3835690217965748, 0.566796219403841, 0.733429738704217, 0.9333388293798635, 1.0998767559540283, 1.266684780097421, 1.482998288311137, 1.8326306091748847, 1.9161391958405147, 2.0658621052461967, 2.2159016254609014, 2.6326547960597964, 2.782676031758456, 2.9159595585024363, 3.3487880253742333, 3.4988329988646, 3.648999869121326, 3.848589461958909, 3.998823375435677, 4.232023755754199, 4.365289318762734, 4.4820109245156345, 4.815095117970486]",2017_Feb_28_1210,60.0351653599,famFaceGrey,001,26,
154,./greyInner/NeilPatrickHarris(Barney)2_2_cut.png,0,173,173,153,,,1.ja,1.246,None,act,1.096,None,None,None,None,None,Neil Patrick Harris,"['lshift', 'n', 'e', 'i', 'l', 'space', 'lshift', 'p', 'a', 't', 'r', 'i', 'c', 'k', 'space', 'lshift', 'h', 'a', 'r', 'r', 'i', 's', 'return']","[0.41729368651795085, 0.6340187567038811, 0.8171516447073373, 0.9339239338532934, 1.1002164629917388, 1.3003369483212737, 1.4001604546356248, 1.5334503969988873, 1.6502226861430245, 1.8498571883155819, 2.0333602575483383, 2.1840153564262437, 2.299812792231023, 2.416540172042005, 2.583181069303464, 2.6663467411217425, 2.783077007959946, 2.8496512469391746, 3.016261670010863, 3.13371016542078, 3.382774126577715, 3.515905603144347, 3.8988840671954677]",2017_Feb_28_1210,60.0351653599,famFaceGrey,001,26,
163,./greyInner/OmarEpps(DrEricForeman)3_1_cut.png,0,174,174,162,,,1.ja,2.602,None,None,None,music,0.87,None,None,None,,['return'],[0.5501358186593279],2017_Feb_28_1210,60.0351653599,famFaceGrey,001,26,
197,./greyInner/UrsulavonderLeyen4_1_cut.png,0,175,175,196,,,1.ja,4.878,None,None,None,None,None,polit,1.263,None,Ursula von der Leyen,"['lshift', 'r', 'e', 'n', 'b', 'a', 'backspace', 'backspace', 'a', 't', 'w', 'e', 'backspace', 'backspace', 'backspace', 'backspace', 'backspace', 'backspace', 'backspace', 'lshift', 'u', 'r', 's', 'u', 'l', 'a', 'space', 'v', 'o', 'n', 'space', 'd', 'e', 'r', 'space', 'lshift', 'l', 'e', 'y', 'e', 'r', 'backspace', 'n', 'return']","[0.7673558538681391, 1.400429910643652, 1.6169182444809849, 1.7169175387625728, 1.850032334721618, 2.283474455571195, 2.766706913984308, 2.9664918624293932, 3.0997083459515125, 3.24997048815203, 3.7994538383372856, 4.615880197292427, 4.799076279146902, 4.948915311260862, 5.132308994185223, 5.298619807839714, 5.432266458628874, 24.20801105539431, 24.391261990791463, 24.69114471327339, 24.941011909955705, 25.090970914148784, 25.27438031534075, 25.42415358735707, 25.807457002520096, 26.340481081622784, 26.673942192705, 26.84031620020869, 26.990416027243555, 27.07313677586899, 27.240292847354795, 27.390152409449, 27.506814349942942, 27.773502658632424, 27.923165902780966, 28.073054655942542, 28.273259506664544, 28.48978440953215, 28.639664501608422, 29.25622218829085, 29.55590827204287, 30.022372868090315]",2017_Feb_28_1210,60.0351653599,famFaceGrey,001,26,
19,./greyInner/BastianSchweinsteiger3_1_cut.png,0,176,176,18,,,1.ja,1.395,None,None,None,None,None,sport,2.528,None,Bastian Schwinsteiger,"['lshift', 'b', 'a', 's', 't', 'i', 'a', 'n', 'space', 'lshift', 's', 'c', 'h', 'w', 'i', 'n', 's', 't', 'e', 'i', 'g', 'e', 'r', 'return']","[0.8008408952100581, 1.0174652401765343, 1.1173278817677783, 1.3006779384832043, 1.3506844824150903, 1.5505894029374758, 1.6663448164363217, 1.7830847067034483, 1.9332381041604094, 2.033274288252869, 2.182812748606011, 2.350152948361938, 2.45013780750196, 2.583401445825075, 2.683380851687616, 2.7994185524312343, 2.933144436119619, 3.0499478410165466, 3.199762172996998, 3.283208207374628, 3.466485446810111, 3.5328062688313366, 3.666235109349145, 3.982668846267188]",2017_Feb_28_1210,60.0351653599,famFaceGrey,001,26,
204,./greyInner/Usher4_1_cut.png,0,177,177,203,,,1.ja,1.709,None,None,None,music,1.476,None,None,None,Usher,"['lshift', 'u', 's', 'h', 'e', 'r', 'return']","[1.9329099452352239, 2.166346420341142, 2.41615555566932, 2.5328104389809596, 2.715775879323701, 2.8327258811204956, 3.4490789095489163]",2017_Feb_28_1210,60.0351653599,famFaceGrey,001,26,
83,./greyInner/HughLaurie(DrHouse)5_3_cut.png,0,178,178,82,,,1.ja,1.294,None,act,0.426,None,None,None,None,None,Dr House,"['lshift', 'd', 'r', 'space', 'lshift', 'h', 'o', 'u', 's', 'e', 'return']","[0.5002717014740483, 0.9001149037394498, 1.09979046587614, 1.2499566945698461, 1.4165193212793383, 1.5997603124669695, 1.8010503651767067, 1.9496380307646177, 2.0662771958104713, 2.2163289057007205, 2.4161654998788435]",2017_Feb_28_1210,60.0351653599,famFaceGrey,001,26,
201,./greyInner/Usher1_1_cut.png,0,179,179,200,,,1.ja,1.018,None,None,None,music,0.6,None,None,None,Usher,"['lshift', 'u', 's', 'h', 'e', 'r', 'return']","[0.41691548576636706, 0.6667393770185299, 0.8501567977345985, 0.9665146378774807, 1.099955988853253, 1.2498514784165309, 1.4831602826980088]",2017_Feb_28_1210,60.0351653599,famFaceGrey,001,26,
141,./greyInner/MariskaHargitay(Liv)13_1_cut.png,0,180,180,140,,,1.ja,1.678,None,act,0.412,None,None,None,None,None,Agent Benson,"['lshift', 'a', 'g', 'e', 'n', 't', 'space', 'lshift', 'b', 'e', 'n', 's', 'o', 'n', 'return']","[0.5343036743524863, 0.6841953145449224, 0.817732258245087, 0.9508265242220659, 1.0674506125633343, 1.2340578278253815, 1.4005245410262432, 1.4839683299360331, 1.617310559595353, 1.6421191175177228, 1.800278886967135, 1.9171862248949765, 2.050499584267527, 2.166972584775067, 2.5336095043548994]",2017_Feb_28_1210,60.0351653599,famFaceGrey,001,26,
84,./greyInner/HughLaurie(DrHouse)8_1_cut.png,0,181,181,83,,,1.ja,3.175,None,None,None,music,0.492,None,None,None,,['return'],[0.6667451510747924],2017_Feb_28_1210,60.0351653599,famFaceGrey,001,26,
32,./greyInner/BritneySpears14_2_cut.png,0,182,182,31,,,1.ja,1.427,None,None,None,music,0.577,None,None,None,Britney Spears,"['lshift', 'b', 'r', 'i', 't', 'n', 'e', 'y', 'space', 'lshift', 's', 'p', 'e', 'a', 'r', 's', 'return']","[0.6499278884402884, 0.8000466415523988, 1.0666313379897474, 1.265878015983617, 1.8828344333978748, 2.3818217279058445, 2.516004403682018, 2.698421308581601, 2.8325379034777143, 3.115735525079799, 3.2824020848202053, 3.5489271160004137, 3.848710396383467, 4.731944522858612, 4.865089151444408, 5.015095952001502, 5.28167872375343]",2017_Feb_28_1210,60.0351653599,famFaceGrey,001,26,
126,./greyInner/KatjaBurkard1_1_cut.png,0,183,183,125,,,1.ja,4.425,None,None,None,host,0.41,None,None,None,Katja Burkhard,"['lshift', 'j', 'backspace', 'lshift', 'k', 'a', 't', 'j', 'a', 'space', 'lshift', 'b', 'u', 'r', 'k', 'h', 'a', 'r', 'd', 'return']","[0.5335036466367455, 0.7166015695165697, 1.083331515574173, 1.3332471501817054, 2.3830070135536516, 2.76603904802505, 3.0992428927766014, 3.6654171178979595, 3.7990374646487908, 3.965574749661755, 4.298695512145059, 4.448739844074225, 4.648240259806698, 4.89851998080303, 5.248452231864576, 6.647830622519905, 6.814511938184296, 6.947799955860319, 7.097624873611494, 7.414218038667968]",2017_Feb_28_1210,60.0351653599,famFaceGrey,001,26,
129,./greyInner/KatjaBurkard5_3_cut.png,0,184,184,128,,,1.ja,1.203,None,None,None,host,1.469,None,None,None,Katja Burkhard,"['lshift', 'k', 'a', 't', 'j', 'a', 'space', 'lshift', 'b', 'u', 'r', 'k', 'h', 'a', 'r', 'd', 'return']","[0.4001489065212809, 0.6167751761731779, 0.7668220743489655, 0.9666416671370825, 1.199947905171939, 1.2994217602408753, 1.6831152450504305, 1.866293042388861, 1.9497679470532603, 2.132889607722973, 2.3328657416204805, 2.532607384633593, 2.732723699809867, 2.9326202800293686, 3.0491304911283805, 3.215987273977589, 3.499014240107499]",2017_Feb_28_1210,60.0351653599,famFaceGrey,001,26,
15,./greyInner/BarackObama5_2_cut.png,0,185,185,14,,,1.ja,1.761,None,None,None,None,None,polit,0.944,None,Barak Obama,"['lshift', 'b', 'a', 'r', 'a', 'k', 'space', 'lshift', 'o', 'b', 'a', 'm', 'a', 'return']","[0.3170364843444986, 0.6501270934168133, 0.8334444304728095, 0.9334036271357036, 1.0834126731588185, 1.3166958149631682, 1.4832032673475624, 1.6330920205091388, 1.73310222134387, 1.9831612450416287, 2.14971745613002, 2.265999912748157, 2.399530120050258, 2.7993540754578135]",2017_Feb_28_1210,60.0351653599,famFaceGrey,001,26,
134,./greyInner/LeonardoDiCaprio4_1_cut.png,0,186,186,133,,,1.ja,1.377,None,dummy,0.527,None,None,None,None,None,Leonardo de Caprio,"['lshift', 'l', 'e', 'o', 'n', 'a', 'r', 'd', 'o', 'space', 'd', 'i', 'e', 'backspace', 'backspace', 'e', 'space', 'lshift', 'v', 'a', 'p', 'r', 'i', 'o', 'backspace', 'backspace', 'backspace', 'backspace', 'backspace', 'backspace', 'lshift', 'c', 'a', 'p', 'r', 'i', 'o', 'return']","[0.7165447912866512, 0.916473449602563, 1.1168370868981583, 1.2669407633056835, 1.483526293774048, 1.7002439859988954, 2.0999935202253255, 2.3163942808605498, 2.483097730411828, 2.8664675472318777, 3.049615191159319, 3.2161742892785696, 3.366264172103911, 3.816041742586094, 3.932640810011435, 4.115950769104529, 4.365835287959271, 4.5824246678002964, 4.748982803574108, 4.932171507465682, 5.298819333596839, 5.748586639088899, 5.865273279716348, 5.998289275137722, 6.3650416758628126, 7.181316626205444, 7.364643907470963, 7.547608064691303, 7.681154311039791, 7.831047875917648, 8.247570405004808, 8.4474977801965, 8.74745588620317, 8.947353749545073, 9.247168145680916, 9.380395214975579, 9.530352936044437, 9.896899074610701]",2017_Feb_28_1210,60.0351653599,famFaceGrey,001,26,
152,./greyInner/NeilPatrickHarris(Barney)11_2_cut.png,0,187,187,151,,,1.ja,2.063,None,dummy,0.68,None,None,None,None,None,Neil Patrick Harris,"['lshift', 'n', 'e', 'i', 'l', 'space', 'lshift', 'p', 'a', 'r', 'backspace', 't', 'r', 'i', 'c', 'k', 'space', 'lshift', 'h', 'a', 'r', 'r', 'i', 's', 'return']","[0.8004351072941063, 0.9338299450300838, 1.1170257061021402, 1.2169865066698549, 1.3836100817607075, 1.8001268367916055, 2.0331462966478284, 2.299775581639551, 2.499603514732371, 2.6997461339469737, 3.099693910808128, 3.5660693297468242, 3.732616879749912, 4.099190284699944, 4.36585934652976, 4.499053696166811, 4.665631078798469, 4.898864178774602, 5.048744912413895, 5.1652952211334195, 5.431730112863079, 5.565318381519319, 5.731582361153414, 5.848540703254912, 6.131794140743295]",2017_Feb_28_1210,60.0351653599,famFaceGrey,001,26,
124,./greyInner/KaleyCuoco(Penny)5_2_cut.png,0,188,188,123,,,1.ja,1.201,None,dummy,0.684,None,None,None,None,None,Penny,"['lshift', 'p', 'e', 'n', 'n', 'y', 'return']","[0.5001802789010981, 0.7668300938748871, 0.9000562008259294, 1.0499385383682238, 1.2000775006799813, 1.2500946303844103, 1.4499498298591789]",2017_Feb_28_1210,60.0351653599,famFaceGrey,001,26,
200,./greyInner/UrsulavonderLeyen8_2_cut.png,0,189,189,199,,,1.ja,1.542,None,None,None,None,None,polit,0.808,None,Ursula von der Leiyen,"['lshift', 'u', 'r', 's', 'u', 'l', 'a', 'space', 'v', 'o', 'n', 'space', 'd', 'e', 'r', 'space', 'lshift', 'l', 'e', 'y', 'e', 'r', 'backspace', 'n', 'backspace', 'backspace', 'backspace', 'i', 'y', 'e', 'n', 'return']","[0.8167166657240159, 0.9832799339947087, 1.2998031688021001, 1.4665098261612002, 1.633079510051175, 1.8328426453899738, 1.9495106807225966, 2.1828438643569825, 2.549313336274281, 2.6659980522163096, 2.8826794961933047, 3.032359100170652, 3.1826052033229644, 3.382089259226632, 3.4820808547647175, 3.632169133685238, 3.865328133259027, 4.065389274110203, 4.498603319696485, 4.731846684664561, 4.9482586726335285, 5.064973862767147, 5.598199713092981, 5.8479084439804865, 6.680975636043513, 6.8142845044822025, 6.980817619341906, 8.197124391157558, 9.246846081596232, 9.463235935678313, 9.579755128645047, 10.746217030131447]",2017_Feb_28_1210,60.0351653599,famFaceGrey,001,26,
14,./greyInner/BarackObama4_1_cut.png,0,190,190,13,,,1.ja,1.279,None,None,None,None,None,polit,0.812,None,Barak Obama,"['lshift', 'b', 'a', 'r', 'a', 'k', 'space', 'lshift', 'o', 'b', 'a', 'm', 'a', 'return']","[0.4504569845576043, 0.7005166498147446, 0.8836399143910967, 0.9669804118311731, 1.1167979516212654, 1.333341139003096, 1.4833934904563648, 1.6331160790814465, 1.716595474679707, 1.8831266648539895, 2.0494634617662086, 2.1660923618201195, 2.266324222298863, 2.61601396295373]",2017_Feb_28_1210,60.0351653599,famFaceGrey,001,26,
12,./greyInner/BarackObama11_2_cut.png,0,191,191,11,,,1.ja,1.124,None,None,None,None,None,polit,0.717,None,Barak Obame,"['lshift', 'b', 'a', 'r', 'a', 'k', 'space', 'lshift', 'o', 'b', 'a', 'm', 'e', 'return']","[0.4172487771829765, 0.7172476223713602, 0.9337664304021018, 1.0668603755966615, 1.216917859544992, 1.4501782259030733, 1.7999555397600489, 1.9998023989282956, 2.0998620000318624, 2.4163457787799416, 2.5997157239144144, 2.7327676468030404, 2.93293111678031, 3.299395776983147]",2017_Feb_28_1210,60.0351653599,famFaceGrey,001,26,
