num,pic,trials.thisRepN,trials.thisTrialN,trials.thisN,trials.thisIndex,key_resp_2.keys,key_resp_2.rt,ratingBekannt.response,ratingBekannt.rt,key_resp_5.keys,key_resp_5.rt,ratingK1.response,ratingK1.rt,ratingK2.response,ratingK2.rt,ratingK3.response,ratingK3.rt,key_resp_6.keys,key_resp_6.rt,inputText,key_resp_4.keys,key_resp_4.rt,date,frameRate,expName,session,participant,
,,,,,,space,47.8958927909,,,,,,,,,,,,,,,,2017_Mrz_01_1615,60.0178084617,famFaceGrey,001,27,
16,./greyInner/BastianSchweinsteiger1_1_cut.png,0,0,0,15,,,None,None,1,3.01579254134,None,None,None,None,None,None,5,2.74931842699,Bastian Schweinsteiger,"['lshift', 'lshift', 'b', 'a', 's', 't', 'i', 'a', 'n', 'space', 'lshift', 's', 'c', 'h', 'w', 'e', 'i', 'n', 's', 't', 'e', 'i', 'g', 'e', 'r', 'return']","[1.4997300653321872, 4.315256425102234, 4.381920824937879, 4.5818954193218815, 4.831731421581935, 4.998325859740362, 5.11498479031161, 5.214902959850406, 5.314844225402339, 5.414752450823471, 5.498244542523935, 5.581348172094295, 5.698224590133577, 5.864682697652825, 6.014644156178292, 6.131207174134943, 6.2313344909134685, 6.314468594392565, 6.514395392858205, 6.714311605650437, 6.864108184297038, 7.480742896130323, 7.663804471708318, 7.8138169339335946, 7.91394425071212, 10.163012310496015]",2017_Mrz_01_1615,60.0178084617,famFaceGrey,001,27,
132,./greyInner/LeonardoDiCaprio2_1_cut.png,0,1,1,131,,,None,None,1,2.69950224881,None,None,None,None,None,None,1,2.09940877411,Leonardo Di Caprio,"['lshift', 'l', 'e', 'o', 'n', 'a', 'r', 'd', 'o', 'space', 'lshift', 'd', 'i', 'space', 'lshift', 'c', 'a', 'p', 'r', 'i', 'a', 'backspace', 'o', 'return']","[1.0999531343377384, 1.183468642830121, 1.599861873003647, 1.8328365017114265, 2.032694012134016, 2.132981076345459, 2.232964684590115, 2.3829133119979815, 2.5159328816998823, 2.632854208655772, 2.732544625830087, 2.8161133834664724, 2.96596385281282, 3.0991306596060895, 3.1991893298982177, 3.2657886118049646, 3.4488716795067376, 3.632420516831189, 3.8156405567297043, 4.032195523158407, 4.248502207434285, 4.84862936382342, 5.165075233662719, 5.9646473799975865]",2017_Mrz_01_1615,60.0178084617,famFaceGrey,001,27,
211,./greyInner/notfamousface10_4_cut.png,0,2,2,210,,,None,None,2,6.18123955667,None,None,None,None,None,None,3,11.2793328203,,['return'],[1.4332244505958442],2017_Mrz_01_1615,60.0178084617,famFaceGrey,001,27,
31,./greyInner/BritneySpears1_1_cut.png,0,3,3,30,,,None,None,1,3.14906231786,None,None,None,None,None,None,2,15.0945104944,Britney Spears,"['lshift', 'b', 'r', 'i', 't', 'n', 'e', 'y', 'space', 'lshift', 's', 'p', 'e', 'a', 'r', 's', 'return']","[1.2165302665243871, 1.2999107274890775, 1.5995545677014888, 1.966262176330929, 2.0828139670575183, 2.2327224972177646, 2.3660968473623143, 2.5325122914100575, 2.682728447649424, 2.782484303531419, 2.882556125720839, 3.1657706803152905, 3.315686909147189, 3.499038468015897, 3.6820833631390997, 3.8321805107489126, 6.6477274003091225]",2017_Mrz_01_1615,60.0178084617,famFaceGrey,001,27,
183,./greyInner/SigmarGabriel3_3_cut.png,0,4,4,182,,,None,None,2,9.51345615494,None,None,None,None,None,None,4,3.0159343252,,['return'],[2.066624623366806],2017_Mrz_01_1615,60.0178084617,famFaceGrey,001,27,
15,./greyInner/BarackObama5_2_cut.png,0,5,5,14,,,None,None,1,6.74795127126,None,None,None,None,None,None,4,2.39929319781,Barrack Obama,"['lshift', 'b', 'a', 'r', 'r', 'a', 'c', 'k', 'space', 'lshift', 'o', 'b', 'a', 'm', 'a', 'return']","[1.1000545001779756, 1.15015488764584, 1.3500213798515688, 1.8665233216815977, 2.0165373877953243, 2.1665148852207494, 2.416337094026858, 2.582907473837622, 2.84944830999666, 3.2337682334209603, 3.3992258344314905, 3.7656627064479835, 4.0323042668924245, 4.21555702614387, 4.298762342333248, 5.131899413007886]",2017_Mrz_01_1615,60.0178084617,famFaceGrey,001,27,
137,./greyInner/LisaEdelstein(DrLisaCuddy)10_1_cut.png,0,6,6,136,,,None,None,2,3.44886109383,None,None,None,None,None,None,1,1.5995895325,,['return'],[1.183228059348039],2017_Mrz_01_1615,60.0178084617,famFaceGrey,001,27,
8,./greyInner/AngelaMerkel4_1_cut.png,0,7,7,7,,,None,None,1,1.98298689846,None,None,None,None,None,None,4,2.36613822772,Angela Merkel,"['lshift', 'a', 'n', 'g', 'e', 'l', 'a', 'space', 'lshift', 'm', 'e', 'r', 'k', 'e', 'l', 'return']","[1.0831915227363424, 1.1665838524859282, 1.3664862718251243, 1.499825977947694, 1.6663543358436073, 1.7996500953831855, 1.9328999836725416, 2.0660164283235645, 2.1994680859597793, 2.315870394149897, 2.4491526810143114, 2.5659258085452166, 2.6993046495808812, 2.799031635445317, 2.88253078426078, 4.764797247468778]",2017_Mrz_01_1615,60.0178084617,famFaceGrey,001,27,
80,./greyInner/GeorgeClooney4_2_cut.png,0,8,8,79,,,None,None,1,2.41601310827,None,None,None,None,None,None,1,1.88291603861,George Clouney,"['lshift', 'g', 'e', 'o', 'r', 'g', 'e', 'space', 'lshift', 'c', 'l', 'o', 'u', 'n', 'e', 'y', 'backspace', 'backspace', 'backspace', 'n', 'e', 'y', 'return']","[1.04993390369782, 1.133364726804757, 1.3165225357752206, 1.5998397393232153, 1.6831618186952255, 1.8831043352820416, 1.999644578002517, 2.1493721893839393, 2.1993962316928446, 2.366256915572194, 2.6326524393080035, 2.9825987571139194, 3.132531987177572, 3.3825752120101242, 3.4990554692485603, 3.6653352242128676, 7.280933181627006, 7.447377174914436, 7.61405854390523, 8.613594057395858, 8.980233340315863, 9.313336568913655, 9.646559126919783]",2017_Mrz_01_1615,60.0178084617,famFaceGrey,001,27,
5,./greyInner/AlysonHannigan(Lily)8_3_cut.png,0,9,9,4,,,None,None,2,3.54915681905,None,None,None,None,None,None,1,1.66649932749,,['return'],[2.416147835020638],2017_Mrz_01_1615,60.0178084617,famFaceGrey,001,27,
73,./greyInner/GuentherJauch4_1_cut.png,0,10,10,72,,,None,None,1,2.01617105935,None,None,None,None,None,None,3,1.93298883917,Günther Jauch,"['lshift', 'g', u'\xfc', 'n', 't', 'h', 'e', 'r', 'space', 'lshift', 'j', 'a', 'u', 'c', 'h', 'return']","[0.9500397925085053, 1.0833461377214917, 1.4333347982192208, 1.7163196757837795, 1.86634721457267, 2.01615630355991, 2.1828104064225045, 2.332820943979641, 2.466048698587656, 2.6492908721666026, 2.7158401127089746, 2.7826876767685462, 2.9157928941904174, 3.0158486774807898, 3.132522043060817, 4.031989583697396]",2017_Mrz_01_1615,60.0178084617,famFaceGrey,001,27,
224,./greyInner/notfamousface9_1_cut.png,0,11,11,223,,,None,None,2,5.81463170999,None,None,None,None,None,None,3,4.64863680587,,['return'],[0.9666920188192307],2017_Mrz_01_1615,60.0178084617,famFaceGrey,001,27,
55,./greyInner/DannFlorek(DonaldDonCragen)8_1_cut.png,0,12,12,54,,,None,None,2,5.4314925703,None,None,None,None,None,None,3,5.79807700019,,['return'],[1.0163292028892101],2017_Mrz_01_1615,60.0178084617,famFaceGrey,001,27,
81,./greyInner/HughLaurie(DrHouse)2_1_cut.png,0,13,13,80,,,None,None,2,6.46446116838,None,None,None,None,None,None,1,1.38320233295,,['return'],[0.766552865333324],2017_Mrz_01_1615,60.0178084617,famFaceGrey,001,27,
34,./greyInner/BritneySpears7_1_cut.png,0,14,14,33,,,None,None,1,5.49813868579,None,None,None,None,None,None,1,1.29979364353,Britney Spears,"['lshift', 'b', 'r', 'i', 't', 'n', 'e', 'y', 'space', 'lshift', 's', 'p', 'e', 'a', 'r', 's', 'return']","[0.8166619138055466, 0.9002829582523191, 1.1998356975200295, 1.5998009251870826, 1.7996610018344654, 1.983035977495092, 2.1497577645104684, 2.332952783726796, 2.5161904664137182, 2.616156111093005, 2.6829395195572943, 2.9161117474986895, 3.0993359575104478, 3.3492107739057246, 3.515667919090447, 3.6990400077493177, 4.632105192079507]",2017_Mrz_01_1615,60.0178084617,famFaceGrey,001,27,
62,./greyInner/EmilyDeschanel3_1_cut.png,0,15,15,61,,,None,None,2,3.19901643057,None,None,None,None,None,None,1,1.84992049518,,['return'],[1.9164613954926608],2017_Mrz_01_1615,60.0178084617,famFaceGrey,001,27,
27,./greyInner/Beyonce11_2_cut.png,0,16,16,26,,,None,None,2,3.53223706391,None,None,None,None,None,None,2,1.53300340249,,['return'],[0.8165589440759504],2017_Mrz_01_1615,60.0178084617,famFaceGrey,001,27,
197,./greyInner/UrsulavonderLeyen4_1_cut.png,0,17,17,196,,,None,None,2,5.06501143092,None,None,None,None,None,None,3,6.94725960979,,['return'],[0.8667741700583065],2017_Mrz_01_1615,60.0178084617,famFaceGrey,001,27,
138,./greyInner/LisaEdelstein(DrLisaCuddy)2_2_cut.png,0,18,18,137,,,None,None,2,5.91478982146,None,None,None,None,None,None,2,3.34877291197,,['return'],[0.6168342357350411],2017_Mrz_01_1615,60.0178084617,famFaceGrey,001,27,
69,./greyInner/EmmaWatson(HermioneGranger)4_1_cut.png,0,19,19,68,,,None,None,2,3.48247990887,None,None,None,None,None,None,1,2.21602183343,,"['lshift', 'a', 'u', 's', 'space', 'lshift', 't', 'w', 'i', 'l', 'i', 'backspace', 'backspace', 'backspace', 'backspace', 'backspace', 'backspace', 'backspace', 'backspace', 'backspace', 'return']","[1.9161248993959816, 1.9994033529637818, 2.1827263625928026, 2.282745897971836, 2.7659421040661982, 3.132160205503169, 3.2157132450192876, 3.399021178082876, 3.5153644631254792, 4.16532479892885, 4.381752416500603, 7.263856566052709, 8.363739770791653, 8.530201086090528, 8.680225417099791, 8.846728112757773, 8.97973036044823, 9.14664397269462, 9.279788645806548, 9.44655534173944, 9.86309484666981]",2017_Mrz_01_1615,60.0178084617,famFaceGrey,001,27,
77,./greyInner/GeorgeClooney15_1_cut.png,0,20,20,76,,,None,None,1,1.56659366829,None,None,None,None,None,None,1,1.0997876129,George Clouney,"['lshift', 'g', 'e', 'o', 'r', 'g', 'e', 'space', 'lshift', 'c', 'l', 'o', 'o', 'n', 'e', 'y', 'backspace', 'backspace', 'backspace', 'backspace', 'u', 'n', 'e', 'y', 'return']","[0.6499375605662863, 0.7664543864939333, 1.1498880003691738, 1.349707338213193, 1.4663197559775654, 1.683043451622325, 1.7995987709064138, 1.8994620874109387, 1.9826844048329804, 2.066097264372729, 2.232412625692632, 2.4659816559906176, 2.599237318282576, 2.7658336811100526, 2.8825914112976534, 3.032336665467483, 3.7654089710686094, 3.8986588593579654, 4.065272544195977, 4.1985365467153315, 4.481742440305425, 4.698262762713057, 4.781522611157925, 4.931465143783498, 5.498016469382492]",2017_Mrz_01_1615,60.0178084617,famFaceGrey,001,27,
191,./greyInner/TomCruise1_1_cut.png,0,21,21,190,,,None,None,1,9.81308876793,None,None,None,None,None,None,1,2.0992515929,der von Scientology,"['d', 'e', 'r', 'space', 'v', 'o', 'n', 'space', 'lshift', 's', 'c', 'i', 'e', 'n', 't', 'o', 'l', 'o', 'g', 'y', 'return']","[27.556172554172008, 27.75611250453494, 27.855584151129733, 27.955849081660745, 28.056051781263704, 28.17259555254168, 28.25565170697155, 28.322460777674678, 28.43907479932932, 28.455768726777933, 28.70554185655419, 28.872277437022603, 29.022065354663027, 29.155475631941044, 29.4554315891246, 30.505009750047066, 30.704982098985056, 30.854827115105763, 30.971563353169586, 31.337916181356377, 34.653195060917824]",2017_Mrz_01_1615,60.0178084617,famFaceGrey,001,27,
42,./greyInner/CobieSmulders(Robin)2_1_cut.png,0,22,22,41,,,None,None,2,4.29871230097,None,None,None,None,None,None,1,1.79941721057,,['return'],[0.7340038448446649],2017_Mrz_01_1615,60.0178084617,famFaceGrey,001,27,
65,./greyInner/EmilyDeschanel8_3_cut.png,0,23,23,64,,,None,None,1,3.34926562694,None,None,None,None,None,None,2,1.89936296702,Adele,"['lshift', 'a', 'd', 'e', 'l', 'e', 'return']","[0.7170026120957118, 0.7837420739779191, 0.983590281839497, 1.1500932982744416, 1.2501728191355141, 1.3167910269421554, 2.566340895246867]",2017_Mrz_01_1615,60.0178084617,famFaceGrey,001,27,
110,./greyInner/JoachimLoew8_1_cut.png,0,24,24,109,,,None,None,1,1.69970754672,None,None,None,None,None,None,5,1.68293727411,Joachim Löw,"['lshift', 'j', 'o', 'a', 'c', 'h', 'i', 'm', 'space', 'lshift', 'l', u'\xf6', 'w', 'return']","[0.8167125967265747, 1.0833105313658962, 1.249931594096779, 1.4330765719487317, 1.6164444904943593, 2.1161703857133034, 2.299503339459079, 2.4494121903971973, 2.5660570067375374, 2.699094540005717, 3.16564140679111, 3.365696516447315, 3.4823175952178644, 4.348600012638599]",2017_Mrz_01_1615,60.0178084617,famFaceGrey,001,27,
32,./greyInner/BritneySpears14_2_cut.png,0,25,25,31,,,None,None,1,2.29967014401,None,None,None,None,None,None,2,2.41609458588,Britney Spears,"['lshift', 'b', 'r', 'i', 't', 'n', 'e', 'y', 'space', 'lshift', 's', 'p', 'e', 'a', 'r', 's', 'return']","[0.8498871342690109, 0.9166933179694752, 1.1331610327888484, 1.2999521078472753, 1.4667900164904495, 1.6162879508410697, 1.7830694025606135, 2.066116511051405, 2.31612380875049, 2.482710548238174, 2.5327551203381518, 2.832213871658496, 3.0657694292813176, 3.215765852606637, 3.382438239813382, 3.548861061755815, 5.281455408171496]",2017_Mrz_01_1615,60.0178084617,famFaceGrey,001,27,
24,./greyInner/BenedictCumberbatch4_1_cut.png,0,26,26,23,,,None,None,2,3.53236890365,None,None,None,None,None,None,1,3.69851361109,,['return'],[0.817319829436201],2017_Mrz_01_1615,60.0178084617,famFaceGrey,001,27,
145,./greyInner/MariskaHargitay(Liv)8_8_cut.png,0,27,27,144,,,None,None,2,4.71519727364,None,None,None,None,None,None,2,2.59954526514,,['return'],[0.7668720394203774],2017_Mrz_01_1615,60.0178084617,famFaceGrey,001,27,
12,./greyInner/BarackObama11_2_cut.png,0,28,28,11,,,None,None,1,1.68314128891,None,None,None,None,None,None,4,1.68329590389,Barrack Obama,"['lshift', 'b', 'a', 'r', 'r', 'a', 'c', 'k', 'space', 'lshift', 'o', 'b', 'a', 'm', 'a', 'return']","[0.7834572231340644, 0.8002454593079165, 0.9834866705523382, 1.2668083649914479, 1.483329008176952, 1.6665092716066283, 1.8330094010407265, 1.9998046462123966, 2.083062569990034, 2.466268752279575, 2.6161535448700306, 2.7992799175990513, 2.9658195027241163, 3.082627595053964, 3.1826753588948122, 4.015420438882757]",2017_Mrz_01_1615,60.0178084617,famFaceGrey,001,27,
157,./greyInner/NicoleKidman3_1_cut.png,0,29,29,156,,,None,None,2,5.23177844763,None,None,None,None,None,None,1,6.63095456148,Kim Basinger,"['lshift', 'k', 'i', 'm', 'space', 'lshift', 'b', 'a', 's', 'i', 'n', 'g', 'e', 'r', 'lshift', u'?', 'return']","[0.7669750091499736, 0.9165005304057559, 1.066933211779542, 1.25009551164203, 1.3500749497734432, 1.4334121057117954, 1.5333623530468685, 1.683304244116698, 1.8497004414866751, 1.933180664401334, 2.0665787521156744, 2.1664231427193954, 2.3163929414731683, 2.416305337007543, 2.7161169441014863, 2.866103423310051, 3.7991073390467136]",2017_Mrz_01_1615,60.0178084617,famFaceGrey,001,27,
9,./greyInner/AngelaMerkel5_1_cut.png,0,30,30,8,,,None,None,1,1.53304317896,None,None,None,None,None,None,4,2.21605968523,Angela Merkel,"['lshift', 'a', 'n', 'g', 'e', 'l', 'a', 'space', 'lshift', 'm', 'e', 'r', 'k', 'e', 'l', 'return']","[0.7165881669488954, 0.8166641592515589, 1.0167397986988362, 1.0831960136274574, 1.1998466039713094, 1.2832928244206414, 1.4161956309399102, 1.4664612190654225, 1.5662542851923718, 1.6330290326523027, 1.716307165442231, 1.7832628316800765, 1.8826228475390963, 1.982934611654855, 2.8158121729466075, 3.548897630445026]",2017_Mrz_01_1615,60.0178084617,famFaceGrey,001,27,
10,./greyInner/AngelaMerkel6_1_cut.png,0,31,31,9,,,None,None,1,2.44948083688,None,None,None,None,None,None,4,3.06586790812,Angela Merkel,"['lshift', 'a', 'n', 'g', 'e', 'l', 'a', 'space', 'lshift', 'm', 'e', 'r', 'k', 'e', 'l', 'return']","[0.6667761588823851, 0.7335537933440719, 0.9334812333654554, 1.0001125930693888, 1.1168918153816776, 1.2000769225587646, 1.3167320037937316, 1.3831856524993782, 1.4831365413911044, 1.5500293351460641, 1.6495843840148154, 1.733171425996261, 1.8165085819337037, 1.9163786347753557, 2.066456535706493, 2.8160591719888544]",2017_Mrz_01_1615,60.0178084617,famFaceGrey,001,27,
53,./greyInner/DannFlorek(DonaldDonCragen)2_1_cut.png,0,32,32,52,,,None,None,2,3.01585765926,None,None,None,None,None,None,3,1.21653636131,,['return'],[1.3503411954943658],2017_Mrz_01_1615,60.0178084617,famFaceGrey,001,27,
117,./greyInner/JudithRakers2_1_cut.png,0,33,33,116,,,None,None,2,2.46608045561,None,None,None,None,None,None,2,3.1156651604,,['return'],[0.8999028363514299],2017_Mrz_01_1615,60.0178084617,famFaceGrey,001,27,
131,./greyInner/LeonardoDiCaprio1_1_cut.png,0,34,34,130,,,None,None,1,1.58316858711,None,None,None,None,None,None,1,1.89968085799,Leonardo Di Caprio,"['lshift', 'l', 'e', 'o', 'n', 'a', 'r', 'd', 'o', 'space', 'lshift', 'd', 'i', 'space', 'lshift', 'a', 'backspace', 'lshift', 'c', 'a', 'p', 'r', 'i', 'o', 'return']","[0.800195417942632, 0.9001299471583479, 1.0500577239963604, 1.1500211232296351, 1.3498119118330578, 1.4499267182709445, 1.5665182854672821, 1.7161669854667707, 1.816413631652722, 1.9330359935338493, 2.033025375782927, 2.1158739868624252, 2.199467765180998, 2.3328527009989557, 2.432868387041708, 2.632711141677646, 2.9991765629347356, 3.13236422029604, 3.1657158272810193, 3.365650645196183, 3.565513608845322, 3.7319742825875437, 3.8154853001888114, 4.065597492285633, 5.4316593748480955]",2017_Mrz_01_1615,60.0178084617,famFaceGrey,001,27,
3,./greyInner/AlysonHannigan(Lily)14_2_cut.png,0,35,35,2,,,None,None,2,5.11474131983,None,None,None,None,None,None,5,3.79867172255,,['return'],[0.7841135348735406],2017_Mrz_01_1615,60.0178084617,famFaceGrey,001,27,
202,./greyInner/Usher11_1_cut.png,0,36,36,201,,,None,None,1,3.21582583809,None,None,None,None,None,None,2,1.49956261923,NeYo,"['lshift', 'n', 'e', 'minus', 'lshift', 'j', 'o', 'backspace', 'backspace', 'lshift', 'y', 'o', 'return']","[1.0666727400630407, 1.1998135638405074, 1.5163534216271728, 1.7997055899732004, 2.2327571412397447, 2.299484092781313, 2.6492203010120647, 4.065544563920412, 4.198668707243087, 4.648432470301486, 4.814935165959469, 5.098255898064963, 6.697649756000828]",2017_Mrz_01_1615,60.0178084617,famFaceGrey,001,27,
116,./greyInner/JudithRakers1_1_cut.png,0,37,37,115,,,None,None,2,6.03119469587,None,None,None,None,None,None,1,1.16635449623,,['return'],[0.7332817736196375],2017_Mrz_01_1615,60.0178084617,famFaceGrey,001,27,
168,./greyInner/RobertSeanLeonard(Wilson)11_2_cut.png,0,38,38,167,,,None,None,2,2.582803221,None,None,None,None,None,None,1,0.966905015395,,['return'],[0.6834819551158944],2017_Mrz_01_1615,60.0178084617,famFaceGrey,001,27,
107,./greyInner/JoachimLoew12_1_cut.png,0,39,39,106,,,None,None,1,1.69971845317,None,None,None,None,None,None,5,1.89978158228,Joachim Löw,"['lshift', 'j', 'o', 'a', 'c', 'h', 'i', 'm', 'space', 'lshift', 'l', u'\xf6', 'l', 'w', 'backspace', 'backspace', 'w', 'return']","[1.033842397288936, 1.117325827984132, 1.2672552087124132, 1.483886520300075, 1.7338168312844573, 1.8169422737573768, 1.917163257705397, 2.0503570098489945, 2.1668080762910904, 2.2499880510204093, 2.4169427228462155, 2.600402383893197, 2.7332346192570185, 3.316468965853346, 3.4497740279539357, 3.999528777152591, 4.782529212448026]",2017_Mrz_01_1615,60.0178084617,famFaceGrey,001,27,
50,./greyInner/CristinMilioti(Tracy_Mutter)9_1_cut.png,0,40,40,49,,,None,None,2,2.69923183298,None,None,None,None,None,None,2,2.38269903231,,['return'],[1.0000933463916226],2017_Mrz_01_1615,60.0178084617,famFaceGrey,001,27,
101,./greyInner/JimParsons(SheldonCooper)1_1_cut.png,0,41,41,100,,,None,None,2,3.66553795589,None,None,None,None,None,None,4,2.63270665079,,['return'],[0.9506005124112562],2017_Mrz_01_1615,60.0178084617,famFaceGrey,001,27,
210,./greyInner/WillSmith6_1_cut.png,0,42,42,209,,,None,None,1,2.73253692716,None,None,None,None,None,None,1,1.09992137732,Will Smith,"['lshift', 'w', 'i', 'l', 'l', 'space', 'lshift', 's', 'm', 'i', 't', 'h', 'return']","[0.6669343024250338, 0.8336894503499934, 1.0501828274072977, 1.2668628972469378, 1.3665436910832796, 1.5167037111759782, 1.6164541138332424, 1.6998557461438395, 1.7996940419661769, 1.9496753887260638, 2.0499088830156325, 2.132958621886246, 3.1159987694954907]",2017_Mrz_01_1615,60.0178084617,famFaceGrey,001,27,
93,./greyInner/JanHofer5_1_cut.png,0,43,43,92,,,None,None,2,2.9158015552,None,None,None,None,None,None,3,1.5330775022,,['return'],[0.6999487717566808],2017_Mrz_01_1615,60.0178084617,famFaceGrey,001,27,
180,./greyInner/Shakira9_1_cut.png,0,44,44,179,,,None,None,2,2.71599376536,None,None,None,None,None,None,1,1.13341059805,,['return'],[1.4497332891514816],2017_Mrz_01_1615,60.0178084617,famFaceGrey,001,27,
158,./greyInner/NicoleKidman5_1_cut.png,0,45,45,157,,,None,None,2,3.94898956541,None,None,None,None,None,None,1,1.10004583917,Kim Basinger,"['lshift', 'k', 'i', 'm', 'space', 'lshift', 'b', 'a', 's', 'i', 'n', 'g', 'r', 'e', 'backspace', 'backspace', 'e', 'r', 'return']","[0.7169169643757414, 0.783639745803157, 0.9501126091090555, 1.099881600849585, 1.1832845162716694, 1.2834429485146757, 1.3832793196688726, 1.5332362873032253, 1.716522086686382, 1.816227259648258, 1.8997588070396887, 2.0162265539374857, 2.2498388892618095, 3.049261232281424, 3.1992031233512535, 3.3324719375414134, 3.432188337732441, 4.015644662687919]",2017_Mrz_01_1615,60.0178084617,famFaceGrey,001,27,
133,./greyInner/LeonardoDiCaprio3_1_cut.png,0,46,46,132,,,None,None,1,1.46643427372,None,None,None,None,None,None,1,1.16639395192,Leonardo Di Caprio,"['lshift', 'l', 'o', 'backspace', 'e', 'o', 'n', 'a', 'r', 'd', 'o', 'space', 'lshift', 'd', 'i', 'space', 'lshift', 'c', 'a', 'p', 'r', 'i', 'o', 'return']","[0.566830402438427, 0.8667587727168211, 1.0499233180253214, 1.3666139414599456, 1.5164211057799548, 1.6496735602922854, 1.9495101880693255, 2.099628186248083, 2.2992797572096606, 2.466030414243505, 2.5827711431984426, 2.7156723458274428, 2.7991881750976972, 2.8825490686049307, 2.999205753730166, 3.1155365284321306, 3.198990447553115, 3.315694928596713, 3.5154129005995856, 3.632107116748557, 3.8156116867121455, 3.8987121085028775, 4.698471589175824, 4.998317519513876]",2017_Mrz_01_1615,60.0178084617,famFaceGrey,001,27,
6,./greyInner/AngelaMerkel1_1_cut.png,0,47,47,5,,,None,None,1,1.33309168059,None,None,None,None,None,None,4,2.06633271541,Angela Merkel,"['lshift', 'a', 'n', 'g', 'l', 'backspace', 'e', 'l', 'a', 'space', 'lshift', 'm', 'e', 'r', 'k', 'e', 'l', 'return']","[0.7500356865502908, 0.866664463991583, 1.049528440335962, 1.1329489985473629, 1.3497618704695924, 1.7163565652508623, 1.8162349583199102, 1.932765577700593, 2.1160205823980505, 2.141079757915577, 2.2825874336513152, 2.399408677878455, 2.4494513253102923, 2.565900787863029, 2.6991773007239317, 2.8491811019430315, 2.9325330136671255, 3.748798445894863]",2017_Mrz_01_1615,60.0178084617,famFaceGrey,001,27,
209,./greyInner/WillSmith5_1_cut.png,0,48,48,208,,,None,None,1,1.43300375535,None,None,None,None,None,None,1,0.71650251923,Will Smith,"['lshift', 'w', 'i', 'l', 'l', 'space', 'lshift', 's', 'm', 't', 'i', 'h', 'backspace', 'backspace', 'backspace', 'o', 't', 'h', 'backspace', 'backspace', 'backspace', 'i', 't', 'h', 'return']","[0.5671367454060601, 0.6672602128492144, 0.8336814309004694, 1.0336893861949648, 1.166731089577297, 1.2669299398448857, 1.366911623422311, 1.4502090028909151, 1.5501637411180127, 1.7667154997670877, 1.8501655695527006, 1.999918843172054, 2.5331095800020194, 2.666271575126302, 2.7829638666062237, 3.0996448667028744, 3.2995190575802553, 3.399421508997875, 3.749249780507853, 3.8990742668383973, 4.015865357935581, 4.615556256277159, 4.84854564077159, 4.915476286328158, 5.6983265975304676]",2017_Mrz_01_1615,60.0178084617,famFaceGrey,001,27,
176,./greyInner/Shakira1_1_cut.png,0,49,49,175,,,None,None,2,2.78392331353,None,None,None,None,None,None,2,4.49860958786,,['return'],[0.8167950366669174],2017_Mrz_01_1615,60.0178084617,famFaceGrey,001,27,
112,./greyInner/JoshRadnor(Ted)3_1_cut.png,0,50,50,111,,,None,None,2,3.71536087041,None,None,None,None,None,None,1,4.23205367514,,['return'],[0.7335101675389524],2017_Mrz_01_1615,60.0178084617,famFaceGrey,001,27,
28,./greyInner/Beyonce3_2_cut.png,0,51,51,27,,,None,None,2,2.21592046759,None,None,None,None,None,None,1,0.96684406758,,['return'],[0.7667392373377879],2017_Mrz_01_1615,60.0178084617,famFaceGrey,001,27,
178,./greyInner/Shakira3_1_cut.png,0,52,52,177,,,None,None,1,1.94964427326,None,None,None,None,None,None,2,1.24993127332,Britney Spears,"['lshift', 'b', 'r', 'i', 't', 'n', 'e', 'y', 'space', 'lshift', 's', 'p', 'e', 'a', 'r', 's', 'return']","[0.9671674117807925, 1.1005523475978407, 1.3503508188341584, 1.5166491789213978, 1.7168476763326908, 1.8167773938785103, 2.2331895499519305, 2.483180167196224, 2.6832275781807766, 3.032884233473851, 3.0829637703736807, 3.2829694802212543, 3.3660673357881024, 3.5662106593881617, 3.71600852114625, 3.8827396107235472, 4.199333359209959]",2017_Mrz_01_1615,60.0178084617,famFaceGrey,001,27,
44,./greyInner/CobieSmulders(Robin)4_7_cut.png,0,53,53,43,,,None,None,2,2.29924735863,None,None,None,None,None,None,1,1.383271621,,['return'],[0.6169538859203385],2017_Mrz_01_1615,60.0178084617,famFaceGrey,001,27,
124,./greyInner/KaleyCuoco(Penny)5_2_cut.png,0,54,54,123,,,None,None,2,7.38078366701,None,None,None,None,None,None,2,1.58302519936,,['return'],[0.9499214254346953],2017_Mrz_01_1615,60.0178084617,famFaceGrey,001,27,
194,./greyInner/TomCruise6_1_cut.png,0,55,55,193,,,None,None,1,4.04865111257,None,None,None,None,None,None,1,1.13334066846,Scientology,"['lshift', 's', 'c', 'i', 'e', 'n', 't', 'o', 'l', 'o', 'g', 'y', 'return']","[0.9169855467071102, 1.3501278781404835, 1.6497861533625837, 1.7999541929048064, 1.9666278632239482, 2.0998299555949416, 2.366408001998934, 2.4997098563208056, 2.69962478600155, 2.832783252567424, 2.9661537533747833, 3.1493099584558877, 5.198606155537163]",2017_Mrz_01_1615,60.0178084617,famFaceGrey,001,27,
47,./greyInner/CristinMilioti(Tracy_Mutter)2_1_cut.png,0,56,56,46,,,None,None,2,3.1156680474,None,None,None,None,None,None,1,1.44976921628,,['return'],[0.7003362715531694],2017_Mrz_01_1615,60.0178084617,famFaceGrey,001,27,
218,./greyInner/notfamousface3_3_cut.png,0,57,57,217,,,None,None,2,2.34960468926,None,None,None,None,None,None,3,2.39944171801,,['return'],[0.7835181709497192],2017_Mrz_01_1615,60.0178084617,famFaceGrey,001,27,
99,./greyInner/JasonSegel(Marshall)7_1_cut.png,0,58,58,98,,,None,None,2,2.96567803964,None,None,None,None,None,None,3,2.815898783,,['return'],[0.8168017730040447],2017_Mrz_01_1615,60.0178084617,famFaceGrey,001,27,
75,./greyInner/GuentherJauch9_1_cut.png,0,59,59,74,,,None,None,1,1.4829646044,None,None,None,None,None,None,3,1.89958013371,Günther Jauch,"['lshift', 'g', u'\xfc', 'n', 't', 'e', 'h', 'backspace', 'backspace', 'h', 'e', 'r', 'space', 'lshift', 'j', 'a', 'u', 'c', 'h', 'return']","[0.7835271527328587, 0.866766150609692, 1.1161164950135571, 1.3831349695792596, 1.5497589193118984, 1.7497505149294739, 1.8663857079300215, 2.2995341341447784, 2.4494888563340282, 2.6494012197908887, 2.7658971951495914, 2.865928278535648, 2.932473990519611, 3.0157790686598673, 3.115972786479688, 3.24895257971275, 3.3322252592770383, 3.5489791080517534, 3.649036495231485, 4.382119065728148]",2017_Mrz_01_1615,60.0178084617,famFaceGrey,001,27,
169,./greyInner/RobertSeanLeonard(Wilson)2_6_cut.png,0,60,60,168,,,None,None,2,2.16762124846,None,None,None,None,None,None,4,2.76604154524,,['return'],[0.7338585324214364],2017_Mrz_01_1615,60.0178084617,famFaceGrey,001,27,
213,./greyInner/notfamousface12_2_cut.png,0,61,61,212,,,None,None,2,2.13289093773,None,None,None,None,None,None,1,1.38314715914,,['return'],[0.600276959704388],2017_Mrz_01_1615,60.0178084617,famFaceGrey,001,27,
54,./greyInner/DannFlorek(DonaldDonCragen)5_1_cut.png,0,62,62,53,,,None,None,2,1.98351169123,None,None,None,None,None,None,4,2.46589344205,,['return'],[0.7167607455003235],2017_Mrz_01_1615,60.0178084617,famFaceGrey,001,27,
172,./greyInner/SahraWagenknecht2_2_cut.png,0,63,63,171,,,None,None,1,2.0994671557,None,None,None,None,None,None,4,2.33286841912,Sahra Wagenknecht,"['lshift', 's', 'a', 'a', 'backspace', 'r', 'a', 'h', 'space', 'lshift', 'w', 'backspace', 'backspace', 'backspace', 'backspace', 'backspace', 'h', 'r', 'a', 'space', 'lshift', 'w', 'a', 'g', 'e', 'n', 'k', 'n', 'e', 'c', 'h', 't', 'return']","[1.0834272945485282, 1.200255275112795, 1.433376178578328, 1.666580163539038, 2.166434690726419, 2.332957916174564, 2.4495947130653803, 2.599593381836712, 2.7328387792340436, 2.8328345770423766, 2.8993713072432, 3.699071764769542, 3.849052469973685, 3.982219276766955, 4.132271194682289, 4.465435371096646, 4.898484356139306, 5.065227635278461, 5.19842716142557, 5.515103670630197, 5.664845075464655, 5.848313076738123, 6.264717854918672, 6.548016132565863, 6.664584282969372, 6.797677631606348, 7.181144606390262, 7.347523802527576, 7.580799000198567, 7.864106901184641, 7.997438908635559, 8.147289377981906, 12.412250382607454]",2017_Mrz_01_1615,60.0178084617,famFaceGrey,001,27,
134,./greyInner/LeonardoDiCaprio4_1_cut.png,0,64,64,133,,,None,None,1,1.54973389863,None,None,None,None,None,None,1,0.950215578839,Leonardo Di Caprio,"['lshift', 'l', 'e', 'o', 'n', 'a', 'r', 'd', 'o', 'space', 'lshift', 'd', 'i', 'space', 'c', 'lshift', 'backspace', 'lshift', 'c', 'a', 'p', 'r', 'i', 'o', 'return']","[0.683226936625033, 0.7833555365159555, 0.9331254905901005, 1.0333188876320492, 1.2498597398298443, 1.3997762894396146, 1.5163274386104604, 1.6662144766460187, 1.8327027372952216, 1.9161797524302528, 2.0328107753175573, 2.0996236953560583, 2.2160452502248518, 2.332688783452795, 2.5159662426094656, 2.5421029113495024, 3.032256470974062, 3.148964480576069, 3.2156818087778447, 3.9487987025177063, 4.1318740715487365, 4.2484409388407585, 4.381861481013402, 4.548454636060342, 5.064891780738435]",2017_Mrz_01_1615,60.0178084617,famFaceGrey,001,27,
151,./greyInner/NeilPatrickHarris(Barney)1_1_cut.png,0,65,65,150,,,None,None,2,3.19902445002,None,None,None,None,None,None,3,3.09933050428,,['return'],[0.6834909368999433],2017_Mrz_01_1615,60.0178084617,famFaceGrey,001,27,
203,./greyInner/Usher2_1_cut.png,0,66,66,202,,,None,None,1,9.42997176192,None,None,None,None,None,None,2,1.56640120151,NeYo,"['lshift', 'n', 'e', 'lshift', 'y', 'o', 'return']","[0.766898663991924, 0.9169582805789105, 1.1502116653473422, 1.4498949612516299, 1.6166173898227498, 2.2162653039158613, 2.7160357872735403]",2017_Mrz_01_1615,60.0178084617,famFaceGrey,001,27,
114,./greyInner/JoshRadnor(Ted)7_1_cut.png,0,67,67,113,,,None,None,2,2.33296561485,None,None,None,None,None,None,3,2.56605476129,,['return'],[0.600227880674538],2017_Mrz_01_1615,60.0178084617,famFaceGrey,001,27,
66,./greyInner/EmmaWatson(HermioneGranger)11_2_cut.png,0,68,68,65,,,None,None,2,2.23276131135,None,None,None,None,None,None,5,1.96637092006,,['return'],[0.6998024969998369],2017_Mrz_01_1615,60.0178084617,famFaceGrey,001,27,
155,./greyInner/NeilPatrickHarris(Barney)3_7_cut.png,0,69,69,154,,,None,None,2,3.26597530459,None,None,None,None,None,None,4,3.83246504081,,['return'],[0.6670023073565972],2017_Mrz_01_1615,60.0178084617,famFaceGrey,001,27,
146,./greyInner/MilaKunis1_3_cut.png,0,70,70,145,,,None,None,2,2.24971410663,None,None,None,None,None,None,2,1.64929600461,,['return'],[0.633066884453001],2017_Mrz_01_1615,60.0178084617,famFaceGrey,001,27,
187,./greyInner/TaylorSwift2_1_cut.png,0,71,71,186,,,None,None,2,2.5992793402,None,None,None,None,None,None,1,1.44986031723,,['return'],[0.7333577980007249],2017_Mrz_01_1615,60.0178084617,famFaceGrey,001,27,
48,./greyInner/CristinMilioti(Tracy_Mutter)4_2_cut.png,0,72,72,47,,,None,None,2,3.13240656299,None,None,None,None,None,None,1,0.849851207136,,['return'],[0.6835364873722938],2017_Mrz_01_1615,60.0178084617,famFaceGrey,001,27,
216,./greyInner/notfamousface14_6_cut.png,0,73,73,215,,,None,None,2,3.69887929798,None,None,None,None,None,None,5,1.28332650611,,['return'],[0.6337799738948888],2017_Mrz_01_1615,60.0178084617,famFaceGrey,001,27,
82,./greyInner/HughLaurie(DrHouse)4_1_cut.png,0,74,74,81,,,None,None,2,2.9160418179,None,None,None,None,None,None,3,1.94955830476,,['return'],[0.5166049115605347],2017_Mrz_01_1615,60.0178084617,famFaceGrey,001,27,
140,./greyInner/LisaEdelstein(DrLisaCuddy)9_1_cut.png,0,75,75,139,,,None,None,2,4.91510867477,None,None,None,None,None,None,2,2.41576033523,,['return'],[0.650400443187209],2017_Mrz_01_1615,60.0178084617,famFaceGrey,001,27,
68,./greyInner/EmmaWatson(HermioneGranger)3_1_cut.png,0,76,76,67,,,None,None,2,2.93256348757,None,None,None,None,None,None,1,0.883370901781,,['return'],[0.7330405485818119],2017_Mrz_01_1615,60.0178084617,famFaceGrey,001,27,
94,./greyInner/JanHofer7_1_cut.png,0,77,77,93,,,None,None,2,2.4992761645,None,None,None,None,None,None,4,1.44975189427,,['return'],[0.6500982703328191],2017_Mrz_01_1615,60.0178084617,famFaceGrey,001,27,
40,./greyInner/CarenMiosga9_1_cut.png,0,78,78,39,,,None,None,2,3.28223554021,None,None,None,None,None,None,4,2.28263779579,,['return'],[0.5170649071778826],2017_Mrz_01_1615,60.0178084617,famFaceGrey,001,27,
123,./greyInner/KaleyCuoco(Penny)3_1_cut.png,0,79,79,122,,,None,None,2,3.16546818668,None,None,None,None,None,None,1,0.716759783167,,['return'],[0.6003924397764422],2017_Mrz_01_1615,60.0178084617,famFaceGrey,001,27,
153,./greyInner/NeilPatrickHarris(Barney)13_4_cut.png,0,80,80,152,,,None,None,2,2.48273492736,None,None,None,None,None,None,3,1.29975867873,,['return'],[0.5003353733745826],2017_Mrz_01_1615,60.0178084617,famFaceGrey,001,27,
223,./greyInner/notfamousface8_9_cut.png,0,81,81,222,,,None,None,2,2.53276955535,None,None,None,None,None,None,2,3.04925000505,,['return'],[0.5836654721961168],2017_Mrz_01_1615,60.0178084617,famFaceGrey,001,27,
84,./greyInner/HughLaurie(DrHouse)8_1_cut.png,0,82,82,83,,,None,None,2,2.18283382322,None,None,None,None,None,None,4,2.18284120111,,['return'],[0.6332121968762294],2017_Mrz_01_1615,60.0178084617,famFaceGrey,001,27,
92,./greyInner/JanHofer3_1_cut.png,0,83,83,91,,,None,None,1,3.53233586352,None,None,None,None,None,None,3,1.66638480975,Jan Hofer,"['lshift', 'j', 'a', 'n', 'space', 'lshift', 'h', 'o', 'f', 'r', 'backspace', 'e', 'r', 'return']","[0.8169140452964712, 0.9332515563346533, 1.0501205964810651, 1.2000733940012651, 1.2833528099035902, 1.3832575067663129, 1.4999879708266235, 1.6498769335294128, 1.7830729311190225, 2.316302802862083, 2.8660867428561687, 3.0492625153938206, 3.1659894508957223, 3.54896756004473]",2017_Mrz_01_1615,60.0178084617,famFaceGrey,001,27,
14,./greyInner/BarackObama4_1_cut.png,0,84,84,13,,,None,None,1,1.73315506632,None,None,None,None,None,None,4,1.54971272728,Barrack Obama,"['lshift', 'b', 'a', 'r', 'r', 'a', 'c', 'k', 'space', 'lshift', 'o', 'b', 'a', 'm', 'a', 'return']","[0.6169022406666045, 0.7836054225590487, 0.9499628057938025, 1.2167689253392382, 1.3498471974107815, 1.5332702897685522, 1.716618961635504, 1.8831851713321157, 1.9497713013415705, 2.216290966154702, 2.432920994629967, 2.6161060697286302, 2.7825773291451696, 2.9494158793440874, 3.0492984425263785, 3.3325264697969033]",2017_Mrz_01_1615,60.0178084617,famFaceGrey,001,27,
207,./greyInner/WillSmith14_1_cut.png,0,85,85,206,,,None,None,1,2.56600119137,None,None,None,None,None,None,1,1.03350461808,Will Smith,"['lshift', 'w', 'i', 'l', 'l', 'space', 'lshift', 's', 'm', 'i', 't', 'h', 'return']","[0.8333535958081484, 0.9499134059851713, 1.1662961146403177, 1.3832267120797042, 1.5329244911099522, 1.6329533290499967, 1.6996154834396293, 1.7830572129969369, 1.9328553955338066, 2.066267597478145, 2.149413248964265, 2.2494722400342653, 3.6152592158705374]",2017_Mrz_01_1615,60.0178084617,famFaceGrey,001,27,
186,./greyInner/TaylorSwift1_2_cut.png,0,86,86,185,,,None,None,2,3.44890022875,None,None,None,None,None,None,1,1.31636214679,,['return'],[1.1163792121760707],2017_Mrz_01_1615,60.0178084617,famFaceGrey,001,27,
46,./greyInner/CristinMilioti(Tracy_Mutter)10_1_cut.png,0,87,87,45,,,None,None,2,1.91645562149,None,None,None,None,None,None,1,1.13319375214,,['return'],[0.6832885259964314],2017_Mrz_01_1615,60.0178084617,famFaceGrey,001,27,
147,./greyInner/MilaKunis10_1_cut.png,0,88,88,146,,,None,None,2,2.38254153032,None,None,None,None,None,None,2,1.91629940261,,['return'],[0.7008546487631975],2017_Mrz_01_1615,60.0178084617,famFaceGrey,001,27,
113,./greyInner/JoshRadnor(Ted)6_2_cut.png,0,89,89,112,,,None,None,2,2.36626365191,None,None,None,None,None,None,3,1.49974000945,,['return'],[0.5167543940970063],2017_Mrz_01_1615,60.0178084617,famFaceGrey,001,27,
26,./greyInner/Beyonce1_1_cut.png,0,90,90,25,,,None,None,2,2.39931051982,None,None,None,None,None,None,2,0.983269824641,,['return'],[0.5837142304490044],2017_Mrz_01_1615,60.0178084617,famFaceGrey,001,27,
96,./greyInner/JasonSegel(Marshall)11_1_cut.png,0,91,91,95,,,None,None,2,12.8119490438,None,None,None,None,None,None,1,1.183201114,Aus american pie,"['lshift', 'a', 'u', 's', 'space', 'a', 'm', 'e', 'r', 'i', 'c', 'a', 'n', 'space', 'p', 'i', 'e', 'lshift', u'?', 'return']","[0.9504202351881759, 1.2170560216281956, 1.583264178947502, 1.8165897387616496, 1.9667998002196327, 2.8496937051486384, 3.016255103176263, 3.1495069161337597, 3.349447828830307, 3.499521559648201, 3.616007911668021, 3.899369703353841, 4.032984636980473, 4.1658678760422845, 4.715633852469182, 4.915639562317665, 5.032129442894984, 5.215354936019139, 5.348741475726456, 6.398306805529501]",2017_Mrz_01_1615,60.0178084617,famFaceGrey,001,27,
39,./greyInner/CarenMiosga6_2_cut.png,0,92,92,38,,,None,None,2,3.63229990431,None,None,None,None,None,None,2,2.96573706278,,['return'],[0.567207316560598],2017_Mrz_01_1615,60.0178084617,famFaceGrey,001,27,
171,./greyInner/SahraWagenknecht12_1_cut.png,0,93,93,170,,,None,None,1,3.28228590235,None,None,None,None,None,None,4,1.19998518006,Sahra Wagenknecht,"['lshift', 's', 'a', 'h', 'r', 'a', 'space', 'lshift', 'w', 'a', 'g', 'e', 'n', 'k', 'n', 'e', 'k', 'c', 'backspace', 'backspace', 'c', 'h', 't', 'return']","[0.6166308624979138, 0.7334803351868686, 1.0999829666889127, 1.3331895178735067, 1.5497765621003055, 1.699841631912932, 1.8497803152022243, 1.9661726792755871, 2.0661697601954074, 2.249451389465321, 2.3827987942595428, 2.515902728569017, 2.615956907969121, 2.782524721556001, 2.9326314925056067, 3.065806639526272, 3.199200236348588, 3.299052967179705, 3.7822552680563604, 3.8988057756714625, 4.01547914125149, 4.132140958824493, 4.2317354633842115, 4.6652508596043845]",2017_Mrz_01_1615,60.0178084617,famFaceGrey,001,27,
41,./greyInner/CobieSmulders(Robin)12_1_cut.png,0,94,94,40,,,None,None,2,2.84975208674,None,None,None,None,None,None,2,0.984291823273,,['return'],[0.5669763564173991],2017_Mrz_01_1615,60.0178084617,famFaceGrey,001,27,
195,./greyInner/TomCruise7_1_cut.png,0,95,95,194,,,None,None,1,2.56579749735,None,None,None,None,None,None,2,0.766631455937,Scientology,"['lshift', 'w', 'backspace', 'lshift', 's', 'c', 'i', 'e', 'n', 't', 'o', 'l', 'o', 'g', 'y', 'return']","[0.6172814002347877, 0.6840571100274246, 1.2502943939880424, 1.3836241559929476, 1.4502933674984888, 1.65001839661727, 2.4498959235852453, 2.56650513356999, 2.666328673605676, 2.7998492985070698, 2.8829872513206283, 3.032986882426485, 3.182916583932638, 3.28295953610359, 4.415818716817739, 4.998713038758979]",2017_Mrz_01_1615,60.0178084617,famFaceGrey,001,27,
36,./greyInner/CarenMiosga1_1_cut.png,0,96,96,35,,,None,None,1,3.2990526464,None,None,None,None,None,None,3,1.79937358477,Tagesthemen,"['lshift', 't', 'a', 'g', 'e', 's', 't', 'h', 'e', 'm', 'e', 'n', 'return']","[0.9334395322284763, 1.133338102232301, 1.283168683344229, 1.4665548862340074, 1.633069450676885, 1.766339868756404, 2.1329935866851883, 2.2829832736733806, 2.382875780973336, 2.4827323611407337, 2.699370409065523, 2.815752187464568, 3.8656726184881336]",2017_Mrz_01_1615,60.0178084617,famFaceGrey,001,27,
59,./greyInner/ElvisPresley5_2_cut.png,0,97,97,58,,,None,None,1,2.93229146785,None,None,None,None,None,None,2,1.24951009184,Elvis,"['lshift', 'e', 'l', 'v', 'i', 's', 'return']","[0.6000944370362049, 0.816628232119001, 1.1166255696616645, 1.583044125255583, 2.116192840171607, 2.365978801066376, 3.5153227619875906]",2017_Mrz_01_1615,60.0178084617,famFaceGrey,001,27,
164,./greyInner/OmarEpps(DrEricForeman)5_2_cut.png,0,98,98,163,,,None,None,2,3.3158187489,None,None,None,None,None,None,2,1.09964550826,,['return'],[0.616853161635845],2017_Mrz_01_1615,60.0178084617,famFaceGrey,001,27,
193,./greyInner/TomCruise5_1_cut.png,0,99,99,192,,,None,None,1,1.98272578519,None,None,None,None,None,None,1,1.01668719111,Scientology,"['lshift', 's', 'c', 'i', 'e', 'n', 't', 'o', 'l', 'o', 'g', 'y', 'return']","[0.5667595105060173, 0.6168143475006218, 0.866766150609692, 0.9998742550333191, 1.1331722600189096, 1.233161963045859, 1.4331846741270056, 1.5331586590327788, 1.7329911487731806, 1.8825856372950511, 1.9830552241746773, 2.1493474894796236, 3.0656177012988337]",2017_Mrz_01_1615,60.0178084617,famFaceGrey,001,27,
18,./greyInner/BastianSchweinsteiger14_1_cut.png,0,100,100,17,,,None,None,1,1.49958860225,None,None,None,None,None,None,5,0.966575255636,Bastian Schweinsteiger,"['lshift', 'b', 'a', 's', 't', 'o', 'a', 'm', 'backspace', 'backspace', 'backspace', 'o', 'a', 'backspace', 'backspace', 'i', 'a', 'n', 'space', 'lshift', 's', 'h', 'backspace', 'c', 'h', 'r', 'backspace', 'w', 'e', 'i', 'n', 's', 't', 'e', 'i', 'g', 'e', 'r', 'return']","[0.5334659643340274, 0.6166218807147743, 0.8166214957809643, 1.1330808382954274, 1.2830224085873851, 1.4329598087651902, 1.6330733000131659, 1.7662814871655428, 2.099517197068053, 2.232829316284551, 2.332665045882095, 2.615910395163155, 2.9324515360613077, 3.1990058448955097, 3.3158120125581263, 3.8487352205556817, 4.04875279918906, 4.165260643332658, 4.248699806666991, 4.348173698707797, 4.398521085217908, 4.648505607679908, 5.03154626853393, 5.098146512774292, 5.2482750966264575, 5.48139215075571, 5.84793776650622, 5.931169065711401, 6.047906266108839, 6.131230270149899, 6.264217762053704, 6.514416884982893, 6.697523369477494, 6.8641980021302516, 7.064080533235938, 7.230830227935257, 7.397308865244668, 7.480530541110966, 7.713845515250796]",2017_Mrz_01_1615,60.0178084617,famFaceGrey,001,27,
182,./greyInner/SigmarGabriel11_3_cut.png,0,101,101,181,,,None,None,1,6.63114382048,None,None,None,None,None,None,4,1.9161656382,Gunther Gabriel,"['lshift', 'g', 'u', 'n', 't', 'e', 'backspace', 'h', 'e', 'r', 'space', 'lshift', 'g', 'a', 'b', 'i', 'r', 'backspace', 'backspace', 'r', 'i', 'e', 'l', 'return']","[0.7836894663896601, 1.0169768536234187, 1.2336213171083728, 1.4168153739901754, 1.5668162882075194, 1.833170752363003, 2.7829016356790817, 2.9829987672501375, 3.116086983439345, 3.1827427222697224, 3.2827208772896483, 3.4160439029574263, 3.4827227378018506, 3.6492154893421684, 3.8324858913829303, 4.032155105133825, 4.132399185095892, 4.432309912584969, 4.58223191542038, 4.665671720310456, 4.798736198928964, 4.9154871927794375, 4.998689942744932, 5.531848280998929]",2017_Mrz_01_1615,60.0178084617,famFaceGrey,001,27,
220,./greyInner/notfamousface5_1_cut.png,0,102,102,219,,,None,None,2,2.98283324581,None,None,None,None,None,None,4,1.51660266611,,['return'],[0.4670338077530687],2017_Mrz_01_1615,60.0178084617,famFaceGrey,001,27,
86,./greyInner/Ice-T(OdafinFinTutuola)10_1_cut.png,0,103,103,85,,,None,None,2,2.88256478673,None,None,None,None,None,None,1,0.61737250118,,['return'],[0.5502371992743065],2017_Mrz_01_1615,60.0178084617,famFaceGrey,001,27,
189,./greyInner/TaylorSwift7_1_cut.png,0,104,104,188,,,None,None,2,2.06614313562,None,None,None,None,None,None,1,1.76570312447,,['return'],[0.5836494332979782],2017_Mrz_01_1615,60.0178084617,famFaceGrey,001,27,
192,./greyInner/TomCruise4_1_cut.png,0,105,105,191,,,None,None,1,1.33293225394,None,None,None,None,None,None,1,0.783234923997,Scientology,"['lshift', 's', 'c', 'i', 'e', 'n', 't', 'o', 'l', 'o', 'g', 'y', 'return']","[0.6501534441449621, 0.6833850801667722, 0.8499740651004686, 1.0500500253247083, 1.1832126620047347, 1.333285109710232, 1.5497303700713019, 1.6496273682632818, 1.8329385091074073, 2.532665944060682, 2.8325349704127802, 3.049113995190055, 3.4490160295963506]",2017_Mrz_01_1615,60.0178084617,famFaceGrey,001,27,
184,./greyInner/SigmarGabriel4_5_cut.png,0,106,106,183,,,None,None,1,1.66655514286,None,None,None,None,None,None,4,1.53324206131,Gunther Gabriel,"['lshift', 'g', 'u', 'n', 't', 'h', 'e', 'r', 'space', 'lshift', 'g', 'a', 'b', 'r', 'i', 'e', 'l', 'return']","[0.38366264935029903, 0.5171236095484346, 0.7503590307505874, 0.9502306554040842, 1.083518395495048, 1.3001330266270088, 1.416622586426456, 1.699951979537218, 1.9331822682916027, 2.06647064993831, 2.1495887145183588, 2.316478268415267, 2.4829087890284427, 2.6662147974238906, 2.766034488123296, 2.916063310024583, 3.0160138781384376, 3.7325629101751474]",2017_Mrz_01_1615,60.0178084617,famFaceGrey,001,27,
214,./greyInner/notfamousface1_2_cut.png,0,107,107,213,,,None,None,2,3.01606295717,None,None,None,None,None,None,1,0.483484906273,,['return'],[0.5168220782497883],2017_Mrz_01_1615,60.0178084617,famFaceGrey,001,27,
83,./greyInner/HughLaurie(DrHouse)5_3_cut.png,0,108,108,82,,,None,None,2,2.74926934796,None,None,None,None,None,None,3,1.9498287206,,['return'],[0.46698504950109054],2017_Mrz_01_1615,60.0178084617,famFaceGrey,001,27,
152,./greyInner/NeilPatrickHarris(Barney)11_2_cut.png,0,109,109,151,,,None,None,2,3.11596829559,None,None,None,None,None,None,3,2.93226901339,,['return'],[0.483438393466713],2017_Mrz_01_1615,60.0178084617,famFaceGrey,001,27,
30,./greyInner/Beyonce8_3_cut.png,0,110,110,29,,,None,None,2,2.71579584535,None,None,None,None,None,None,2,1.14960250797,,['return'],[0.5661128221054241],2017_Mrz_01_1615,60.0178084617,famFaceGrey,001,27,
2,./greyInner/AlysonHannigan(Lily)12_2_cut.png,0,111,111,1,,,None,None,2,1.76696153647,None,None,None,None,None,None,1,0.749701435898,,['return'],[0.4499921569786238],2017_Mrz_01_1615,60.0178084617,famFaceGrey,001,27,
160,./greyInner/NicoleKidman8_2_cut.png,0,112,112,159,,,None,None,2,1.88301804601,None,None,None,None,None,None,4,1.48321160344,,['return'],[0.5002705762235564],2017_Mrz_01_1615,60.0178084617,famFaceGrey,001,27,
1,./greyInner/AlysonHannigan(Lily)1_1_cut.png,0,113,113,0,,,None,None,2,2.73267229546,None,None,None,None,None,None,1,0.799648491494,,['return'],[0.40000147557930177],2017_Mrz_01_1615,60.0178084617,famFaceGrey,001,27,
181,./greyInner/SigmarGabriel1_2_cut.png,0,114,114,180,,,None,None,1,1.1999248738,None,None,None,None,None,None,4,1.3165148371,Gunther Gabriel,"['lshift', 'g', 'u', 'n', 't', 'h', 'e', 'r', 'space', 'lshift', 'g', 'a', 'b', 'i', 'r', 'e', 'l', 'backspace', 'backspace', 'backspace', 'backspace', 'r', 'i', 'e', 'l', 'return']","[0.8667305442540965, 1.116670799356143, 1.3329405941640289, 1.4998128260513113, 1.6164618125048946, 1.8328464458281815, 1.9830375813853607, 2.0827927957116117, 2.1829435292829658, 2.3159618158733792, 2.4161789504851185, 2.5657708727821955, 2.7161445310084673, 2.8659667718929995, 2.8946170568560774, 3.149259596313641, 3.249316021159757, 3.59905800339493, 3.7489835347878397, 3.832363033418005, 3.9822892063666586, 4.115488411734987, 4.2154851718778446, 4.3487289653849075, 4.4154094041196, 5.131888506557516]",2017_Mrz_01_1615,60.0178084617,famFaceGrey,001,27,
64,./greyInner/EmilyDeschanel6_12_cut.png,0,115,115,63,,,None,None,2,3.08257851602,None,None,None,None,None,None,1,0.816831284578,,['return'],[0.6501393299140545],2017_Mrz_01_1615,60.0178084617,famFaceGrey,001,27,
156,./greyInner/NicoleKidman14_1_cut.png,0,116,116,155,,,None,None,1,2.03287332702,None,None,None,None,None,None,1,0.65026058399,Kim Basinger,"['lshift', 'k', 'i', 'm', 'space', 'lshift', 'b', 'a', 's', 'i', 'n', 'g', 'e', 'r', 'return']","[0.7505543845372813, 0.8170741135054413, 0.9837981459668299, 1.1667811309407625, 1.2503107536640528, 1.3337085366392785, 1.4335660791402915, 1.583575975140775, 1.7668418862895123, 1.8667549233805403, 1.9668078196682472, 2.099585201998707, 2.2500502819475514, 2.333042280782138, 3.616080407490699]",2017_Mrz_01_1615,60.0178084617,famFaceGrey,001,27,
139,./greyInner/LisaEdelstein(DrLisaCuddy)6_3_cut.png,0,117,117,138,,,None,None,2,2.81584681697,None,None,None,None,None,None,1,3.39910329725,,['return'],[0.4172846721694441],2017_Mrz_01_1615,60.0178084617,famFaceGrey,001,27,
91,./greyInner/JanHofer1_3_cut.png,0,118,118,90,,,None,None,1,1.63314258806,None,None,None,None,None,None,3,1.39980932957,Jan Hofer,"['lshift', 'j', 'a', 'n', 'space', 'lshift', 'h', 'o', 'f', 'e', 'r', 'return']","[0.7342518062214367, 0.8509392860323715, 0.9509681239724159, 1.050898803851851, 1.1507053426539642, 1.2340373661436388, 1.3507405640757497, 1.450657450502149, 1.5839702112743907, 1.7172415916875252, 1.800531272484477, 1.9504462182048883]",2017_Mrz_01_1615,60.0178084617,famFaceGrey,001,27,
79,./greyInner/GeorgeClooney3_1_cut.png,0,119,119,78,,,None,None,1,1.69965878847,None,None,None,None,None,None,1,1.43305732527,George Clouney,"['lshift', 'g', 'e', 'o', 'r', 'g', 'e', 'space', 'lshift', 'c', 'l', 'o', 'u', 'n', 'e', 'y', 'return']","[0.4667200868925647, 0.5334271501988042, 0.6999891897821726, 0.9166185767016941, 1.0664998407337407, 1.266517740144991, 1.3164375296119033, 1.7329702982051458, 1.8162262973146426, 1.9162182457866948, 2.1160337342953426, 2.3158428072438255, 2.5992373182834854, 2.7824018635919856, 2.8657669272133717, 3.048954568535919, 3.532204023774284]",2017_Mrz_01_1615,60.0178084617,famFaceGrey,001,27,
125,./greyInner/KaleyCuoco(Penny)7_1_cut.png,0,120,120,124,,,None,None,2,2.71592993054,None,None,None,None,None,None,1,0.717116809054,,['return'],[0.43345829773988953],2017_Mrz_01_1615,60.0178084617,famFaceGrey,001,27,
163,./greyInner/OmarEpps(DrEricForeman)3_1_cut.png,0,121,121,162,,,None,None,2,2.23281905139,None,None,None,None,None,None,2,1.06661788703,,['return'],[0.5835756543629032],2017_Mrz_01_1615,60.0178084617,famFaceGrey,001,27,
100,./greyInner/JasonSegel(Marshall)9_1_cut.png,0,122,122,99,,,None,None,1,2.94921731778,None,None,None,None,None,None,1,0.916665731064,American Pie,"['lshift', 'a', 'm', 'e', 'r', 'i', 'c', 'n', 'backspace', 'a', 'n', 'lshift', 'p', 'backspace', 'space', 'lshift', 'p', 'i', 'e', 'return']","[0.7000661764968754, 0.7834190505545848, 0.9665871244214941, 1.033161385645144, 1.2332075135182095, 1.333021430214103, 1.4663880816870005, 1.8662612460748278, 2.2660468380754537, 2.382195731664069, 2.515633595847248, 4.348528158371664, 4.448627888245028, 4.848246675697737, 4.981581249372539, 5.264773028730815, 5.398093488174709, 5.631447918006415, 5.731323744851579, 5.864598012267379]",2017_Mrz_01_1615,60.0178084617,famFaceGrey,001,27,
105,./greyInner/JimParsons(SheldonCooper)9_3_cut.png,0,123,123,104,,,None,None,2,2.93279380616,None,None,None,None,None,None,3,3.41596338769,,['return'],[0.6504678065612097],2017_Mrz_01_1615,60.0178084617,famFaceGrey,001,27,
198,./greyInner/UrsulavonderLeyen5_1_cut.png,0,124,124,197,,,None,None,2,2.74928827386,None,None,None,None,None,None,1,0.666382243528,,['return'],[0.43358885437737626],2017_Mrz_01_1615,60.0178084617,famFaceGrey,001,27,
177,./greyInner/Shakira2_1_cut.png,0,125,125,176,,,None,None,1,6.84746141121,None,None,None,None,None,None,2,2.74887928194,,['return'],[3.0659481026141293],2017_Mrz_01_1615,60.0178084617,famFaceGrey,001,27,
165,./greyInner/OmarEpps(DrEricForeman)9_1_cut.png,0,126,126,164,,,None,None,2,1.56629919411,None,None,None,None,None,None,2,2.28283090414,,['return'],[0.633153173728715],2017_Mrz_01_1615,60.0178084617,famFaceGrey,001,27,
121,./greyInner/KaleyCuoco(Penny)10_1_cut.png,0,127,127,120,,,None,None,2,2.39953410207,None,None,None,None,None,None,5,1.73303477458,,['return'],[0.5168791767291623],2017_Mrz_01_1615,60.0178084617,famFaceGrey,001,27,
206,./greyInner/WillSmith1_1_cut.png,0,128,128,205,,,None,None,1,1.61627127039,None,None,None,None,None,None,1,0.949922708546,Will Smith,"['lshift', 'w', 'i', 'l', 'l', 'space', 'lshift', 's', 'm', 'i', 't', 'h', 'return']","[0.800585804739967, 0.8672113904412981, 1.1003579561438528, 1.317189112410233, 1.4334996780989968, 1.6169179587868712, 1.6835544509385727, 1.7835518526371743, 1.9668604272565062, 2.116820923449268, 2.233153943596335, 2.3499546580333117, 2.96652810127307]",2017_Mrz_01_1615,60.0178084617,famFaceGrey,001,27,
111,./greyInner/JoshRadnor(Ted)1_2_cut.png,0,129,129,110,,,None,None,2,3.59860763112,None,None,None,None,None,None,4,2.64921645168,,['return'],[0.10055812160135247],2017_Mrz_01_1615,60.0178084617,famFaceGrey,001,27,
173,./greyInner/SahraWagenknecht5_1_cut.png,0,130,130,172,,,None,None,1,1.43315420022,None,None,None,None,None,None,4,1.28305288249,Sahra Wagenknecht,"['lshift', 's', 'h', 'backspace', 'a', 'h', 'r', 'a', 'space', 'lshift', 'w', 'a', 'e', 'backspace', 'g', 'e', 'n', 'k', 'n', 'e', 'c', 'h', 't', 'return']","[0.5667277534857931, 0.6500998742221782, 0.9500276029448287, 1.2831125471984706, 1.41650678557653, 1.5496957260502313, 1.7662067458959427, 1.8829631929720563, 1.999092839881996, 2.0995181594016685, 2.1828678256797502, 2.3991158075850763, 2.6159723053124253, 3.0491486392111256, 3.1323058387042693, 3.2489628446073766, 3.348929772398151, 3.4988755128033517, 3.71537145608454, 3.8488083579341037, 4.331990129019687, 4.4648287799427635, 4.598574911761716, 5.214646337469276]",2017_Mrz_01_1615,60.0178084617,famFaceGrey,001,27,
179,./greyInner/Shakira7_1_cut.png,0,131,131,178,,,None,None,1,11.3957793959,None,None,None,None,None,None,2,1.1164837858,Shakira,"['lshift', 's', 'h', 'a', 'k', 'i', 'r', 'a', 'return']","[0.6166626195181379, 0.6501098183407521, 0.8998582482126949, 1.049865898767166, 1.2830192008077574, 1.4998907750996295, 1.5995584170377697, 1.7496821892200387, 2.499355396656938]",2017_Mrz_01_1615,60.0178084617,famFaceGrey,001,27,
126,./greyInner/KatjaBurkard1_1_cut.png,0,132,132,125,,,None,None,1,2.9655182922,None,None,None,None,None,None,3,1.51661581801,Katja Burkhard,"['lshift', 'k', 'a', 't', 'a', 'backspace', 'j', 'a', 'space', 'lshift', 'b', 'u', 'i', 'r', 'backspace', 'backspace', 'r', 'k', 'h', 'a', 'r', 'd', 'return']","[0.5833232020959258, 0.7333937251332827, 0.8333875982743848, 1.01664581075147, 1.3162309485951482, 1.716446383084076, 1.9162378132432423, 2.032923689164818, 2.149456553991513, 2.2159855855206843, 2.3160904478409066, 2.449407699505173, 2.4781609541987564, 2.5660698378560483, 3.1324261304453103, 3.2823551903957195, 3.3988813188852873, 3.76552926281056, 4.065154177123077, 4.131781366712858, 4.2652772917099355, 4.381972790970394, 4.815110952290524]",2017_Mrz_01_1615,60.0178084617,famFaceGrey,001,27,
67,./greyInner/EmmaWatson(HermioneGranger)16_1_cut.png,0,133,133,66,,,None,None,2,2.24957136043,None,None,None,None,None,None,1,1.01658839149,,['return'],[0.5003469213816061],2017_Mrz_01_1615,60.0178084617,famFaceGrey,001,27,
52,./greyInner/DannFlorek(DonaldDonCragen)10_1_cut.png,0,134,134,51,,,None,None,2,1.9495621541,None,None,None,None,None,None,3,1.08308470367,,['return'],[1.0333641173265278],2017_Mrz_01_1615,60.0178084617,famFaceGrey,001,27,
85,./greyInner/HughLaurie(DrHouse)9_2_cut.png,0,135,135,84,,,None,None,2,2.16650269566,None,None,None,None,None,None,3,1.33336081331,,['return'],[0.4501669809760642],2017_Mrz_01_1615,60.0178084617,famFaceGrey,001,27,
215,./greyInner/notfamousface13_1_cut.png,0,136,136,214,,,None,None,2,2.18277672474,None,None,None,None,None,None,1,0.567051739242,,['return'],[0.3169478873724074],2017_Mrz_01_1615,60.0178084617,famFaceGrey,001,27,
166,./greyInner/RobertSeanLeonard(Wilson)1_1_cut.png,0,137,137,165,,,None,None,2,2.33262943953,None,None,None,None,None,None,5,1.03351712842,,['return'],[0.48326709802768164],2017_Mrz_01_1615,60.0178084617,famFaceGrey,001,27,
17,./greyInner/BastianSchweinsteiger12_1_cut.png,0,138,138,16,,,None,None,1,1.43271730061,None,None,None,None,None,None,5,1.3998584086,Bastian Schweinsteiger,"['lshift', 'b', 'a', 's', 't', 'i', 'a', 'n', 'space', 'lshift', 's', 'c', 'h', 'w', 'e', 'i', 'n', 's', 't', 'e', 'i', 'g', 'e', 'r', 'return']","[0.7007523205884354, 0.7674176827576957, 0.967231567376075, 1.133933466157032, 1.2502809213128785, 1.3006854063023638, 1.4670575453237689, 1.5505095397766127, 1.6505200933725064, 1.7836824092737515, 1.8170234305862323, 2.0003124377490167, 2.1169553294212164, 2.2168099849204737, 2.3334740479394895, 2.4168500180121555, 2.4833886728811194, 3.283145587330182, 3.682789074687207, 3.8994810133117426, 4.166188654018697, 4.349407731583597, 4.566030382165081, 4.63228963941674, 5.398835126856284]",2017_Mrz_01_1615,60.0178084617,famFaceGrey,001,27,
106,./greyInner/JoachimLoew1_1_cut.png,0,139,139,105,,,None,None,1,1.18281618043,None,None,None,None,None,None,5,0.866544813806,Joachim Löw,"['lshift', 'j', 'o', 'a', 'c', 'h', 'i', 'm', 'space', 'lshift', 'l', u'\xf6', 'w', 'return']","[0.5667239041504217, 0.7334264444871224, 0.883326313642101, 1.0164196622781674, 1.183256608587726, 1.2998058330904314, 1.4165414295985101, 1.533096748882599, 1.6497460561149637, 1.7494717588670028, 1.916322819407469, 2.116175518160162, 2.2492669421289975, 2.5992616974090197]",2017_Mrz_01_1615,60.0178084617,famFaceGrey,001,27,
119,./greyInner/JudithRakers7_1_cut.png,0,140,140,118,,,None,None,2,3.36555665725,None,None,None,None,None,None,1,0.58344766395,,['return'],[0.9164902655111291],2017_Mrz_01_1615,60.0178084617,famFaceGrey,001,27,
170,./greyInner/RobertSeanLeonard(Wilson)8_1_cut.png,0,141,141,169,,,None,None,2,2.11615530915,None,None,None,None,None,None,4,5.29819488609,,['return'],[0.5503927765930712],2017_Mrz_01_1615,60.0178084617,famFaceGrey,001,27,
212,./greyInner/notfamousface11_1_cut.png,0,142,142,211,,,None,None,2,2.43281930801,None,None,None,None,None,None,1,0.433549077908,,['return'],[0.4170084823317666],2017_Mrz_01_1615,60.0178084617,famFaceGrey,001,27,
128,./greyInner/KatjaBurkard4_1_cut.png,0,143,143,127,,,None,None,1,1.56643295853,None,None,None,None,None,None,3,1.33318631009,Katja Burkhard,"['lshift', 'k', 'a', 't', 'j', 'a', 'space', 'lshift', 'b', 'u', 'r', 'k', 'h', 'a', 'r', 'd', 'return']","[0.583383508355837, 0.7335351882220493, 0.8333292166826141, 1.0498569169840266, 1.299881215915775, 1.4665661134640686, 1.5830521447060164, 1.69979768533085, 1.7993729432118926, 1.9328303748516191, 2.082674428638711, 3.1157723002443163, 3.46568365325129, 3.5489868067234056, 3.6655084443200394, 3.782052536375886, 4.115436445703381]",2017_Mrz_01_1615,60.0178084617,famFaceGrey,001,27,
190,./greyInner/TaylorSwift8_1_cut.png,0,144,144,189,,,None,None,2,1.61645571772,None,None,None,None,None,None,1,1.04991882713,,['return'],[0.3671983989324872],2017_Mrz_01_1615,60.0178084617,famFaceGrey,001,27,
22,./greyInner/BenedictCumberbatch2_2_cut.png,0,145,145,21,,,None,None,2,3.1159506528,None,None,None,None,None,None,3,2.39939584676,,['return'],[0.3170450830984919],2017_Mrz_01_1615,60.0178084617,famFaceGrey,001,27,
201,./greyInner/Usher1_1_cut.png,0,146,146,200,,,None,None,1,2.59914557578,None,None,None,None,None,None,2,0.966575255636,NeYo,"['lshift', 'n', 'e', 'lshift', 'y', 'o', 'return']","[0.6999061082860862, 0.8332323417334919, 1.1345856077823555, 1.3828619875203003, 1.5827060252686351, 1.8162198817544777, 2.2993843308295254]",2017_Mrz_01_1615,60.0178084617,famFaceGrey,001,27,
130,./greyInner/KatjaBurkard7_1_cut.png,0,147,147,129,,,None,None,2,2.11594584113,None,None,None,None,None,None,3,3.78236978579,,['return'],[0.2837643680468318],2017_Mrz_01_1615,60.0178084617,famFaceGrey,001,27,
19,./greyInner/BastianSchweinsteiger3_1_cut.png,0,148,148,18,,,None,None,1,1.06660794291,None,None,None,None,None,None,5,1.63292125125,Bastian Schweinsteiger,"['lshift', 'b', 'a', 's', 't', 'i', 'a', 'n', 'space', 'lshift', 's', 'c', 'h', 'w', 'e', 'i', 'n', 's', 't', 'i', 'e', 'g', 'backspace', 'backspace', 'backspace', 'e', 'i', 'g', 'e', 'r', 'return']","[0.6002763181486444, 0.7002884756338972, 0.866762622051283, 1.0835296227232902, 1.2166973918501753, 1.3000076024372902, 1.4501288083956752, 1.533031951731573, 1.6164438489377062, 1.7496626217625817, 1.7830844791251366, 1.9996500312272474, 2.082783172371819, 2.2163147037244926, 2.316219721365087, 2.3829598248039474, 2.4662549588265392, 2.6328150737417673, 2.7993200148448523, 3.032647820105012, 3.1659743743302897, 3.3992447603322944, 3.765712106256615, 3.9323017327460548, 4.048831389792213, 4.132339520391724, 4.315444721774838, 4.448811373246826, 4.632051301379761, 4.715326547167933, 5.214780743441224]",2017_Mrz_01_1615,60.0178084617,famFaceGrey,001,27,
148,./greyInner/MilaKunis4_1_cut.png,0,149,149,147,,,None,None,2,3.74891296363,None,None,None,None,None,None,1,0.833453678537,,['return'],[0.4841258206706698],2017_Mrz_01_1615,60.0178084617,famFaceGrey,001,27,
11,./greyInner/BarackObama1_3_cut.png,0,150,150,10,,,None,None,1,2.38292903012,None,None,None,None,None,None,4,1.66651312094,Barrack Obama,"['lshift', 'b', 'a', 'r', 'r', 'a', 'c', 'k', 'space', 'lshift', 'o', 'b', 'a', 'm', 'a', 'return']","[0.6172647197799961, 0.8502881067397539, 1.1167304640603106, 1.2833954733741848, 1.3999803042324857, 1.6000084685392721, 1.7165663540472451, 1.8666304615262561, 2.2329778364874073, 2.3994699464719815, 2.5495754343091903, 2.6993957505264916, 2.8495647524032393, 2.9494896582791625, 3.2324848007374385]",2017_Mrz_01_1615,60.0178084617,famFaceGrey,001,27,
70,./greyInner/EmmaWatson(HermioneGranger)9_1_cut.png,0,151,151,69,,,None,None,2,2.5494153661,None,None,None,None,None,None,1,1.16631664443,,['return'],[0.41749285707646777],2017_Mrz_01_1615,60.0178084617,famFaceGrey,001,27,
98,./greyInner/JasonSegel(Marshall)6_1_cut.png,0,152,152,97,,,None,None,2,2.24959670189,None,None,None,None,None,None,4,1.8160473032,,['return'],[0.3007553359011581],2017_Mrz_01_1615,60.0178084617,famFaceGrey,001,27,
175,./greyInner/SahraWagenknecht9_1_cut.png,0,153,153,174,,,None,None,1,1.36640062411,None,None,None,None,None,None,4,1.69980474245,Sahra Wagenknecht,"['lshift', 's', 'a', 'h', 'r', 'a', 'space', 'lshift', 'w', 'a', 'g', 'e', 'n', 'k', 'n', 'e', 'c', 'k', 'backspace', 'h', 't', 'return']","[0.5001012054508465, 0.5501768930143953, 0.7667430866731593, 0.949968259018533, 1.1500304257906464, 1.2665841411853762, 1.4163569822612772, 1.53288760164196, 1.6662927464722088, 1.8496629104629392, 2.016242913613496, 2.149259275535769, 2.282736274632043, 2.4659768443207213, 3.11576203534878, 3.5323355427444767, 3.832040009994671, 3.982090644798518, 4.531919172931339, 4.781852691695349, 4.898332628155913, 5.214909054631789]",2017_Mrz_01_1615,60.0178084617,famFaceGrey,001,27,
37,./greyInner/CarenMiosga13_1_cut.png,0,154,154,36,,,None,None,2,2.53241477491,None,None,None,None,None,None,1,1.649744773,,"['1', 'backspace', 'return']","[0.5497871477737135, 1.3830964762219082, 1.7344301587754671]",2017_Mrz_01_1615,60.0178084617,famFaceGrey,001,27,
33,./greyInner/BritneySpears5_1_cut.png,0,155,155,32,,,None,None,1,1.51647724192,None,None,None,None,None,None,2,0.816844436475,Britney Spears,"['lshift', 'b', 'r', 'i', 't', 'n', 'e', 'y', 'space', 'lshift', 's', 'p', 'e', 'a', 'r', 's', 'return']","[0.7166520017663061, 0.8832881410626214, 1.1164619728933758, 1.2665437231607939, 1.5329902505945938, 1.6997396245160417, 1.832666489382973, 2.066121643499173, 2.3493541616608127, 2.4659341808501267, 2.5826001685363735, 3.0824181270345434, 3.1990507538121165, 3.3989384173646613, 3.5488495137487917, 3.7321901661662196, 3.965408265357837]",2017_Mrz_01_1615,60.0178084617,famFaceGrey,001,27,
149,./greyInner/MilaKunis5_2_cut.png,0,156,156,148,,,None,None,2,3.78228477963,None,None,None,None,None,None,2,0.866701995014,,['return'],[0.6830373568409414],2017_Mrz_01_1615,60.0178084617,famFaceGrey,001,27,
143,./greyInner/MariskaHargitay(Liv)4_4_cut.png,0,157,157,142,,,None,None,2,2.14942223075,None,None,None,None,None,None,1,0.750228794892,,['return'],[0.46676210880741564],2017_Mrz_01_1615,60.0178084617,famFaceGrey,001,27,
35,./greyInner/BritneySpears8_5_cut.png,0,158,158,34,,,None,None,1,1.4326432009,None,None,None,None,None,None,2,1.28309330052,Britney Spears,"['lshift', 'b', 'r', 'i', 't', 'n', 'e', 'y', 'space', 'lshift', 'lshift', 's', 'p', 'e', 'a', 'r', 's', 'return']","[0.41691000349328533, 0.5668342517737983, 0.7501206927136082, 0.9166628440625573, 1.333136268729504, 1.4994003055726353, 1.6329193265837603, 1.8829314359527416, 2.1662082214752445, 2.28270291372246, 2.7658208499906323, 2.882632470878889, 3.0658290939845756, 3.1991261366365507, 3.4490269360476304, 3.9154650590980964, 4.09873032869109, 4.2652907643850995]",2017_Mrz_01_1615,60.0178084617,famFaceGrey,001,27,
188,./greyInner/TaylorSwift3_1_cut.png,0,159,159,187,,,None,None,2,1.83301742049,None,None,None,None,None,None,1,0.500139378031,,['return'],[0.4169430436240873],2017_Mrz_01_1615,60.0178084617,famFaceGrey,001,27,
109,./greyInner/JoachimLoew4_1_cut.png,0,160,160,108,,,None,None,1,1.06663809604,None,None,None,None,None,None,5,0.983427005849,Joachim Löw,"['lshift', 'j', 'o', 'a', 'c', 'h', 'i', 'm', 'space', 'lshift', 'l', u'\xf6', 'w', 'return']","[0.5835208013286319, 0.7667899202579065, 0.9332999938087596, 1.0999117539786312, 1.3166008056014107, 1.4331638235580613, 1.5331458279133585, 1.66635305273212, 1.749762704492241, 1.882739289944766, 1.999415542526549, 2.1827000587982184, 2.2993926710569212, 2.5661003117638757]",2017_Mrz_01_1615,60.0178084617,famFaceGrey,001,27,
7,./greyInner/AngelaMerkel3_1_cut.png,0,161,161,6,,,None,None,1,1.21648631994,None,None,None,None,None,None,4,1.58307716539,Angela Merkel,"['lshift', 'a', 'n', 'g', 'e', 'l', 'a', 'space', 'lshift', 'm', 'e', 'r', 'e', 'backspace', 'k', 'e', 'l', 'return']","[0.366873450843741, 0.46691640301469306, 0.7168159193133761, 0.7667786930287548, 0.8999625010546879, 1.0165511812492696, 1.1665723044789047, 1.1925909269239128, 1.3330207886583594, 1.383024621955883, 1.4998057689354027, 1.5829334568543345, 1.799524671195286, 2.199385004463693, 2.515341687889304, 2.6159440768515196, 2.69925524977225, 3.0323754796036155]",2017_Mrz_01_1615,60.0178084617,famFaceGrey,001,27,
200,./greyInner/UrsulavonderLeyen8_2_cut.png,0,162,162,199,,,None,None,1,5.71489028912,None,None,None,None,None,None,3,1.83346426421,Tagesthemen,"['lshift', 't', 'a', 'g', 'e', 's', 't', 'h', 'e', 'm', 'e', 'n', 'return']","[0.5500867544033099, 0.966620164552296, 1.1831440155165183, 1.5161840508535533, 1.866187787918534, 2.0662999960532034, 2.5493354923819425, 2.7159100423068594, 2.848966822253715, 3.0156844391567574, 3.3323449094623356, 3.4989387060650188, 4.09859014871472]",2017_Mrz_01_1615,60.0178084617,famFaceGrey,001,27,
196,./greyInner/UrsulavonderLeyen1_1_cut.png,0,163,163,195,,,None,None,1,2.43266405147,None,None,None,None,None,None,3,1.51637523453,Tagesthemen,"['lshift', 't', 'a', 'g', 'e', 's', 't', 'h', 'e', 'm', 'e', 'n', 'return']","[0.5002753878925432, 0.6166048794821108, 0.7834495244624122, 1.000025020683097, 1.1166631006854004, 1.2500682455156493, 1.4664249711549928, 1.5828253546769702, 1.7330767964940605, 1.8329936829195503, 1.9830805656347366, 2.0497613251463918, 2.3827821138056606]",2017_Mrz_01_1615,60.0178084617,famFaceGrey,001,27,
174,./greyInner/SahraWagenknecht6_2_cut.png,0,164,164,173,,,None,None,1,1.39980868801,None,None,None,None,None,None,4,1.25022542672,Sahra Wagenknecht,"['lshift', 's', 'a', 'h', 'r', 'a', 'space', 'lshift', 'w', 'a', 'g', 'e', 'n', 'k', 'n', 'e', 'c', 'h', 't', 'return']","[0.33349361539694655, 0.400280873196607, 0.633465932256513, 0.8833830913445126, 1.0831280086968036, 1.2497619025471067, 1.3831000047794078, 1.482976152403353, 1.5664310338579526, 1.782919920024142, 1.9329500250369165, 2.049444717284132, 2.1993327176533057, 2.465558229061571, 2.632598869386129, 2.765877627693044, 3.0990321807676082, 3.215600331172027, 3.3489076387177192, 3.698769912694843]",2017_Mrz_01_1615,60.0178084617,famFaceGrey,001,27,
21,./greyInner/BenedictCumberbatch16_1_cut.png,0,165,165,20,,,None,None,2,2.13265997759,None,None,None,None,None,None,3,2.08274147124,,['return'],[0.4002038864819042],2017_Mrz_01_1615,60.0178084617,famFaceGrey,001,27,
87,./greyInner/Ice-T(OdafinFinTutuola)12_1_cut.png,0,166,166,86,,,None,None,2,3.06589741969,None,None,None,None,None,None,2,5.36471461506,,['return'],[0.20056001419106906],2017_Mrz_01_1615,60.0178084617,famFaceGrey,001,27,
135,./greyInner/LeonardoDiCaprio7_1_cut.png,0,167,167,134,,,None,None,2,7.1140324005,None,None,None,None,None,None,1,1.18331370707,,['return'],[0.8833888653462054],2017_Mrz_01_1615,60.0178084617,famFaceGrey,001,27,
108,./greyInner/JoachimLoew15_1_cut.png,0,168,168,107,,,None,None,1,0.950045245734,None,None,None,None,None,None,5,1.98255448975,Joachim Löw,"['lshift', 'j', 'o', 'a', 'c', 'h', 'i', 'm', 'space', 'lshift', 'l', u'\xf6', 'w', 'return']","[0.7332673386099486, 0.8500645244894258, 0.9999573365294054, 1.0998431074913242, 1.249782111559398, 1.3331709127505746, 1.4493284673444577, 1.5830008202283352, 1.6664431913432054, 1.7830960271312506, 1.899664819091413, 2.0662669559224014, 2.199133514530331, 2.6326816301025247]",2017_Mrz_01_1615,60.0178084617,famFaceGrey,001,27,
63,./greyInner/EmilyDeschanel5_1_cut.png,0,169,169,62,,,None,None,2,1.79966645506,None,None,None,None,None,None,1,0.466853209753,,['return'],[0.3502571516655735],2017_Mrz_01_1615,60.0178084617,famFaceGrey,001,27,
144,./greyInner/MariskaHargitay(Liv)6_5_cut.png,0,170,170,143,,,None,None,2,2.73289523616,None,None,None,None,None,None,1,0.433286681524,,['return'],[0.10051096723873343],2017_Mrz_01_1615,60.0178084617,famFaceGrey,001,27,
167,./greyInner/RobertSeanLeonard(Wilson)10_1_cut.png,0,171,171,166,,,None,None,2,1.34989499333,None,None,None,None,None,None,3,1.59949297833,,['return'],[0.1669841833991086],2017_Mrz_01_1615,60.0178084617,famFaceGrey,001,27,
154,./greyInner/NeilPatrickHarris(Barney)2_2_cut.png,0,172,172,153,,,None,None,2,1.94955573854,None,None,None,None,None,None,3,0.950141479127,,['return'],[0.1506896245318785],2017_Mrz_01_1615,60.0178084617,famFaceGrey,001,27,
13,./greyInner/BarackObama2_1_cut.png,0,173,173,12,,,None,None,1,0.966900524505,None,None,None,None,None,None,4,1.31636663768,Barrack Obama,"['lshift', 'b', 'a', 'r', 'r', 'a', 'c', 'k', 'space', 'lshift', 'o', 'b', 'a', 'm', 'a', 'return']","[0.5172634687460231, 0.6172130745253526, 0.8339050131507975, 1.0504413744565682, 1.150286085838161, 1.3337168768666743, 1.5001101872348954, 1.6002054262171441, 1.7334476158339385, 2.0166650574301457, 2.166701898780957, 2.2996858621281717, 2.5332446275297116, 2.666388659086806, 2.7330925146143272, 2.916295232502307]",2017_Mrz_01_1615,60.0178084617,famFaceGrey,001,27,
205,./greyInner/Usher7_1_cut.png,0,174,174,204,,,None,None,1,2.43271954606,None,None,None,None,None,None,2,0.833481586222,NeYo,"['lshift', 'n', 'e', 'lshift', 'y', 'o', 'return']","[0.7665470913289028, 0.899959614052932, 1.1666191380627424, 1.282871322160645, 1.416457064990027, 1.6996488443492126, 2.116192519393735]",2017_Mrz_01_1615,60.0178084617,famFaceGrey,001,27,
185,./greyInner/SigmarGabriel8_2_cut.png,0,175,175,184,,,None,None,1,3.61562394043,None,None,None,None,None,None,4,2.06621755611,Gunther Gabriel,"['lshift', 'g', 'u', 'n', 't', 'h', 'e', 'r', 'space', 'lshift', 'g', 'a', 'b', 'r', 'i', 'e', 'l', 'return']","[0.6335037840581208, 0.8835983333665354, 1.1333980877152499, 1.3333903248876595, 1.5999792777438415, 1.7833035704843496, 1.9498085115865251, 2.0499387153686257, 2.133088536967989, 2.2329310029035696, 2.316373694795402, 2.4827923466236825, 2.649436505367703, 2.8494887280230614, 2.9494107468963193, 3.0659821050794562, 3.1825698229404225, 3.499268786603352]",2017_Mrz_01_1615,60.0178084617,famFaceGrey,001,27,
142,./greyInner/MariskaHargitay(Liv)14_1_cut.png,0,176,176,141,,,None,None,2,2.79918913743,None,None,None,None,None,None,2,0.966681433147,,['return'],[0.3998875993966067],2017_Mrz_01_1615,60.0178084617,famFaceGrey,001,27,
219,./greyInner/notfamousface4_2_cut.png,0,177,177,218,,,None,None,2,2.56628732532,None,None,None,None,None,None,1,1.04981361196,,['return'],[0.31676857248385204],2017_Mrz_01_1615,60.0178084617,famFaceGrey,001,27,
141,./greyInner/MariskaHargitay(Liv)13_1_cut.png,0,178,178,140,,,None,None,2,1.31661812761,None,None,None,None,None,None,2,1.14976129307,,['return'],[0.40041335450041515],2017_Mrz_01_1615,60.0178084617,famFaceGrey,001,27,
45,./greyInner/CobieSmulders(Robin)5_1_cut.png,0,179,179,44,,,None,None,1,1.06658260145,None,None,None,None,None,None,1,0.716534597028,,['return'],[0.3833136429111619],2017_Mrz_01_1615,60.0178084617,famFaceGrey,001,27,
29,./greyInner/Beyonce5_3_cut.png,0,180,180,28,,,None,None,2,1.59965240499,None,None,None,None,None,None,2,1.08318350329,,['return'],[0.3336463057130459],2017_Mrz_01_1615,60.0178084617,famFaceGrey,001,27,
136,./greyInner/LisaEdelstein(DrLisaCuddy)1_1_cut.png,0,181,181,135,,,None,None,2,1.36660207268,None,None,None,None,None,None,1,0.583451192508,,['return'],[0.33362994603521656],2017_Mrz_01_1615,60.0178084617,famFaceGrey,001,27,
118,./greyInner/JudithRakers4_3_cut.png,0,182,182,117,,,None,None,2,1.41644647932,None,None,None,None,None,None,1,0.550182667019,,['return'],[0.31704957399051636],2017_Mrz_01_1615,60.0178084617,famFaceGrey,001,27,
51,./greyInner/DannFlorek(DonaldDonCragen)1_1_cut.png,0,183,183,50,,,None,None,2,2.23281584361,None,None,None,None,None,None,3,0.750024459321,,['return'],[0.3504849040273257],2017_Mrz_01_1615,60.0178084617,famFaceGrey,001,27,
208,./greyInner/WillSmith4_1_cut.png,0,184,184,207,,,None,None,1,1.20009424457,None,None,None,None,None,None,1,2.19933111376,Will Smith,"['lshift', 'w', 'i', 'l', 'l', 'space', 'lshift', 's', 'm', 'i', 't', 'h', 'return']","[0.5335262705939385, 0.6167857982618443, 0.850148889097909, 1.0499297335845768, 1.1831869997677131, 1.3165074592106976, 1.4164737454448186, 1.449699607464936, 1.6331233413784503, 1.7830350793174148, 1.833116540885385, 1.9662483828778932, 2.2161562394048815]",2017_Mrz_01_1615,60.0178084617,famFaceGrey,001,27,
120,./greyInner/JudithRakers8_1_cut.png,0,185,185,119,,,None,None,2,3.0993622613,None,None,None,None,None,None,1,0.616805044938,,['return'],[0.31682502940748236],2017_Mrz_01_1615,60.0178084617,famFaceGrey,001,27,
204,./greyInner/Usher4_1_cut.png,0,186,186,203,,,None,None,1,2.08297884694,None,None,None,None,None,None,2,1.28321166759,NeYo,"['lshift', 'n', 'e', 'y', 'lshift', 'backspace', 'lshift', 'y', 'o', 'return']","[0.33358664100887836, 0.4667547309145448, 0.6834027229560888, 0.9166695804015035, 1.0499842658409761, 1.516432333010016, 1.6663010866996046, 1.7663344155316736, 2.2327866528139566, 2.5324545513758494]",2017_Mrz_01_1615,60.0178084617,famFaceGrey,001,27,
102,./greyInner/JimParsons(SheldonCooper)10_1_cut.png,0,187,187,101,,,None,None,2,2.08281396706,None,None,None,None,None,None,3,2.582634171,,['return'],[0.28384231709424057],2017_Mrz_01_1615,60.0178084617,famFaceGrey,001,27,
60,./greyInner/ElvisPresley6_1_cut.png,0,188,188,59,,,None,None,1,1.59983749388,None,None,None,None,None,None,2,0.916809439597,Elvis,"['lshift', 'e', 'l', 'v', 'i', 's', 'return']","[0.4998599804130208, 0.6166504299544613, 0.8166782734824665, 0.8833202188598079, 1.0332714124906488, 1.2331844175041624, 1.6329344031491928]",2017_Mrz_01_1615,60.0178084617,famFaceGrey,001,27,
58,./greyInner/ElvisPresley4_10_cut.png,0,189,189,57,,,None,None,1,1.34996428137,None,None,None,None,None,None,2,1.19974940824,Elvis,"['lshift', 'e', 'l', 'v', 'i', 's', 'return']","[0.0839219341869466, 0.26716539087829005, 0.5337315684973873, 1.0834940163676947, 1.183438489699256, 1.3334063637848885, 1.8165018455947575]",2017_Mrz_01_1615,60.0178084617,famFaceGrey,001,27,
199,./greyInner/UrsulavonderLeyen7_1_cut.png,0,190,190,198,,,None,None,1,5.57989184008,None,None,None,None,None,None,3,1.06649759529,Tagesthemen,"['lshift', 't', 'a', 'g', 'e', 's', 't', 'h', 'e', 'm', 'e', 'n', 'return']","[0.4675605251904926, 0.5842739880172303, 0.7675081421475625, 0.8841151066862949, 1.017369165088894, 1.1340303411052446, 1.350542323285481, 1.4505965026855847, 1.5505396929056587, 1.7004665074109653, 1.7670654685389309, 1.8504934046450217, 2.416785862416873]",2017_Mrz_01_1615,60.0178084617,famFaceGrey,001,27,
43,./greyInner/CobieSmulders(Robin)3_4_cut.png,0,191,191,42,,,None,None,2,2.2994619591,None,None,None,None,None,None,1,0.483483302383,,['return'],[0.2834984431046905],2017_Mrz_01_1615,60.0178084617,famFaceGrey,001,27,
95,./greyInner/JanHofer9_2_cut.png,0,192,192,94,,,None,None,1,1.48303132622,None,None,None,None,None,None,3,1.16648761909,Jan Hofer,"['lshift', 'j', 'a', 'n', 'space', 'lshift', 'h', 'o', 'f', 'e', 'r', 'return']","[0.3339693291345611, 0.4006112745119026, 0.5172509584044747, 0.6172951936878235, 0.7171597933047451, 0.8004420962079166, 0.9171674278204591, 1.0337589950158872, 1.1503127104115265, 1.2835998089449276, 1.3836453273397638, 1.4670020507346635]",2017_Mrz_01_1615,60.0178084617,famFaceGrey,001,27,
71,./greyInner/GuentherJauch2_1_cut.png,0,193,193,70,,,None,None,1,1.44970377758,None,None,None,None,None,None,3,0.733380894013,Günther Jauch,"['lshift', 'g', u'\xfc', 'n', 't', 'h', 'e', 'r', 'space', 'lshift', 'j', 'a', 'c', 'h', 'backspace', 'backspace', 'u', 'c', 'h', 'return']","[0.6666529801404977, 0.7332580360507563, 1.0332980370640144, 1.1998530195323838, 1.3165305552247446, 1.466366910341094, 1.5995763806040486, 1.6829680687988002, 1.7995872229002998, 1.9325955653730489, 2.032894819147259, 2.1494575163251284, 2.332623023967244, 2.416031071838006, 2.7825404396771773, 2.93251569165659, 3.1156536123926344, 3.249142801052585, 3.3323638353631395, 3.8820890729875828]",2017_Mrz_01_1615,60.0178084617,famFaceGrey,001,27,
221,./greyInner/notfamousface6_8_cut.png,0,194,194,220,,,None,None,2,4.5485078852,None,None,None,None,None,None,5,2.11619412328,,['return'],[0.8502791249557049],2017_Mrz_01_1615,60.0178084617,famFaceGrey,001,27,
159,./greyInner/NicoleKidman7_1_cut.png,0,195,195,158,,,None,None,2,2.63257609415,None,None,None,None,None,None,1,0.683381872388,Kim Basinger,"['lshift', 'k', 'i', 'm', 'space', 'lshift', 'b', 'a', 's', 'n', 'backspace', 'i', 'n', 'g', 'e', 'r', 'return']","[1.2835125573346886, 1.3834024984116695, 1.550033826037179, 1.7166330758664117, 1.8166041737713385, 1.8665441722496325, 1.9497690558964678, 2.0995579358714167, 2.249491486712941, 2.4328812181611283, 2.9494370506909036, 3.166042379261853, 3.2994318059700163, 3.432685543595653, 3.5825222194889648, 3.6658289015176706, 3.7493091244341485]",2017_Mrz_01_1615,60.0178084617,famFaceGrey,001,27,
78,./greyInner/GeorgeClooney16_1_cut.png,0,196,196,77,,,None,None,1,4.3324623142,None,None,None,None,None,None,1,0.783430598562,George Clouney,"['lshift', 'g', 'e', 'o', 'r', 'g', 'e', 'space', 'lshift', 'c', 'l', 'o', 'u', 'n', 'e', 'y', 'return']","[0.516905480524656, 0.6336997794023773, 0.7834700542534847, 1.0500849901254696, 1.2000483733190777, 1.3998173490199406, 1.5330948242153681, 1.61660295481488, 1.6831143435556442, 1.7664915967397974, 1.9329878768385242, 2.132973056895935, 2.532865147184566, 2.7160463729487674, 2.832783894124077, 2.9826356465819117, 3.1824687778789666]",2017_Mrz_01_1615,60.0178084617,famFaceGrey,001,27,
161,./greyInner/OmarEpps(DrEricForeman)1_5_cut.png,0,197,197,160,,,None,None,2,2.61573813739,None,None,None,None,None,None,2,1.31653761234,,['return'],[0.6500572107506741],2017_Mrz_01_1615,60.0178084617,famFaceGrey,001,27,
88,./greyInner/Ice-T(OdafinFinTutuola)5_1_cut.png,0,198,198,87,,,None,None,2,1.91625481448,None,None,None,None,None,None,2,1.46640444136,,['return'],[0.5504944632120896],2017_Mrz_01_1615,60.0178084617,famFaceGrey,001,27,
57,./greyInner/ElvisPresley2_1_cut.png,0,199,199,56,,,None,None,1,1.04976036281,None,None,None,None,None,None,2,0.650079665211,Elvis,"['lshift', 'e', 'l', 'v', 'i', 's', 'return']","[0.5838207287361001, 0.6337591233259445, 0.849997481891478, 0.9335008008220029, 1.066956307793589, 1.200135945706279, 1.5501326256544417]",2017_Mrz_01_1615,60.0178084617,famFaceGrey,001,27,
25,./greyInner/BenedictCumberbatch6_5_cut.png,0,200,200,24,,,None,None,2,1.8166372139,None,None,None,None,None,None,3,2.13284121715,,['return'],[0.31716184628203337],2017_Mrz_01_1615,60.0178084617,famFaceGrey,001,27,
4,./greyInner/AlysonHannigan(Lily)5_4_cut.png,0,201,201,3,,,None,None,2,2.34962169049,None,None,None,None,None,None,1,0.633233047445,,['return'],[0.6832343145179038],2017_Mrz_01_1615,60.0178084617,famFaceGrey,001,27,
61,./greyInner/EmilyDeschanel15_1_cut.png,0,202,202,60,,,None,None,2,1.4832558708,None,None,None,None,None,None,1,0.46701231563,,['return'],[0.3333980235602212],2017_Mrz_01_1615,60.0178084617,famFaceGrey,001,27,
217,./greyInner/notfamousface2_cut.png,0,203,203,216,,,None,None,2,1.44995783373,None,None,None,None,None,None,2,0.80005170941,,['return'],[0.28378104850162345],2017_Mrz_01_1615,60.0178084617,famFaceGrey,001,27,
74,./greyInner/GuentherJauch7_1_cut.png,0,204,204,73,,,None,None,1,0.966694264265,None,None,None,None,None,None,3,0.866668954883,Günther Jauch,"['lshift', 'g', u'\xfc', 'n', 't', 'h', 'e', 'r', 'space', 'lshift', 'j', 'a', 'u', 'c', 'h', 'return']","[0.416681609573061, 0.5835159896596451, 1.1998937583339284, 1.3996274484579772, 1.4830941986983817, 1.6163440869877377, 1.7329600333087, 1.8162455439924088, 1.8994101213793328, 1.9659859864932514, 2.0661046422665095, 2.1826468096533063, 2.2658104247057054, 2.3659223441427457, 2.432605028323451, 2.6658237690699025]",2017_Mrz_01_1615,60.0178084617,famFaceGrey,001,27,
127,./greyInner/KatjaBurkard10_1_cut.png,0,205,205,126,,,None,None,1,1.3831638396,None,None,None,None,None,None,3,1.18331980185,Katja Burkhard,"['lshift', 'k', 'a', 't', 'j', 'a', 'space', 'lshift', 'b', 'u', 'r', 'h', 'backspace', 'k', 'a', 'h', 'backspace', 'backspace', 'j', 'h', 'a', 'r', 'backspace', 'backspace', 'backspace', 'backspace', 'h', 'a', 'r', 'd', 'return']","[0.21712627200395218, 0.5503674351330119, 0.6669253206418944, 0.8169089128477935, 0.9169088807702792, 1.0667214983150188, 1.2167176008624665, 1.3167265505690011, 1.4001888099173811, 1.5333068584568537, 1.6500065278323746, 1.8499769521022245, 2.2159169390342868, 2.416272617654613, 2.5661853179281024, 2.6161865850008326, 2.9825009198302723, 3.099219515104778, 3.316086919283407, 3.382602157360452, 3.482409658496181, 3.8989408231991547, 4.032326721349818, 4.165596818651466, 4.298768116337669, 4.883357749882634, 4.981864817103997, 5.081860294134458, 5.265104071602764, 5.414948125389856]",2017_Mrz_01_1615,60.0178084617,famFaceGrey,001,27,
76,./greyInner/GeorgeClooney11_1_cut.png,0,206,206,75,,,None,None,1,1.1332190936,None,None,None,None,None,None,1,0.600055622901,George Clouney,"['lshift', 'g', 'o', 'e', 'r', 'g', 'e', 'backspace', 'backspace', 'backspace', 'backspace', 'backspace', 'e', 'o', 'r', 'g', 'e', 'space', 'lshift', 'c', 'l', 'o', 'u', 'n', 'e', 'y', 'return']","[0.3837643359674985, 0.4838595749497472, 0.8669733731821907, 1.0002239030272904, 1.0835652290770668, 1.3501702208322968, 1.4834698297072464, 1.8496815155849617, 1.9665046844802418, 2.1330840460741456, 2.249531583958742, 2.882852203791117, 3.0327600923956197, 3.5491340438129555, 3.765970974083757, 3.915699547798795, 4.065617059741271, 4.248983053619668, 4.365499879546405, 4.465618856098445, 4.632092360960087, 4.848704105090292, 5.198584342633694, 5.381897728922922, 5.548290718512362, 5.731661524059746, 5.898283549126063]",2017_Mrz_01_1615,60.0178084617,famFaceGrey,001,27,
122,./greyInner/KaleyCuoco(Penny)14_2_cut.png,0,207,207,121,,,None,None,2,1.69976817376,None,None,None,None,None,None,1,1.00004041802,,['return'],[0.4334435419532383],2017_Mrz_01_1615,60.0178084617,famFaceGrey,001,27,
222,./greyInner/notfamousface7_cut.png,0,208,208,221,,,None,None,2,2.29962844287,None,None,None,None,None,None,4,1.35014135081,,['return'],[0.31703674287200556],2017_Mrz_01_1615,60.0178084617,famFaceGrey,001,27,
56,./greyInner/ElvisPresley1_1_cut.png,0,209,209,55,,,None,None,1,0.91660125469,None,None,None,None,None,None,2,1.76643353593,Elvis,"['lshift', 'e', 'l', 'v', 'i', 's', 'return']","[0.5000861288863234, 0.6011905353807379, 0.8001315831261309, 0.8999811061767105, 0.9998271006697905, 1.099765799999659, 1.2331494527043105]",2017_Mrz_01_1615,60.0178084617,famFaceGrey,001,27,
103,./greyInner/JimParsons(SheldonCooper)6_1_cut.png,0,210,210,102,,,None,None,2,2.48286997489,None,None,None,None,None,None,3,1.46655039534,,['return'],[0.20026746467556222],2017_Mrz_01_1615,60.0178084617,famFaceGrey,001,27,
72,./greyInner/GuentherJauch3_1_cut.png,0,211,211,71,,,None,None,1,1.06651267185,None,None,None,None,None,None,3,0.799798294807,Günther Jauch,"['lshift', 'g', u'\xfc', 'n', 't', 'h', 'e', 'r', 'space', 'lshift', 'j', 'a', 'u', 'c', 'h', 'return']","[0.3168718629913201, 0.40000307946866087, 0.7832894562525325, 1.0162255916020513, 1.1832678358168778, 1.3332225580052182, 1.4998198831654008, 1.5831528689905099, 1.6662481583334738, 1.7828884837817895, 1.8662522642916883, 2.0161277543193137, 2.0828444409653457, 2.2493888377612166, 2.3495334765502776, 2.632718198792645]",2017_Mrz_01_1615,60.0178084617,famFaceGrey,001,27,
150,./greyInner/MilaKunis7_3_cut.png,0,212,212,149,,,None,None,2,2.09980044402,None,None,None,None,None,None,1,0.416544958156,,['return'],[0.5334800785658445],2017_Mrz_01_1615,60.0178084617,famFaceGrey,001,27,
23,./greyInner/BenedictCumberbatch3_9_cut.png,0,213,213,22,,,None,None,2,2.14975808529,None,None,None,None,None,None,1,0.950110363663,,['return'],[0.2670608172593347],2017_Mrz_01_1615,60.0178084617,famFaceGrey,001,27,
20,./greyInner/BastianSchweinsteiger6_2_cut.png,0,214,214,19,,,None,None,1,1.03372980422,None,None,None,None,None,None,5,1.03311936373,Bastian Schweinsteiger,"['lshift', 'b', 'a', 's', 't', 'o', 'backspace', 'i', 'a', 'n', 'space', 'lshift', 's', 'c', 'h', 'w', 'i', 'backspace', 'e', 'i', 'n', 's', 't', 'e', 'i', 'g', 'e', 'r', 'return']","[0.566782285741283, 0.6501293857963901, 0.8496119067640393, 0.9995120966977993, 1.1327934212276887, 1.182730853483008, 1.7158612840539718, 1.9654178886958107, 2.149013880383791, 2.2491139310332073, 2.399058067549049, 2.482421848058948, 2.532331051852452, 2.6987352686719532, 2.7653348713556625, 2.8988112288971024, 3.03198862136378, 3.6156451117767574, 3.6656043569346366, 3.832237288450415, 3.9321320411963825, 4.115198428444273, 4.465241621199311, 4.6317561856412794, 4.781792385436347, 4.931426008870403, 5.081713377820051, 5.148269033921679, 5.631501167150418]",2017_Mrz_01_1615,60.0178084617,famFaceGrey,001,27,
89,./greyInner/Ice-T(OdafinFinTutuola)6_1_cut.png,0,215,215,88,,,None,None,2,2.3162453836,None,None,None,None,None,None,2,0.899789280948,,['return'],[0.4169571578549949],2017_Mrz_01_1615,60.0178084617,famFaceGrey,001,27,
49,./greyInner/CristinMilioti(Tracy_Mutter)8_1_cut.png,0,216,216,48,,,None,None,2,1.64967708885,None,None,None,None,None,None,1,0.466715275223,,['return'],[0.2502905446526711],2017_Mrz_01_1615,60.0178084617,famFaceGrey,001,27,
129,./greyInner/KatjaBurkard5_3_cut.png,0,217,217,128,,,None,None,1,1.76644027226,None,None,None,None,None,None,3,1.21625215202,Katja Burkhard,"['lshift', 'k', 'a', 't', 'j', 'a', 'space', 'lshift', 'b', 'r', 'backspace', 'u', 'r', 'k', 'h', 'a', 'r', 'd', 'return']","[0.6332782771387429, 0.7500305541016132, 0.8664822620994528, 1.0832784535668907, 1.4164044574026775, 1.7662173315693508, 2.316114826966441, 2.4325216260494926, 2.5324789304995647, 2.832218683328392, 3.298724811309512, 3.5156887696593913, 3.6820368503322243, 3.882120188449335, 4.1986167412087525, 4.3318906878466805, 4.465074816651395, 4.614969874135568, 4.7150891714645695]",2017_Mrz_01_1615,60.0178084617,famFaceGrey,001,27,
97,./greyInner/JasonSegel(Marshall)14_1_cut.png,0,218,218,96,,,None,None,2,5.33161546034,None,None,None,None,None,None,1,0.749670961992,,['return'],[0.3503325344900077],2017_Mrz_01_1615,60.0178084617,famFaceGrey,001,27,
90,./greyInner/Ice-T(OdafinFinTutuola)7_1_cut.png,0,219,219,89,,,None,None,2,2.36623991434,None,None,None,None,None,None,2,1.38296495725,,['return'],[0.6164993435268116],2017_Mrz_01_1615,60.0178084617,famFaceGrey,001,27,
38,./greyInner/CarenMiosga2_11_cut.png,0,220,220,37,,,None,None,2,1.61667577142,None,None,None,None,None,None,2,1.08309368545,,['return'],[0.6502589800984424],2017_Mrz_01_1615,60.0178084617,famFaceGrey,001,27,
104,./greyInner/JimParsons(SheldonCooper)8_1_cut.png,0,221,221,103,,,None,None,2,1.16703743254,None,None,None,None,None,None,3,0.916695884194,,['return'],[0.4168641322412441],2017_Mrz_01_1615,60.0178084617,famFaceGrey,001,27,
115,./greyInner/JoshRadnor(Ted)9_1_cut.png,0,222,222,114,,,None,None,2,2.41587613607,None,None,None,None,None,None,2,0.816693350049,,['return'],[0.46675729713751934],2017_Mrz_01_1615,60.0178084617,famFaceGrey,001,27,
162,./greyInner/OmarEpps(DrEricForeman)2_2_cut.png,0,223,223,161,,,None,None,2,1.19955918691,None,None,None,None,None,None,2,0.633313562717,,['return'],[0.38356192506580555],2017_Mrz_01_1615,60.0178084617,famFaceGrey,001,27,
