num,pic,trials.thisRepN,trials.thisTrialN,trials.thisN,trials.thisIndex,key_resp_2.keys,key_resp_2.rt,ratingBekannt.response,ratingBekannt.rt,key_resp_5.keys,ratingK1.response,ratingK1.rt,ratingK2.response,ratingK2.rt,ratingK3.response,ratingK3.rt,key_resp_6.keys,inputText,key_resp_4.keys,key_resp_4.rt,date,frameRate,expName,session,participant,
,,,,,,space,31.1855194693,,,,,,,,,,,,,,2017_Jan_25_1025,59.9040172481,famFaceGrey,001,2,
72,./greyInner/GuentherJauch3_1_cut.png,0,0,0,71,,,1.ja,9.1,None,None,None,host,3.381,None,None,None,Günther Jauch,"['lshift', 'g', u'\xfc', 'n', 't', 'h', 'e', 'r', 'space', 'lshift', 'j', 'a', 'u', 'v', 'c', 'h', 'backspace', 'backspace', 'backspace', 'c', 'h', 'return']","[3.115864903297279, 3.2326789825374362, 3.5156758379707753, 3.748632933229601, 3.9322729764571704, 4.015494118413244, 4.148831685988625, 4.298746311477771, 4.398456297969915, 4.481791315376995, 4.598688796355873, 4.765161874755449, 4.865066893006315, 4.998365967471273, 5.098437468423526, 5.781385758383294, 5.964605264382044, 6.097964965495521, 6.5644818939636025, 6.631118600159425, 8.363703755740516]",2017_Jan_25_1025,59.9040172481,famFaceGrey,001,2,
131,./greyInner/LeonardoDiCaprio1_1_cut.png,0,1,1,130,,,1.ja,2.934,None,act,2.636,None,None,None,None,None,Leonardo DiCaprio,"['lshift', 'l', 'e', 'o', 'n', 'a', 'r', 'd', 'o', 'space', 'lshift', 'd', 'i', 'lshift', 'c', 'a', 'p', 'r', 'i', 'o', 'return']","[1.016584114984198, 1.199708029759222, 1.3331822478758113, 1.433171630193101, 1.6161104572629483, 1.699709473251005, 1.916326243223466, 2.0828092656765875, 2.1661792476588744, 2.3494500778042493, 2.432732808736546, 2.5661095109740018, 2.682610833693616, 2.799158989697389, 2.9324628758013205, 3.0825744577045953, 3.2490555555023093, 3.3823555922954256, 3.532243272607502, 3.682208901467675, 4.665138169415513]",2017_Jan_25_1025,59.9040172481,famFaceGrey,001,2,
97,./greyInner/JasonSegel(Marshall)14_1_cut.png,0,2,2,96,,,1.ja,7.053,None,act,1.405,None,None,None,None,None,Eric,"['lshift', 'e', 'r', 'i', 'c', 'return']","[13.22835267772507, 13.378261529247993, 13.594951436130032, 13.761474234797333, 13.878020466145244, 15.443855072157021]",2017_Jan_25_1025,59.9040172481,famFaceGrey,001,2,
121,./greyInner/KaleyCuoco(Penny)10_1_cut.png,0,3,3,120,,,1.ja,10.78,None,act,1.375,None,None,None,None,None,Penny,"['lshift', 'p', 'e', 'n', 'n', 'y', 'return']","[26.756617366615956, 26.906496706754297, 27.123064398011138, 27.273017195834655, 27.406328459785072, 27.48973533099752, 27.98938007166771]",2017_Jan_25_1025,59.9040172481,famFaceGrey,001,2,
187,./greyInner/TaylorSwift2_1_cut.png,0,4,4,186,,,1.ja,2.065,None,None,None,music,1.576,None,None,None,Taylor Swift,"['lshift', 't', 'a', 'y', 'l', 'o', 'r', 'space', 'lshift', 's', 'w', 'i', 'f', 't', 'return']","[0.9667419527745551, 1.166579896780604, 1.3999411696963762, 1.616517842679059, 1.7164154830834377, 1.8826005047085346, 1.9662736199334176, 2.1330241695031873, 2.2160842819475874, 2.349430189697159, 2.582809746840212, 2.6993341654260803, 2.8660391648149925, 3.0658918645131052, 3.349192815517654]",2017_Jan_25_1025,59.9040172481,famFaceGrey,001,2,
118,./greyInner/JudithRakers4_3_cut.png,0,5,5,117,,,2.nein,23.979,None,None,None,host,2.927,None,None,None,,['return'],[1.2173680271735066],2017_Jan_25_1025,59.9040172481,famFaceGrey,001,2,
160,./greyInner/NicoleKidman8_2_cut.png,0,6,6,159,,,2.nein,6.309,None,None,None,music,3.46,None,None,None,,['return'],[0.8500298802769066],2017_Jan_25_1025,59.9040172481,famFaceGrey,001,2,
18,./greyInner/BastianSchweinsteiger14_1_cut.png,0,7,7,17,,,1.ja,3.704,None,None,None,None,None,sport,1.213,None,Bastian Schweinsteiger,"['lshift', 'b', 'a', 's', 't', 'i', 'a', 'n', 'space', 'lshift', 's', 'c', 'h', 'w', 'e', 'i', 'n', 's', 't', 'e', 'i', 'g', 'e', 'r', 'return']","[0.8333793646775121, 0.9828003160282606, 1.1333981942239006, 1.3165673384032743, 1.3831812695088956, 1.5998602700096853, 1.6999320917379919, 1.8164398299759341, 1.9495352117328366, 2.0163008698477825, 2.1330886454625215, 2.316299490511483, 2.4494343277065127, 2.5825005188548857, 2.6990470709788497, 2.7493376779220853, 2.9324016076006956, 2.999005273876719, 3.1159341908955867, 3.2158725698418493, 3.3157586623128736, 3.4823462577155624, 3.5825123875638383, 3.7489315756097312, 4.648384684746361]",2017_Jan_25_1025,59.9040172481,famFaceGrey,001,2,
210,./greyInner/WillSmith6_1_cut.png,0,8,8,209,,,1.ja,1.457,None,act,2.228,None,None,None,None,None,Will Smith,"['lshift', 'w', 'i', 'l', 'l', 'space', 'lshift', 's', 'm', 'i', 't', 'h', 'return']","[0.7501672044472798, 0.9166515100046126, 1.050060931385815, 1.2498937429768375, 1.3830414112085236, 1.5499526695130044, 1.6164774249136826, 1.7663991074732621, 1.8828147830222406, 3.548935168299977, 3.7988895379253336, 3.8822890312922027, 4.515203335043225]",2017_Jan_25_1025,59.9040172481,famFaceGrey,001,2,
25,./greyInner/BenedictCumberbatch6_5_cut.png,0,9,9,24,,,1.ja,1.428,None,act,1.453,None,None,None,None,None,Benedict Cumberbatch,"['lshift', 'n', 'e', 'backspace', 'backspace', 'lshift', 'b', 'e', 'n', 'e', 'd', 'i', 'c', 't', 'space', 'lshift', 'c', 'u', 'm', 'b', 'e', 'r', 'b', 'a', 't', 'c', 'h', 'return']","[0.7169149311889669, 0.9167329870879257, 1.1334463106118164, 2.0164160284030004, 2.115967230815386, 2.26627191982152, 2.4328595152242087, 2.5493245902648596, 2.6493919211302455, 2.7660850678489624, 2.9659627880687367, 3.082589534172712, 3.182663280555971, 3.3824861480939035, 3.5159106459432223, 3.6490570310716066, 3.815609341123036, 3.965733754062967, 4.131982610096202, 4.332144858555694, 4.415451647681493, 4.515340627136084, 4.615306913587119, 4.765403419022277, 4.865209959065851, 4.981815854734577, 5.131826071447904, 6.364659988753829]",2017_Jan_25_1025,59.9040172481,famFaceGrey,001,2,
130,./greyInner/KatjaBurkard7_1_cut.png,0,10,10,129,,,2.nein,3.594,None,act,4.142,None,None,None,None,None,,['return'],[0.8000735218406589],2017_Jan_25_1025,59.9040172481,famFaceGrey,001,2,
162,./greyInner/OmarEpps(DrEricForeman)2_2_cut.png,0,11,11,161,,,2.nein,7.584,None,None,None,music,1.435,None,None,None,,['return'],[0.7834672733183652],2017_Jan_25_1025,59.9040172481,famFaceGrey,001,2,
155,./greyInner/NeilPatrickHarris(Barney)3_7_cut.png,0,12,12,154,,,1.ja,2.087,None,act,0.881,None,None,None,None,None,,['return'],[59.67629860517036],2017_Jan_25_1025,59.9040172481,famFaceGrey,001,2,
94,./greyInner/JanHofer7_1_cut.png,0,13,13,93,,,2.nein,1.92,None,None,None,host,1.275,None,None,None,,['return'],[1.3331578689062553],2017_Jan_25_1025,59.9040172481,famFaceGrey,001,2,
48,./greyInner/CristinMilioti(Tracy_Mutter)4_2_cut.png,0,14,14,47,,,2.nein,2.439,None,act,1.062,None,None,None,None,None,,['return'],[1.0998578641906533],2017_Jan_25_1025,59.9040172481,famFaceGrey,001,2,
37,./greyInner/CarenMiosga13_1_cut.png,0,15,15,36,,,2.nein,2.459,None,None,None,None,None,polit,2.244,None,,['return'],[0.9165613719715111],2017_Jan_25_1025,59.9040172481,famFaceGrey,001,2,
84,./greyInner/HughLaurie(DrHouse)8_1_cut.png,0,16,16,83,,,2.nein,2.519,None,None,None,music,1.459,None,None,None,,['return'],[0.7999147377609006],2017_Jan_25_1025,59.9040172481,famFaceGrey,001,2,
120,./greyInner/JudithRakers8_1_cut.png,0,17,17,119,,,2.nein,3.675,None,act,3.34,None,None,None,None,None,,['return'],[0.5667664600546232],2017_Jan_25_1025,59.9040172481,famFaceGrey,001,2,
193,./greyInner/TomCruise5_1_cut.png,0,18,18,192,,,1.ja,1.52,None,act,1.727,None,None,None,None,None,Tom Cruise,"['lshift', 't', 'o', 'm', 'space', 'lshift', 'c', 'r', 'u', 'i', 's', 'e', 'return']","[11.029160776418848, 11.129272695136933, 11.42894572824298, 11.61222169080338, 11.795573035704365, 11.845429632830019, 11.962075625488978, 12.245316912172257, 12.311994677686016, 12.461977628445766, 12.528556915752233, 12.695078431315778, 13.194851803129495]",2017_Jan_25_1025,59.9040172481,famFaceGrey,001,2,
100,./greyInner/JasonSegel(Marshall)9_1_cut.png,0,19,19,99,,,1.ja,6.032,None,act,0.646,None,None,None,None,None,Eric,"['lshift', 'e', 'r', 'i', 'c', 'return']","[0.5001881350763142, 0.63353115584232, 1.2000589586136812, 1.2833567660140943, 1.4665509307151297, 1.7996664572001464]",2017_Jan_25_1025,59.9040172481,famFaceGrey,001,2,
140,./greyInner/LisaEdelstein(DrLisaCuddy)9_1_cut.png,0,20,20,139,,,2.nein,3.665,None,dummy,1.046,None,None,None,None,None,,['return'],[1.2832820252251622],2017_Jan_25_1025,59.9040172481,famFaceGrey,001,2,
14,./greyInner/BarackObama4_1_cut.png,0,21,21,13,,,1.ja,1.397,None,None,None,None,None,polit,1.447,None,Barack Obama,"['lshift', 'b', 'a', 'r', 'a', 'c', 'k', 'space', 'lshift', 'o', 'b', 'a', 'm', 'a', 'return']","[0.6169050192129362, 0.8668372553001973, 0.9999967922408359, 1.1335130320030657, 1.2332566999666597, 1.4166022709014214, 1.4997945430245636, 1.666315417036003, 1.7496501136670304, 1.8829565659784748, 2.082881761034514, 2.1991534081962527, 2.3328759068735963, 2.4159581528570016, 3.5990506315920356]",2017_Jan_25_1025,59.9040172481,famFaceGrey,001,2,
50,./greyInner/CristinMilioti(Tracy_Mutter)9_1_cut.png,0,22,22,49,,,2.nein,4.335,None,None,None,music,0.819,None,None,None,,['return'],[0.83342331097856],2017_Jan_25_1025,59.9040172481,famFaceGrey,001,2,
123,./greyInner/KaleyCuoco(Penny)3_1_cut.png,0,23,23,122,,,1.ja,2.993,None,act,0.529,None,None,None,None,None,Penny,"['lshift', 'p', 'e', 'backspace', 'backspace', 'lshift', '2', 'lshift', 'p', 'e', 'n', 'n', 'y', 'return']","[0.6003006953460499, 0.7336167709349866, 0.9168404470206042, 1.2501898191499095, 1.3833711688530457, 1.5998256262109862, 1.6832119677646915, 1.9331034653105235, 2.0328708706920224, 2.166330974668199, 2.2831476201154146, 2.382936838259411, 2.4830497193051997, 3.515853227053867]",2017_Jan_25_1025,59.9040172481,famFaceGrey,001,2,
213,./greyInner/notfamousface12_2_cut.png,0,24,24,212,,,2.nein,2.426,None,None,None,music,0.819,None,None,None,,['return'],[1.0998674874681456],2017_Jan_25_1025,59.9040172481,famFaceGrey,001,2,
173,./greyInner/SahraWagenknecht5_1_cut.png,0,25,25,172,,,2.nein,14.546,None,act,3.993,None,None,None,None,None,,['return'],[1.466692072119713],2017_Jan_25_1025,59.9040172481,famFaceGrey,001,2,
204,./greyInner/Usher4_1_cut.png,0,26,26,203,,,1.ja,4.923,None,None,None,music,2.811,None,None,None,,['return'],[0.7999487400079488],2017_Jan_25_1025,59.9040172481,famFaceGrey,001,2,
95,./greyInner/JanHofer9_2_cut.png,0,27,27,94,,,2.nein,2.216,None,dummy,3.311,None,None,None,None,None,,['return'],[0.8170050371440993],2017_Jan_25_1025,59.9040172481,famFaceGrey,001,2,
89,./greyInner/Ice-T(OdafinFinTutuola)6_1_cut.png,0,28,28,88,,,2.nein,4.314,None,act,2.273,None,None,None,None,None,,['return'],[2.5827715745058413],2017_Jan_25_1025,59.9040172481,famFaceGrey,001,2,
171,./greyInner/SahraWagenknecht12_1_cut.png,0,29,29,170,,,1.ja,5.172,None,None,None,None,None,polit,1.963,None,Sahra Wagenknecht,"['lshift', 's', 'a', 'h', 'r', 'a', 'space', 'lshift', 'w', 'a', 'g', 'e', 'n', 'k', 'n', 'e', 'c', 'h', 't', 'return']","[0.6667552008198072, 1.199705142775656, 1.5497553923232772, 1.716475468180306, 1.9496038577794934, 2.0493709423849396, 2.8824853461537714, 3.015921071160392, 3.1159457388284864, 3.3325403752628517, 3.432444110409506, 3.5822868820932854, 3.6488671317274566, 3.832057767893275, 4.015188739738733, 4.081994174067404, 4.248744402861121, 4.381866729795092, 4.481798693223027, 6.164669034634244]",2017_Jan_25_1025,59.9040172481,famFaceGrey,001,2,
19,./greyInner/BastianSchweinsteiger3_1_cut.png,0,30,30,18,,,1.ja,2.061,None,None,None,None,None,sport,0.812,None,Bastian Schweinsteiger,"['lshift', 'b', 'a', 's', 't', 'i', 'a', 'n', 'space', 'lshift', 's', 'c', 'h', 'w', 'i', 'e', 'n', 's', 't', 'e', 'i', 'g', 'e', 'backspace', 'backspace', 'backspace', 'backspace', 'backspace', 'backspace', 'backspace', 'backspace', 'backspace', 'e', 'i', 'n', 's', 't', 'e', 'i', 'g', 'e', 'r', 'return']","[0.6171808865028652, 0.8173514751360926, 0.9673308973610801, 1.16714959481169, 1.250491348513151, 1.433707325976684, 1.5505416140995294, 1.6668302623847921, 1.783594621357679, 1.9002069325447337, 2.033567275210771, 2.250003769117029, 2.349915202885768, 2.4999725736588516, 2.6165127102644874, 2.7999862707906686, 2.8665174417092203, 2.9831756238527305, 3.0662613983713527, 3.1663463719119136, 3.3659992282132407, 3.41611084219403, 3.7657315727865353, 3.899383821538322, 4.0660413460909695, 4.216028146161989, 4.36586001146452, 4.53226123605873, 4.665825592208421, 4.815659702941957, 4.965655805514871, 5.41551419898542, 5.5485447840069355, 5.731881693991909, 5.815161858716692, 5.931845382157917, 6.048449994723342, 6.148443547127044, 6.3149923286437115, 6.398453731762402, 6.564954396891608, 7.064591759715768]",2017_Jan_25_1025,59.9040172481,famFaceGrey,001,2,
129,./greyInner/KatjaBurkard5_3_cut.png,0,31,31,128,,,1.ja,8.13,None,None,None,host,3.235,None,None,None,eine von RTL,"['e', 'i', 'n', 'e', 'space', 'v', 'o', 'n', 'space', 'lshift', 'r', 't', 'l', 'backspace', 'lshift', 'backspace', 'lshift', 't', 'l', 'backspace', 'lshift', 'l', 'return']","[12.578637414469085, 12.711790215115798, 12.961687486627852, 13.078162184945995, 13.261718826434844, 13.444841458106566, 13.561608062510459, 13.778081124871733, 13.927930312073386, 14.061352243715646, 14.311131148913773, 14.494401979059148, 14.894340903324519, 15.727258992231327, 16.02714630365108, 16.460350973763525, 16.576761516898387, 16.80999768720585, 17.176779929435725, 17.959614953418622, 18.14292138969131, 18.542474741302613, 19.475438027536256]",2017_Jan_25_1025,59.9040172481,famFaceGrey,001,2,
62,./greyInner/EmilyDeschanel3_1_cut.png,0,32,32,61,,,2.nein,1.925,None,act,1.718,None,None,None,None,None,,['return'],[1.050312098930135],2017_Jan_25_1025,59.9040172481,famFaceGrey,001,2,
109,./greyInner/JoachimLoew4_1_cut.png,0,33,33,108,,,1.ja,1.438,None,None,None,None,None,sport,3.309,None,Joachim Löw,"['lshift', 'j', 'o', 'a', 'c', 'h', 'i', 'm', 'space', 'lshift', 'l', u'\xf6', 'w', 'return']","[0.8332244299090235, 0.9667204607885651, 1.1498430924598324, 1.2331245402883724, 1.416511812092267, 1.5165069683757793, 1.6329024350420696, 1.816351937374293, 1.9660073759214356, 2.0327723924847305, 2.166170265933033, 2.299425073321345, 2.349315351918449, 3.132398335686503]",2017_Jan_25_1025,59.9040172481,famFaceGrey,001,2,
167,./greyInner/RobertSeanLeonard(Wilson)10_1_cut.png,0,34,34,166,,,2.nein,2.343,None,dummy,3.17,None,None,None,None,None,,['return'],[1.0167720896720311],2017_Jan_25_1025,59.9040172481,famFaceGrey,001,2,
71,./greyInner/GuentherJauch2_1_cut.png,0,35,35,70,,,1.ja,3.073,None,None,None,host,0.545,None,None,None,Günther Jauch,"['lshift', 'g', u'\xfc', 'n', 't', 'h', 'e', 'r', 'space', 'lshift', 'j', 'a', 'u', 'c', 'h', 'return']","[0.9341745361020912, 1.1507787958139488, 1.4174279481153462, 1.6505496014201526, 1.7672456351219807, 1.8336808940412084, 1.967109561977395, 2.116876951320137, 2.1835960969269763, 2.2833959006766236, 2.433533144653211, 2.6001694979954664, 2.7335182927281494, 2.8667339654543866, 2.983111789445502, 3.2666003943622854]",2017_Jan_25_1025,59.9040172481,famFaceGrey,001,2,
211,./greyInner/notfamousface10_4_cut.png,0,36,36,210,,,2.nein,2.288,None,dummy,1.647,None,None,None,None,None,,['return'],[0.8665572179234005],2017_Jan_25_1025,59.9040172481,famFaceGrey,001,2,
166,./greyInner/RobertSeanLeonard(Wilson)1_1_cut.png,0,37,37,165,,,1.ja,3.783,None,act,0.436,None,None,None,None,None,,['return'],[0.916912942378076],2017_Jan_25_1025,59.9040172481,famFaceGrey,001,2,
26,./greyInner/Beyonce1_1_cut.png,0,38,38,25,,,1.ja,4.095,None,None,None,music,0.891,None,None,None,Beyonce Knowles,"['lshift', 'b', 'e', 'y', 'o', 'n', 'c', 'e', 'space', 'lshift', 'k', 'n', 'o', 'w', 'l', 'e', 's', 'return']","[1.066601100068965, 1.2500980772374533, 1.4666272753838712, 1.7165463596584232, 2.0496298085513445, 2.26618691420299, 2.3493984328815714, 2.549353780873844, 2.632869395122725, 2.732525491260276, 2.7992472030746285, 2.982549469260448, 3.132513494241266, 3.1992156387245814, 3.315869971556822, 3.399018297379371, 3.549049685303089, 5.16498596124211]",2017_Jan_25_1025,59.9040172481,famFaceGrey,001,2,
111,./greyInner/JoshRadnor(Ted)1_2_cut.png,0,39,39,110,,,1.ja,5.187,None,act,0.59,None,None,None,None,None,Ted,"['lshift', 't', 'e', 'd', 'lshift', '1', 'return']","[0.48371115924874175, 0.6835866340375105, 0.8502720660953855, 1.050214262274494, 1.2333490834307668, 1.3668723802629756, 2.2163963969164797]",2017_Jan_25_1025,59.9040172481,famFaceGrey,001,2,
69,./greyInner/EmmaWatson(HermioneGranger)4_1_cut.png,0,40,40,68,,,1.ja,1.833,None,act,0.527,None,None,None,None,None,Emma Watson,"['lshift', 'e', 'm', 'm', 'a', 'space', 'lshift', 'w', 'a', 't', 's', 'o', 'n', 'return']","[0.5001281499794459, 0.6166843253813568, 0.7834278178802379, 0.9165799769748446, 0.9666130008558866, 1.1332220882450201, 1.2331851669368916, 1.2998622908985453, 1.4830843631043535, 1.5831844131134858, 1.7163208541878703, 1.8162037389001853, 1.9995720849251484, 3.0324307661317107]",2017_Jan_25_1025,59.9040172481,famFaceGrey,001,2,
6,./greyInner/AngelaMerkel1_1_cut.png,0,41,41,5,,,1.ja,1.727,None,None,None,None,None,polit,0.994,None,Angela Merkel,"['lshift', 'a', 'n', 'g', 'e', 'l', 'a', 'space', 'lshift', 'm', 'e', 'r', 'k', 'e', 'l', 'return']","[0.3670504108977184, 0.5503844338995805, 0.6671237723503509, 0.8503076722222431, 0.9168147849468369, 1.0835614852053368, 1.1668339513080355, 1.383285200906812, 1.5000351249627784, 1.6332264187194596, 1.7999731189779595, 1.9497533393573576, 2.0331618144496133, 2.149685591483376, 2.283148903219171, 2.8327711735360026]",2017_Jan_25_1025,59.9040172481,famFaceGrey,001,2,
105,./greyInner/JimParsons(SheldonCooper)9_3_cut.png,0,42,42,104,,,2.nein,2.197,None,None,None,music,1.849,None,None,None,,['return'],[3.482658051908402],2017_Jan_25_1025,59.9040172481,famFaceGrey,001,2,
33,./greyInner/BritneySpears5_1_cut.png,0,43,43,32,,,1.ja,1.228,None,None,None,music,1.096,None,None,None,Britney Spears,"['lshift', 'b', 'r', 'i', 't', 'n', 'e', 'y', 'space', 'lshift', 's', 'p', 'e', 'a', 'r', 's', 'return']","[0.5834923579946008, 0.800243853853317, 0.9501947270209712, 1.0666431217141508, 1.283418996542423, 1.483348682460928, 1.5665804100221976, 1.7497774617063442, 1.866426341348415, 1.966449084361102, 2.116337406225284, 2.2162087430042448, 2.3662330738575292, 2.5494464851140037, 2.6494095638054205, 2.749512180022066, 3.4156348107308077]",2017_Jan_25_1025,59.9040172481,famFaceGrey,001,2,
182,./greyInner/SigmarGabriel11_3_cut.png,0,44,44,181,,,2.nein,4.499,None,dummy,0.913,None,None,None,None,None,,['return'],[0.9836866198911594],2017_Jan_25_1025,59.9040172481,famFaceGrey,001,2,
31,./greyInner/BritneySpears1_1_cut.png,0,45,45,30,,,1.ja,1.35,None,None,None,music,1.509,None,None,None,Britney Spears,"['lshift', 'b', 'r', 'i', 't', 'n', 'e', 'y', 'space', 'lshift', 's', 'p', 'e', 'a', 'r', 's', 'return']","[0.5833881058215411, 0.8330576264315823, 1.033148341861306, 1.1172910730306285, 1.2830161019887782, 1.499688366195187, 1.5664899512130432, 1.7661764889858205, 1.8829780579649196, 2.015897333742487, 2.1495774899990465, 2.299430847288022, 2.4491061739418, 2.6159876000861004, 2.7326932570654208, 2.848928014997, 3.5322153651022745]",2017_Jan_25_1025,59.9040172481,famFaceGrey,001,2,
119,./greyInner/JudithRakers7_1_cut.png,0,46,46,118,,,2.nein,2.276,None,act,3.378,None,None,None,None,None,,['return'],[1.0002809997045006],2017_Jan_25_1025,59.9040172481,famFaceGrey,001,2,
208,./greyInner/WillSmith4_1_cut.png,0,47,47,207,,,1.ja,1.159,None,dummy,0.709,None,None,None,None,None,Will Smith,"['lshift', 'w', 'i', 'l', 'l', 'space', 'lshift', 's', 'm', 'i', 't', 'h', 'return']","[0.5500761682415032, 0.6666134178640277, 0.7833569264021207, 0.9831502825554708, 1.1000695762963915, 1.2998488183093286, 1.366570850899734, 1.4997060088708167, 1.5997377336088903, 1.7494185134537474, 1.8829511127873957, 1.9495021718130374, 2.466048916402542]",2017_Jan_25_1025,59.9040172481,famFaceGrey,001,2,
224,./greyInner/notfamousface9_1_cut.png,0,48,48,223,,,2.nein,2.038,None,None,None,None,None,sport,2.71,None,,['return'],[0.9833549375912298],2017_Jan_25_1025,59.9040172481,famFaceGrey,001,2,
150,./greyInner/MilaKunis7_3_cut.png,0,49,49,149,,,2.nein,1.944,None,act,0.825,None,None,None,None,None,,['return'],[1.399737156212268],2017_Jan_25_1025,59.9040172481,famFaceGrey,001,2,
147,./greyInner/MilaKunis10_1_cut.png,0,50,50,146,,,2.nein,2.66,None,dummy,1.246,None,None,None,None,None,,['return'],[0.45044445107396314],2017_Jan_25_1025,59.9040172481,famFaceGrey,001,2,
165,./greyInner/OmarEpps(DrEricForeman)9_1_cut.png,0,51,51,164,,,2.nein,2.469,None,None,None,music,1.662,None,None,None,,['return'],[0.583757318903281],2017_Jan_25_1025,59.9040172481,famFaceGrey,001,2,
82,./greyInner/HughLaurie(DrHouse)4_1_cut.png,0,52,52,81,,,1.ja,5.795,None,act,0.909,None,None,None,None,None,Doktor House,"['lshift', 'd', 'o', 'k', 't', 'o', 'r', 'space', 'lshift', 'h', 'o', 'u', 's', 'e', 'return']","[3.5155969270949754, 3.6823048134674536, 3.798861309644508, 3.965201586814146, 4.08200091036224, 4.18203616363553, 4.298632115251166, 4.3820531006040255, 4.531884003578398, 4.59864100074401, 4.781736687238208, 4.9649645334106935, 5.031567237359013, 5.231491149311296, 7.347414113050036]",2017_Jan_25_1025,59.9040172481,famFaceGrey,001,2,
9,./greyInner/AngelaMerkel5_1_cut.png,0,53,53,8,,,1.ja,1.911,None,None,None,None,None,polit,0.911,None,Angela Merkel,"['lshift', 'a', 'n', 'g', 'e', 'l', 'a', 'space', 'lshift', 'm', 'e', 'r', 'k', 'e', 'l', 'return']","[0.750149240996052, 0.9668208636508098, 1.0667335805233051, 1.233429598186376, 1.300010810148251, 1.4333775683326166, 1.5332726425294823, 1.6498971432015423, 1.6997617597253338, 1.833082967728842, 1.999842819800051, 2.133025773382542, 2.199598965946734, 2.3496062956764945, 2.4329490117052046, 2.9659400129785354]",2017_Jan_25_1025,59.9040172481,famFaceGrey,001,2,
52,./greyInner/DannFlorek(DonaldDonCragen)10_1_cut.png,0,54,54,51,,,2.nein,3.626,None,None,None,host,1.252,None,None,None,,['return'],[0.8000221976935791],2017_Jan_25_1025,59.9040172481,famFaceGrey,001,2,
203,./greyInner/Usher2_1_cut.png,0,55,55,202,,,2.nein,5.597,None,None,None,music,0.596,None,None,None,,['return'],[0.766764471244187],2017_Jan_25_1025,59.9040172481,famFaceGrey,001,2,
175,./greyInner/SahraWagenknecht9_1_cut.png,0,56,56,174,,,1.ja,1.632,None,None,None,None,None,polit,2.258,None,Sahra Wagenknecht,"['lshift', 's', 'a', 'h', 'r', 'a', 'space', 'lshift', 'w', 'a', 'g', 'e', 'n', 'k', 'n', 'e', 'c', 'h', 't', 'return']","[0.4333400375498968, 0.6167032511602883, 0.8330701366921858, 0.8998454180850786, 1.083240388511058, 1.1666241638577048, 1.3164104789793782, 1.432926878167109, 1.5331529931122532, 1.7163102685826743, 1.8010656817564268, 1.949594555278054, 2.0162344692330407, 2.1660900719534766, 2.3493535242528196, 2.449061265313503, 2.5992158311896674, 2.71599077576775, 2.8491442179661135, 3.532330202880985]",2017_Jan_25_1025,59.9040172481,famFaceGrey,001,2,
212,./greyInner/notfamousface11_1_cut.png,0,57,57,211,,,2.nein,2.416,None,act,1.468,None,None,None,None,None,,['return'],[0.7000921589215068],2017_Jan_25_1025,59.9040172481,famFaceGrey,001,2,
102,./greyInner/JimParsons(SheldonCooper)10_1_cut.png,0,58,58,101,,,1.ja,1.652,None,act,1.846,None,None,None,None,None,Sheldon Cooper,"['lshift', 's', 'h', 'e', 'l', 'd', 'o', 'n', 'space', 'lshift', 'c', 'o', 'o', 'p', 'e', 'r', 'return']","[9.413239897723997, 9.563180826838561, 9.646398119483365, 9.813103760424383, 9.89638488747687, 10.029395263615243, 10.146136205945822, 10.329348975650646, 10.462671145981858, 10.495995914598097, 10.59609660615888, 10.71273425864365, 10.812580895677002, 10.962680608871324, 11.046006644552563, 11.178885823340352, 11.262467196652779]",2017_Jan_25_1025,59.9040172481,famFaceGrey,001,2,
61,./greyInner/EmilyDeschanel15_1_cut.png,0,59,59,60,,,2.nein,5.319,None,None,None,music,0.81,None,None,None,,['return'],[0.7668658364345902],2017_Jan_25_1025,59.9040172481,famFaceGrey,001,2,
153,./greyInner/NeilPatrickHarris(Barney)13_4_cut.png,0,60,60,152,,,1.ja,1.346,None,dummy,2.222,None,None,None,None,None,,['return'],[19.42553267247058],2017_Jan_25_1025,59.9040172481,famFaceGrey,001,2,
40,./greyInner/CarenMiosga9_1_cut.png,0,61,61,39,,,1.ja,6.385,None,act,0.579,None,None,None,None,None,,['return'],[0.7170535063855823],2017_Jan_25_1025,59.9040172481,famFaceGrey,001,2,
206,./greyInner/WillSmith1_1_cut.png,0,62,62,205,,,1.ja,1.317,None,dummy,0.979,None,None,None,None,None,Will Smith,"['lshift', 'w', 'i', 'l', 'l', 'space', 'lshift', 's', 'm', 'i', 't', 'h', 'return']","[0.5669974187162552, 0.7002124498908415, 0.8168648580676745, 1.033479703384728, 1.1497545583060855, 1.350023945922203, 1.433240276239303, 1.5499100063161677, 1.616377984378687, 1.7997206683303375, 1.93303353616011, 1.983105373926719, 2.54950679098647]",2017_Jan_25_1025,59.9040172481,famFaceGrey,001,2,
65,./greyInner/EmilyDeschanel8_3_cut.png,0,63,63,64,,,1.ja,4.682,None,None,None,music,0.696,None,None,None,Adele,"['lshift', 'a', 'd', 'e', 'l', 'e', 'return']","[0.4670673799441829, 0.8497626739367661, 1.099783444177774, 1.2668586189765847, 1.3668014887853133, 1.433427288599887, 1.8830797439309208]",2017_Jan_25_1025,59.9040172481,famFaceGrey,001,2,
54,./greyInner/DannFlorek(DonaldDonCragen)5_1_cut.png,0,64,64,53,,,2.nein,1.354,None,None,None,None,None,polit,1.56,None,,['return'],[0.6671224892465943],2017_Jan_25_1025,59.9040172481,famFaceGrey,001,2,
143,./greyInner/MariskaHargitay(Liv)4_4_cut.png,0,65,65,142,,,2.nein,1.689,None,act,1.079,None,None,None,None,None,,['return'],[0.5169695272502395],2017_Jan_25_1025,59.9040172481,famFaceGrey,001,2,
223,./greyInner/notfamousface8_9_cut.png,0,66,66,222,,,2.nein,1.785,None,None,None,music,1.221,None,None,None,,['return'],[0.6001415904902387],2017_Jan_25_1025,59.9040172481,famFaceGrey,001,2,
63,./greyInner/EmilyDeschanel5_1_cut.png,0,67,67,62,,,2.nein,3.136,None,None,None,music,0.526,None,None,None,,['return'],[0.7000950459050728],2017_Jan_25_1025,59.9040172481,famFaceGrey,001,2,
190,./greyInner/TaylorSwift8_1_cut.png,0,68,68,189,,,1.ja,1.262,None,None,None,music,0.529,None,None,None,Taylor Swift,"['lshift', 't', 'a', 'y', 'l', 'o', 'r', 'space', 'lshift', 's', 'w', 'i', 'f', 't', 'return']","[0.6852261197564076, 0.8834762229662374, 1.0667977357070413, 1.2500772268022047, 1.3498337258024549, 1.4999424207226184, 1.5999930712400783, 1.766266627018922, 1.833090345574874, 1.9830793910773536, 2.199810357276874, 2.3497147179368767, 2.449545636950461, 2.6327112525946177, 4.098951992996717]",2017_Jan_25_1025,59.9040172481,famFaceGrey,001,2,
11,./greyInner/BarackObama1_3_cut.png,0,69,69,10,,,1.ja,1.219,None,None,None,None,None,polit,0.588,None,Barack Obama,"['lshift', 'b', 'a', 'r', 'a', 'c', 'k', 'space', 'lshift', 'o', 'b', 'a', 'm', 'a', 'return']","[0.43348599059299886, 0.6501396497960741, 0.7832812232854849, 0.8832975507798437, 0.983142263157788, 1.166552310051884, 1.2328820336938406, 1.399777253202501, 1.4829653552387754, 1.6163491145462103, 1.7828597237285067, 1.88302777823219, 1.9996012755336778, 2.082818247402429, 2.5492524156834406]",2017_Jan_25_1025,59.9040172481,famFaceGrey,001,2,
92,./greyInner/JanHofer3_1_cut.png,0,70,70,91,,,2.nein,1.307,None,None,None,host,0.596,None,None,None,,['return'],[0.633562271106257],2017_Jan_25_1025,59.9040172481,famFaceGrey,001,2,
73,./greyInner/GuentherJauch4_1_cut.png,0,71,71,72,,,1.ja,1.159,None,None,None,host,0.529,None,None,None,Günther Jauch,"['lshift', 'g', u'\xfc', 'n', 't', 'h', 'e', 'r', 'space', 'lshift', 'j', 'a', 'u', 'c', 'h', 'return']","[0.46677258687486756, 0.6668254507462734, 0.9333382732825157, 1.1665770097974928, 1.2832149830583148, 1.383039165777518, 1.4998320738068287, 1.6495612908151998, 1.7164145207561887, 1.8497501636761626, 1.9993959789458131, 2.166177323003012, 2.282938153440682, 2.399116454810155, 2.4994519543433853, 2.782565251435699]",2017_Jan_25_1025,59.9040172481,famFaceGrey,001,2,
185,./greyInner/SigmarGabriel8_2_cut.png,0,72,72,184,,,2.nein,3.932,None,act,2.028,None,None,None,None,None,,['return'],[0.6336001226650296],2017_Jan_25_1025,59.9040172481,famFaceGrey,001,2,
66,./greyInner/EmmaWatson(HermioneGranger)11_2_cut.png,0,73,73,65,,,1.ja,1.214,None,dummy,0.578,None,None,None,None,None,Emma Watson,"['lshift', 'e', 'm', 'm', 'a', 'space', 'lshift', 'w', 'a', 't', 's', 'o', 'n', 'return']","[0.4668216655904871, 0.5665977319217745, 0.8335253177201594, 0.9664224599596309, 1.0333225231847791, 1.1998504542666524, 1.2497673572647727, 1.3498664449462012, 1.5165419329505312, 1.5995860065995657, 1.7497248544559625, 1.8328536129470194, 2.0496506589856835, 2.599172847216323]",2017_Jan_25_1025,59.9040172481,famFaceGrey,001,2,
179,./greyInner/Shakira7_1_cut.png,0,74,74,178,,,1.ja,2.119,None,None,None,music,0.513,None,None,None,Shakira,"['lshift', 's', 'h', 'a', 'k', 'i', 'r', 'a', 'return']","[0.46679600351717454, 0.6336912230253802, 0.783581148768917, 0.9001501552074842, 1.050054195091434, 1.216589183243741, 1.2833195560074273, 1.483253412013255, 2.0496355825180217]",2017_Jan_25_1025,59.9040172481,famFaceGrey,001,2,
217,./greyInner/notfamousface2_cut.png,0,75,75,216,,,2.nein,3.205,None,act,0.647,None,None,None,None,None,,['return'],[0.6004405536464219],2017_Jan_25_1025,59.9040172481,famFaceGrey,001,2,
78,./greyInner/GeorgeClooney16_1_cut.png,0,76,76,77,,,2.nein,2.498,None,None,None,music,2.757,None,None,None,,['return'],[0.9666598341395911],2017_Jan_25_1025,59.9040172481,famFaceGrey,001,2,
10,./greyInner/AngelaMerkel6_1_cut.png,0,77,77,9,,,1.ja,2.961,None,None,None,None,None,polit,0.679,None,Angela Merkel,"['lshift', 'a', 'n', 'g', 'e', 'l', 'a', 'space', 'lshift', 'm', 'e', 'r', 'k', 'e', 'l', 'space', 'i', 'n', 'space', 'j', 'u', 'n', 'g', 'backspace', 'backspace', 'backspace', 'backspace', 'backspace', 'backspace', 'backspace', 'backspace', 'return']","[0.4002786259629829, 0.5171658421122629, 0.6504732567514111, 0.8169825828299508, 0.900270446176819, 1.0502469814186952, 1.1335755833069925, 1.2500605464547334, 1.3332634041830715, 1.466778040065492, 1.6332145500109618, 1.7998133725709522, 1.883232112492351, 1.9995614993194977, 2.0663229873475757, 2.6829130046085083, 2.8827288150764616, 3.0493058248739544, 3.215733994645234, 3.432674748295085, 3.5991237685011583, 3.765554504479951, 3.8324888907282, 10.413071490366747, 10.612988986800701, 10.79631434885232, 11.11253011684903, 11.295762133108838, 11.395930187612521, 11.56271538098099, 11.745775782123928, 12.195696406122806]",2017_Jan_25_1025,59.9040172481,famFaceGrey,001,2,
96,./greyInner/JasonSegel(Marshall)11_1_cut.png,0,78,78,95,,,1.ja,2.678,None,act,0.429,None,None,None,None,None,Eric,"['lshift', 'e', 'r', 'i', 'c', 'return']","[0.43394277550078186, 0.5340553357705176, 0.750606025903835, 0.8337476154320029, 0.983722226018017, 1.1333580972341224]",2017_Jan_25_1025,59.9040172481,famFaceGrey,001,2,
192,./greyInner/TomCruise4_1_cut.png,0,79,79,191,,,1.ja,1.278,None,act,0.725,None,None,None,None,None,Tom Cruise,"['lshift', 't', 'o', 'm', 'space', 'lshift', 'c', 'r', 'u', 'i', 's', 'e', 'return']","[0.3671707018675079, 0.6834034709881962, 0.7996327757286963, 0.9833523713841714, 1.1331874444458663, 1.1663604860527812, 1.283057482082313, 1.5328999009125255, 1.599635406091238, 1.74964786823557, 1.8330990065251171, 1.9827518788647467, 2.4494012877871683]",2017_Jan_25_1025,59.9040172481,famFaceGrey,001,2,
27,./greyInner/Beyonce11_2_cut.png,0,80,80,26,,,1.ja,1.622,None,None,None,music,1.044,None,None,None,Beyonce Knowles,"['lshift', 'b', 'e', 'y', 'o', 'n', 'c', 'e', 'space', 'lshift', 'k', 'n', 'o', 'w', 'l', 'e', 's', 'return']","[0.48350073024630547, 0.8503169747236825, 1.0502562839201346, 1.250109945945951, 1.3502443189781843, 1.5336947836381114, 1.616632680458224, 1.783188198269272, 1.8832398111144357, 1.9495509297530589, 2.0498216325504472, 2.199295191152032, 2.3496200890408545, 2.4161942439327504, 2.516245215226263, 2.5995430226266762, 2.7661081637152165, 3.4325438717205543]",2017_Jan_25_1025,59.9040172481,famFaceGrey,001,2,
194,./greyInner/TomCruise6_1_cut.png,0,81,81,193,,,1.ja,2.051,None,dummy,0.595,None,None,None,None,None,Tom Cruise,"['lshift', 't', 'o', 'm', 'space', 'lshift', 'c', 'r', 'u', 'i', 's', 'e', 'return']","[0.4669952053623092, 0.7336260734364259, 0.9835076269282581, 1.1668272150136545, 1.3333788835134328, 1.3567416352061628, 1.4666128404674055, 1.6997742699859373, 1.7665181153388403, 1.8997321841857229, 1.9664747464344146, 2.1165385327258264, 2.566211196940003]",2017_Jan_25_1025,59.9040172481,famFaceGrey,001,2,
122,./greyInner/KaleyCuoco(Penny)14_2_cut.png,0,82,82,121,,,1.ja,2.117,None,act,1.444,None,None,None,None,None,Penny,"['lshift', 'p', 'e', 'n', 'n', 'y', 'return']","[0.416859853963615, 0.5334304642815368, 0.70002351287485, 0.8001838687564486, 0.8998483050681898, 0.9999749794787931, 1.1498488664260549]",2017_Jan_25_1025,59.9040172481,famFaceGrey,001,2,
68,./greyInner/EmmaWatson(HermioneGranger)3_1_cut.png,0,83,83,67,,,1.ja,1.184,None,dummy,0.727,None,None,None,None,None,Emma Watson,"['lshift', 'e', 'm', 'm', 'a', 'space', 'lshift', 'w', 'a', 't', 's', 'o', 'n', 'return']","[0.33346260602866096, 0.4502288896569553, 0.5667032671990455, 0.6834050748675509, 0.7333755474442114, 0.8833212881977488, 0.9667198192364594, 1.0333215608575301, 1.2333208551503958, 1.299822835460418, 1.4164601671695891, 1.533146577593925, 1.6996934344547299, 2.33267157261389]",2017_Jan_25_1025,59.9040172481,famFaceGrey,001,2,
191,./greyInner/TomCruise1_1_cut.png,0,84,84,190,,,1.ja,2.537,None,dummy,0.48,None,None,None,None,None,Tom Cruise,"['lshift', 't', 'o', 'm', 'lshift', 'space', 'c', 'r', 'u', 'i', 's', 'e', 'return']","[0.4836973658843817, 0.7000058701992202, 0.9336025926390903, 1.1167906625978503, 1.2832169077137223, 1.2999004632324613, 1.416751431702778, 1.6665938505329905, 1.8664584189405105, 2.0329356674269548, 2.1997757134777203, 2.3496098242112566, 2.7157983102165417]",2017_Jan_25_1025,59.9040172481,famFaceGrey,001,2,
174,./greyInner/SahraWagenknecht6_2_cut.png,0,85,85,173,,,1.ja,1.26,None,None,None,None,None,polit,0.764,None,Sahra Wagenknecht,"['lshift', 's', 'a', 'h', 'r', 'a', 'space', 'lshift', 'w', 'a', 'g', 'e', 'n', 'k', 'n', 'e', 'c', 'h', 't', 'return']","[0.30039285426710194, 0.48365694811855064, 0.6669107771404015, 0.7668863660933312, 0.9664500466888057, 1.0334540413114155, 1.2001029049147292, 1.3166366260020368, 1.3667196909259474, 1.5500203532319574, 1.6333656354681807, 1.7498906956056999, 1.8497296340169669, 2.0330216353731885, 2.182827197050301, 2.266309771379838, 2.4661900578071254, 2.5659548969811112, 2.699447399325436, 3.215908175968707]",2017_Jan_25_1025,59.9040172481,famFaceGrey,001,2,
104,./greyInner/JimParsons(SheldonCooper)8_1_cut.png,0,86,86,103,,,1.ja,1.295,None,act,0.542,None,None,None,None,None,Sheldon Cooper,"['lshift', 's', 'h', 'e', 'l', 'd', 'o', 'n', 'space', 'lshift', 'c', 'o', 'o', 'p', 'e', 'r', 'return']","[0.2335745889017744, 0.41678190541551885, 0.5833958044436258, 0.6833402781321638, 0.7834220439135606, 0.883344384064003, 0.9666120385277281, 1.1164602634021321, 1.2665375222823059, 1.3162719037827628, 1.4494574235727669, 1.5163347117077137, 1.6329800628145676, 1.7996385496953735, 1.8494611445735245, 1.9994857962028618, 2.0828362108541114]",2017_Jan_25_1025,59.9040172481,famFaceGrey,001,2,
197,./greyInner/UrsulavonderLeyen4_1_cut.png,0,87,87,196,,,1.ja,3.566,None,None,None,None,None,polit,1.662,None,Ursula von der Leyen,"['lshift', 'u', 's', 'u', 'backspace', 'backspace', 'r', 's', 'u', 'l', 'a', 'space', 'v', 'o', 'n', 'space', 'd', 'e', 'r', 'space', 'lshift', 'l', 'e', 'y', 'e', 'n', 'return']","[0.5169409781933609, 0.6668902474816605, 0.8167253205433553, 0.916735232519386, 1.8163429556484516, 1.9330232713305122, 2.166042276341159, 2.399413493310476, 2.4828049672792076, 2.649389675698785, 2.699341543272112, 2.8659233647085784, 2.965778021139613, 3.049225630893943, 3.215952763821406, 3.3323883274774744, 3.3822923994389384, 3.498952185462258, 3.6157252053849334, 3.6823266262294965, 3.7820860122133126, 3.898872504724295, 4.215509130726332, 4.4320633493944115, 4.631825269507772, 4.732002305737296, 5.498199003605805]",2017_Jan_25_1025,59.9040172481,famFaceGrey,001,2,
195,./greyInner/TomCruise7_1_cut.png,0,88,88,194,,,1.ja,1.237,None,act,0.58,None,None,None,None,None,Tom Cruise,"['lshift', 't', 'o', 'm', 'space', 'lshift', 'c', 'r', 'u', 'i', 's', 'e', 'return']","[0.4169150274215099, 0.6502798288724989, 0.8668276320222503, 1.0502132999467904, 1.1833782900780534, 1.2332506052239296, 1.3332271565041083, 1.5827439877771212, 1.6664722764598991, 1.8162194569199528, 1.8829934552086343, 2.0329157793203194, 2.1496284933700736]",2017_Jan_25_1025,59.9040172481,famFaceGrey,001,2,
148,./greyInner/MilaKunis4_1_cut.png,0,89,89,147,,,2.nein,5.245,None,None,None,music,0.696,None,None,None,,['return'],[0.866787214256874],2017_Jan_25_1025,59.9040172481,famFaceGrey,001,2,
108,./greyInner/JoachimLoew15_1_cut.png,0,90,90,107,,,1.ja,1.435,None,None,None,None,None,sport,1.328,None,Joachim Löw,"['lshift', 'j', 'o', 'a', 'c', 'h', 'i', 'm', 'space', 'lshift', 'l', u'\xf6', 'w', 'return']","[0.8174541234297976, 1.117409118568503, 1.3340435312165937, 1.417282636623895, 1.6172719868636705, 1.66723572314595, 1.7837925400995118, 1.9670098006663466, 2.116945597366339, 2.1832207891020516, 2.300201030267999, 2.466883896118361, 2.516936808106493, 2.666700668914018]",2017_Jan_25_1025,59.9040172481,famFaceGrey,001,2,
125,./greyInner/KaleyCuoco(Penny)7_1_cut.png,0,91,91,124,,,1.ja,1.368,None,act,0.492,None,None,None,None,None,Penny,"['lshift', 'p', 'e', 'n', 'n', 'y', 'return']","[0.38379555539313515, 0.5169528469023135, 0.6836677903447708, 0.766883799885818, 0.8501562659885167, 0.9833257469827004, 1.1167425462099345]",2017_Jan_25_1025,59.9040172481,famFaceGrey,001,2,
70,./greyInner/EmmaWatson(HermioneGranger)9_1_cut.png,0,92,92,69,,,1.ja,1.176,None,dummy,0.412,None,None,None,None,None,Emma Watson,"['lshift', 'e', 'm', 'm', 'a', 'space', 'lshift', 'w', 'a', 't', 's', 'o', 'n', 'return']","[0.36704944857001465, 0.4836777985533445, 0.6004190616599772, 0.7336873416370508, 0.8001732831512527, 0.950123514767256, 1.0334405687226536, 1.1167431877620402, 1.2666969479132604, 1.3664694857097857, 1.4833852509159442, 1.583238303467624, 1.7500138735586006, 2.3661769380719306]",2017_Jan_25_1025,59.9040172481,famFaceGrey,001,2,
4,./greyInner/AlysonHannigan(Lily)5_4_cut.png,0,93,93,3,,,1.ja,5.258,None,act,0.801,None,None,None,None,None,Alicia ,"['lshift', 'a', 'l', 'i', 'c', 'i', 'a', 'space', 'return']","[10.462462000082724, 10.612795558921789, 10.795633983129392, 11.012443218652606, 12.295569988333682, 12.395226726023338, 12.89490290273352, 13.344820318973234, 14.527595871100857]",2017_Jan_25_1025,59.9040172481,famFaceGrey,001,2,
56,./greyInner/ElvisPresley1_1_cut.png,0,94,94,55,,,1.ja,1.596,None,None,None,music,0.741,None,None,None,Elvis Presley,"['lshift', 'e', 'l', 'v', 'i', 's', 'space', 'lshift', 'p', 'r', 'e', 's', 'k', 'e', 'backspace', 'backspace', 'l', 'e', 'y', 'return']","[0.5999600313207338, 0.7832796194056755, 0.9667470851895814, 1.2165904663470428, 1.4663494834385347, 1.5328354249527365, 1.6829239109897571, 1.7330162784155618, 1.8826203928156247, 2.032807357059937, 2.2328489937740414, 2.3826022689763704, 2.5161483408987806, 2.6159904870692117, 2.965944503841456, 3.082271966013195, 3.3989984092722807, 3.498696206279419, 3.682189013360585, 4.19860552292721]",2017_Jan_25_1025,59.9040172481,famFaceGrey,001,2,
144,./greyInner/MariskaHargitay(Liv)6_5_cut.png,0,95,95,143,,,2.nein,3.516,None,act,0.727,None,None,None,None,None,,['return'],[0.533900721777627],2017_Jan_25_1025,59.9040172481,famFaceGrey,001,2,
90,./greyInner/Ice-T(OdafinFinTutuola)7_1_cut.png,0,96,96,89,,,2.nein,7.195,None,None,None,music,0.626,None,None,None,,['return'],[0.7667561310699966],2017_Jan_25_1025,59.9040172481,famFaceGrey,001,2,
77,./greyInner/GeorgeClooney15_1_cut.png,0,97,97,76,,,2.nein,1.858,None,None,None,host,1.441,None,None,None,,['return'],[0.600246163439806],2017_Jan_25_1025,59.9040172481,famFaceGrey,001,2,
117,./greyInner/JudithRakers2_1_cut.png,0,98,98,116,,,2.nein,1.985,None,None,None,host,0.633,None,None,None,,['return'],[0.5502179511981922],2017_Jan_25_1025,59.9040172481,famFaceGrey,001,2,
3,./greyInner/AlysonHannigan(Lily)14_2_cut.png,0,99,99,2,,,1.ja,7.485,None,act,0.813,None,None,None,None,None,Alicia,"['lshift', 'a', 'l', 'i', 'c', 'i', 'a', 'return']","[0.9167410064856085, 1.0334973460603578, 1.1835165444990707, 1.366649761775534, 1.4333313766001083, 1.516719963585274, 1.6666249657969274, 1.7663721622957382]",2017_Jan_25_1025,59.9040172481,famFaceGrey,001,2,
86,./greyInner/Ice-T(OdafinFinTutuola)10_1_cut.png,0,100,100,85,,,2.nein,3.052,None,act,0.681,None,None,None,None,None,,['return'],[0.9501613663260287],2017_Jan_25_1025,59.9040172481,famFaceGrey,001,2,
7,./greyInner/AngelaMerkel3_1_cut.png,0,101,101,6,,,1.ja,1.114,None,None,None,None,None,polit,0.722,None,Angela Merkel,"['lshift', 'a', 'n', 'g', 'e', 'l', 'a', 'space', 'lshift', 'm', 'e', 'r', 'k', 'e', 'l', 'return']","[0.31703214270964963, 0.46697916656648886, 0.6001271555742278, 0.7834669525423124, 0.8500192946717107, 0.9833315209493776, 1.0667268442289242, 1.1832567160054168, 1.2831213164899964, 1.399784951824131, 1.5662679742777073, 1.7164427490370144, 1.7996558715949504, 1.9162537478655395, 2.0163861962423653, 2.2660903606515603]",2017_Jan_25_1025,59.9040172481,famFaceGrey,001,2,
219,./greyInner/notfamousface4_2_cut.png,0,102,102,218,,,2.nein,1.996,None,None,None,music,1.227,None,None,None,,['return'],[0.583661727679555],2017_Jan_25_1025,59.9040172481,famFaceGrey,001,2,
161,./greyInner/OmarEpps(DrEricForeman)1_5_cut.png,0,103,103,160,,,2.nein,1.916,None,dummy,0.6,None,None,None,None,None,,['return'],[0.6502102204981384],2017_Jan_25_1025,59.9040172481,famFaceGrey,001,2,
152,./greyInner/NeilPatrickHarris(Barney)11_2_cut.png,0,104,104,151,,,1.ja,1.73,None,dummy,1.097,None,None,None,None,None,Barney Stinson halt,"['lshift', 'b', 'a', 'r', 'n', 'y', 'backspace', 'e', 'y', 'space', 'lshift', 's', 't', 'i', 'n', 's', 'o', 'n', 'space', 'h', 'a', 'l', 't', 'return']","[6.064668425160562, 6.164321313538949, 6.397942094172777, 6.497517034003522, 6.747682153407368, 6.897798226173563, 7.397097491179466, 7.663972469727469, 7.880315938617514, 8.013941883743882, 8.197024739201424, 8.297179962667997, 8.430462677561536, 8.630159480163456, 8.8136134733586, 8.913236208800754, 8.99678390064173, 9.163266923094852, 9.313579631499124, 9.496689111357682, 9.579820756832305, 9.696540848728091, 9.81306526731396, 10.079594128646022]",2017_Jan_25_1025,59.9040172481,famFaceGrey,001,2,
74,./greyInner/GuentherJauch7_1_cut.png,0,105,105,73,,,1.ja,1.535,None,None,None,host,0.995,None,None,None,Günther Jauch,"['lshift', 'g', u'\xfc', 'n', 't', 'h', 'e', 'r', 'space', 'lshift', 'j', 'a', 'u', 'c', 'h', 'return']","[0.45050283229102206, 0.5503703197587129, 0.7669848443001683, 1.0003913466202903, 1.0668080005361844, 1.2002581604588158, 1.266845146387368, 1.4334673855896654, 1.483475068172993, 1.5833027794269583, 1.7000719500383639, 1.8497193691878238, 1.9499765993964502, 2.049713210290065, 2.1498706791885525, 2.3831167935495614]",2017_Jan_25_1025,59.9040172481,famFaceGrey,001,2,
168,./greyInner/RobertSeanLeonard(Wilson)11_2_cut.png,0,106,106,167,,,2.nein,2.581,None,dummy,0.728,None,None,None,None,None,,['return'],[0.8995432471697313],2017_Jan_25_1025,59.9040172481,famFaceGrey,001,2,
53,./greyInner/DannFlorek(DonaldDonCragen)2_1_cut.png,0,107,107,52,,,2.nein,1.478,None,None,None,host,0.728,None,None,None,,['return'],[0.6009159435575384],2017_Jan_25_1025,59.9040172481,famFaceGrey,001,2,
169,./greyInner/RobertSeanLeonard(Wilson)2_6_cut.png,0,108,108,168,,,2.nein,1.391,None,dummy,0.45,None,None,None,None,None,,['return'],[0.46707764477332603],2017_Jan_25_1025,59.9040172481,famFaceGrey,001,2,
8,./greyInner/AngelaMerkel4_1_cut.png,0,109,109,7,,,1.ja,1.21,None,None,None,None,None,polit,0.494,None,Angela Merkel,"['lshift', 'a', 'n', 'g', 'e', 'l', 'a', 'space', 'lshift', 'm', 'e', 'r', 'k', 'e', 'l', 'return']","[0.38351583879239115, 0.533395820482383, 0.6502073335150271, 0.8165129668855116, 0.9000693196762768, 1.0331932504900578, 1.1165872906658478, 1.2164028124352626, 1.2997153755277395, 1.3998773352891476, 1.58264839655385, 1.716304173840399, 1.7450877177789152, 1.932893998635791, 1.9828593387974252, 2.4988508202723096]",2017_Jan_25_1025,59.9040172481,famFaceGrey,001,2,
93,./greyInner/JanHofer5_1_cut.png,0,110,110,92,,,2.nein,1.432,None,None,None,host,1.562,None,None,None,,['return'],[0.5169313549158687],2017_Jan_25_1025,59.9040172481,famFaceGrey,001,2,
218,./greyInner/notfamousface3_3_cut.png,0,111,111,217,,,2.nein,1.671,None,None,None,host,2.963,None,None,None,,['return'],[0.533583474394618],2017_Jan_25_1025,59.9040172481,famFaceGrey,001,2,
177,./greyInner/Shakira2_1_cut.png,0,112,112,176,,,1.ja,2.426,None,None,None,music,0.546,None,None,None,Shakira,"['lshift', 's', 'h', 'a', 'k', 'i', 'r', 'a', 'return']","[0.38370220960086954, 0.500396639423343, 0.6499503920044845, 0.7169704254229146, 0.833597171526435, 1.0001199701937367, 1.0500894804426935, 1.2668230128492723, 1.3667312388593018]",2017_Jan_25_1025,59.9040172481,famFaceGrey,001,2,
113,./greyInner/JoshRadnor(Ted)6_2_cut.png,0,113,113,112,,,2.nein,1.721,None,None,None,music,2.046,None,None,None,,['return'],[0.5669727189701916],2017_Jan_25_1025,59.9040172481,famFaceGrey,001,2,
32,./greyInner/BritneySpears14_2_cut.png,0,114,114,31,,,1.ja,1.089,None,None,None,music,0.412,None,None,None,Britney Spears,"['lshift', 'b', 'r', 'i', 't', 'n', 'e', 'y', 'space', 'lshift', 's', 'p', 'e', 'a', 'r', 's', 'return']","[0.4834821252434267, 0.6336597869858451, 0.8168221948708378, 0.8999509533623495, 1.033281143091699, 1.1668137424253473, 1.2500319973978549, 1.4499392290022115, 1.583085293354543, 1.6830554291163935, 1.7830120922899368, 1.9332612870621233, 2.0663371014879885, 2.2329984753523604, 2.432937463772305, 2.5994201654498283, 2.7826893917158486]",2017_Jan_25_1025,59.9040172481,famFaceGrey,001,2,
64,./greyInner/EmilyDeschanel6_12_cut.png,0,115,115,63,,,2.nein,1.887,None,dummy,2.368,None,None,None,None,None,,['return'],[0.6003565103560504],2017_Jan_25_1025,59.9040172481,famFaceGrey,001,2,
183,./greyInner/SigmarGabriel3_3_cut.png,0,116,116,182,,,2.nein,1.545,None,act,0.512,None,None,None,None,None,,['return'],[0.4669794873425417],2017_Jan_25_1025,59.9040172481,famFaceGrey,001,2,
159,./greyInner/NicoleKidman7_1_cut.png,0,117,117,158,,,1.ja,16.081,None,act,1.446,None,None,None,None,None,Nicole Kidman,"['lshift', 'n', 'o', 'c', 'o', 'l', 'backspace', 'backspace', 'backspace', 'backspace', 'i', 'c', 'o', 'l', 'e', 'space', 'lshift', 'k', 'i', 'd', 'm', 'a', 'n', 'return']","[2.2494189946178267, 2.3829727651623216, 2.599425939416051, 2.66606392871563, 2.782929973654518, 2.966067361018304, 3.3160374165863686, 3.449116759547451, 3.5990416498657396, 3.8489668288830217, 4.165593190055461, 4.282175348306282, 4.3821711461419, 4.532149926814782, 4.615187584945488, 4.698684594191036, 4.78193556830729, 4.881968255373522, 5.031857860341006, 5.064925687446703, 5.198531744465981, 5.298658739652183, 5.381854540310542, 6.164806968279208]",2017_Jan_25_1025,59.9040172481,famFaceGrey,001,2,
103,./greyInner/JimParsons(SheldonCooper)6_1_cut.png,0,118,118,102,,,1.ja,1.571,None,act,0.577,None,None,None,None,None,Sheldon Cooper,"['lshift', 's', 'h', 'e', 'l', 'd', 'o', 'n', 'space', 'lshift', 'c', 'o', 'o', 'p', 'e', 'r', 'return']","[0.35079637433409516, 0.5174067448269852, 0.6340873812846439, 0.7673960790275487, 0.8674332569567014, 1.0005953601048532, 1.0503396856588552, 1.2005734831868722, 1.3504460870308321, 1.3759644528959143, 1.4838949638501617, 1.5834881879081877, 1.7171118876026412, 1.8668565018551817, 1.966936342981171, 2.10013790156745, 2.200211647951164]",2017_Jan_25_1025,59.9040172481,famFaceGrey,001,2,
172,./greyInner/SahraWagenknecht2_2_cut.png,0,119,119,171,,,1.ja,1.311,None,None,None,None,None,polit,0.607,None,Sahra Wagenknecht,"['lshift', 's', 'a', 'h', 'r', 'a', 'space', 'lshift', 'w', 'a', 'g', 'e', 'n', 'k', 'n', 'e', 'c', 'h', 't', 'return']","[0.6337810402824289, 0.8337043106830606, 1.0668888360673918, 1.150254327186758, 1.3335774438069166, 1.4335158227531792, 1.5832257932065659, 1.6493572773306369, 1.7327766588041413, 1.9327775569768164, 1.982887887853849, 2.13309730641231, 2.1998366609022924, 2.366397311127912, 2.5328931646176898, 2.59969025877308, 2.7662011887314293, 2.8829071664868025, 3.016101988778246, 3.515867020418227]",2017_Jan_25_1025,59.9040172481,famFaceGrey,001,2,
135,./greyInner/LeonardoDiCaprio7_1_cut.png,0,120,120,134,,,1.ja,1.435,None,act,0.821,None,None,None,None,None,Leonardo DiCaprio,"['lshift', 'l', 'e', 'o', 'n', 'a', 'r', 'd', 'o', 'space', 'lshift', 'd', 'i', 'lshift', 'c', 'a', 'p', 'r', 'i', 'o', 'return']","[0.3835585019892278, 0.5500877161748576, 0.7334445142664663, 0.8001777740137186, 0.9665674506750292, 1.0666934835335269, 1.2829269262833805, 1.449361511572988, 1.5664495334472122, 1.7328164350183215, 1.8329963582309574, 1.9494874161209736, 2.0825510410622883, 2.2158244534539335, 2.3493705253763437, 2.5161104893404627, 2.6824658429782176, 2.782554986606101, 2.8826171850564606, 3.04916404191772, 3.5490358919382743]",2017_Jan_25_1025,59.9040172481,famFaceGrey,001,2,
222,./greyInner/notfamousface7_cut.png,0,121,121,221,,,1.ja,2.809,None,None,None,None,None,sport,0.887,None,Michael Ballack,"['lshift', 'm', 'i', 'c', 'h', 'a', 'e', 'l', 'space', 'lshift', 'b', 'a', 'l', 'l', 'a', 'c', 'k', 'return']","[0.5168168379127565, 0.650350720350616, 0.8335506590183286, 0.9001799873676646, 1.0336246941001264, 1.1502382883909377, 1.3000922872315641, 1.3665939467659882, 1.5499581227040835, 1.5775827032493908, 1.716522943016571, 1.8164122432467593, 1.9498521383402476, 2.082950407080716, 2.283143129252494, 2.38300901284083, 2.599517039777311]",2017_Jan_25_1025,59.9040172481,famFaceGrey,001,2,
99,./greyInner/JasonSegel(Marshall)7_1_cut.png,0,122,122,98,,,1.ja,1.254,None,dummy,0.86,None,None,None,None,None,Eric,"['lshift', 'e', 'r', 'i', 'c', 'return']","[0.38363709208942964, 0.5002179672369493, 0.7002137329945981, 0.8002262111776872, 0.9334082024329291, 2.016359892617402]",2017_Jan_25_1025,59.9040172481,famFaceGrey,001,2,
30,./greyInner/Beyonce8_3_cut.png,0,123,123,29,,,1.ja,2.007,None,None,None,music,0.98,None,None,None,Beyonce Knowles,"['lshift', 'b', 'e', 'y', 'o', 'n', 'c', 'e', 'space', 'lshift', 'k', 'n', 'o', 'w', 'l', 'e', 's', 'return']","[0.7665922145761215, 0.9832769890435884, 1.0998289943581767, 1.299843365119159, 1.3498478399433225, 1.533061571975395, 1.5830403847257912, 1.7496398488378873, 1.849367798781259, 1.8994912814710005, 2.0162190719888713, 2.166194003350938, 2.3160380581384743, 2.3827812619392716, 2.4994057626113317, 2.599312063965499, 2.7659070372142196, 3.082599799001855]",2017_Jan_25_1025,59.9040172481,famFaceGrey,001,2,
151,./greyInner/NeilPatrickHarris(Barney)1_1_cut.png,0,124,124,150,,,1.ja,1.08,None,dummy,0.678,None,None,None,None,None,Barney Stinson,"['lshift', 'b', 'e', 'a', 'backspace', 'backspace', 'a', 'r', 'n', 'e', 'y', 'space', 'lshift', 's', 't', 'i', 'n', 's', 'o', 'n', 'return']","[0.3502940392459095, 0.5670131367364775, 0.7000719500383639, 0.9000186370808478, 1.5498519458747069, 2.2828823384306816, 2.432736658047361, 2.6492895936121386, 2.749307524986307, 2.8660462218854263, 3.032560359602485, 3.1325933674447697, 3.21582958586896, 3.348847660629417, 3.448990694611439, 3.6655057786178986, 3.8155737349961782, 4.098749262616366, 4.1822430641027495, 4.365457758462981, 4.881673462304661]",2017_Jan_25_1025,59.9040172481,famFaceGrey,001,2,
205,./greyInner/Usher7_1_cut.png,0,125,125,204,,,1.ja,3.916,None,None,None,music,0.577,None,None,None,,['return'],[2.999131018036678],2017_Jan_25_1025,59.9040172481,famFaceGrey,001,2,
23,./greyInner/BenedictCumberbatch3_9_cut.png,0,126,126,22,,,1.ja,1.416,None,act,0.443,None,None,None,None,None,Benedict Cumberbatch,"['lshift', 'b', 'e', 'n', 'd', 'e', 'c', 'backspace', 'backspace', 'backspace', 'e', 'd', 'i', 'c', 't', 'space', 'lshift', 'c', 'u', 'm', 'b', 'e', 'r', 'b', 'a', 't', 'c', 'h', 'return']","[0.33368041287712913, 0.7168514175568816, 0.9001857613343418, 1.0667082392255907, 1.216663924032673, 1.4167116554895074, 1.6165566565655354, 1.9662017661280515, 2.082838456285117, 2.9158316067569103, 3.4823411253014456, 3.715626053548476, 3.882342921646341, 3.982188275575936, 4.181896305335158, 4.2654484880390555, 4.431545617062511, 4.531987614200261, 4.631925672370471, 4.814919031346562, 4.9984067060131565, 5.0483075702154565, 5.181229412200537, 5.231518736040471, 5.414618592621537, 5.531560661452659, 5.631127581885266, 5.748013194155192, 7.430788265118736]",2017_Jan_25_1025,59.9040172481,famFaceGrey,001,2,
156,./greyInner/NicoleKidman14_1_cut.png,0,127,127,155,,,1.ja,1.645,None,act,0.429,None,None,None,None,None,Nicole Kidman,"['lshift', 'n', 'i', 'c', 'o', 'l', 'e', 'space', 'lshift', 'k', 'i', 'd', 'm', 'a', 'n', 'return']","[0.4338410895347806, 0.5837868302878633, 1.1004606021410837, 1.2835084930234189, 1.3502218646640358, 1.5167456256590413, 1.616749442892342, 1.6999888690756961, 1.7832619767300457, 1.900052318552298, 2.0665324540223082, 2.0998960365245694, 2.2330424216529536, 2.333179681668298, 2.4164861500184998, 2.6663930448080464]",2017_Jan_25_1025,59.9040172481,famFaceGrey,001,2,
189,./greyInner/TaylorSwift7_1_cut.png,0,128,128,188,,,1.ja,1.205,None,None,None,music,0.864,None,None,None,Taylor Swift,"['lshift', 't', 'a', 'y', 'l', 'o', 'r', 'space', 'lshift', 's', 'w', 'i', 'f', 't', 'return']","[0.46710362762314617, 0.7004023492345368, 0.8835666817753918, 1.0501125763089476, 1.1168124753608026, 1.283432469131185, 1.3501124800759499, 1.5000264640134446, 1.5833807279755092, 1.7499907776923465, 1.9498761965346603, 2.099694910024027, 2.249639367673808, 2.4662314379006602, 2.8160799193956336]",2017_Jan_25_1025,59.9040172481,famFaceGrey,001,2,
200,./greyInner/UrsulavonderLeyen8_2_cut.png,0,129,129,199,,,1.ja,1.707,None,None,None,None,None,polit,1.475,None,Ursula von der Leyen,"['lshift', 'v', 'o', 'n', 'backspace', 'backspace', 'backspace', 'backspace', 'lshift', 'u', 'r', 's', 'u', 'l', 'a', 'space', 'v', 'o', 'n', 'space', 'd', 'e', 'r', 'space', 'lshift', 'l', 'e', 'y', 'e', 'n', 'return']","[3.182438737413122, 3.3490702791168587, 3.5655895332101863, 3.748765734459994, 4.032069251671601, 4.148643711300338, 4.298498672468668, 4.431777217275339, 4.548238122229122, 4.698302550072185, 4.881605137034057, 5.081547333213166, 5.1315001631146515, 5.2981855951725265, 5.364915326384562, 5.514734039874384, 5.614754216679557, 5.697909278796487, 5.864739380793253, 6.014544621694768, 6.080962237937911, 6.13117489633305, 6.264593940992199, 6.314412686559081, 6.480954411005769, 6.531040683688843, 6.697610636416357, 6.897425484556152, 7.1308290998931625, 7.214099641340454, 8.080346027398718]",2017_Jan_25_1025,59.9040172481,famFaceGrey,001,2,
101,./greyInner/JimParsons(SheldonCooper)1_1_cut.png,0,130,130,100,,,1.ja,3.17,None,dummy,0.796,None,None,None,None,None,Sheldon Cooper,"['lshift', 's', 'h', 'e', 'l', 'd', 'o', 'n', 'space', 'lshift', 'c', 'o', 'o', 'p', 'e', 'r', 'return']","[1.8503240317941163, 1.983605463583899, 2.116794191133067, 2.250075943698903, 2.3333965261895173, 2.4333034690953355, 2.499956214087433, 2.6665184681924075, 2.8167407177875248, 2.932986702875951, 3.049808480738193, 3.1829680176788315, 3.3328204126401033, 3.3995889577381604, 3.5494840158967236, 3.649113808408856]",2017_Jan_25_1025,59.9040172481,famFaceGrey,001,2,
128,./greyInner/KatjaBurkard4_1_cut.png,0,131,131,127,,,2.nein,3.342,None,act,0.518,None,None,None,None,None,,['return'],[0.5335042427427652],2017_Jan_25_1025,59.9040172481,famFaceGrey,001,2,
181,./greyInner/SigmarGabriel1_2_cut.png,0,132,132,180,,,2.nein,1.167,None,dummy,0.446,None,None,None,None,None,,['return'],[1.133325057314778],2017_Jan_25_1025,59.9040172481,famFaceGrey,001,2,
16,./greyInner/BastianSchweinsteiger1_1_cut.png,0,133,133,15,,,1.ja,1.384,None,None,None,None,None,sport,0.992,None,Bastian Schweinsteiger,"['lshift', 'b', 'a', 's', 't', 'i', 'a', 'n', 'space', 'lshift', 's', 'c', 'h', 'w', 'e', 'i', 'n', 's', 't', 'e', 'i', 'g', 'e', 'r', 'return']","[0.4000341947130437, 0.5996601058368469, 0.7333425075244122, 0.8830714037571852, 0.9995781796674237, 1.1664073193364857, 1.2497769805427197, 1.3663408545662605, 1.4996890077472926, 1.5495837772068626, 1.6996068249568452, 1.8827936118118487, 1.9829103421684522, 2.1326972988422312, 2.249274966230132, 2.2782339745963327, 2.43261957483719, 2.5158885124051267, 2.6158509495448925, 2.6991349635809456, 2.815836771249451, 3.015650336285489, 3.09896610713713, 3.2656746350612593, 3.8487089250447752]",2017_Jan_25_1025,59.9040172481,famFaceGrey,001,2,
216,./greyInner/notfamousface14_6_cut.png,0,134,134,215,,,2.nein,2.06,None,None,None,music,0.435,None,None,None,,['return'],[0.5667764041081682],2017_Jan_25_1025,59.9040172481,famFaceGrey,001,2,
141,./greyInner/MariskaHargitay(Liv)13_1_cut.png,0,135,135,140,,,2.nein,2.074,None,dummy,0.413,None,None,None,None,None,,['return'],[0.5332694347703182],2017_Jan_25_1025,59.9040172481,famFaceGrey,001,2,
201,./greyInner/Usher1_1_cut.png,0,136,136,200,,,1.ja,2.166,None,None,None,music,1.75,None,None,None,Usher,"['lshift', 'u', 's', 'h', 'e', 'r', 'return']","[2.7825729500577836, 2.9658546865844073, 3.132503229411668, 3.232509933628535, 3.3824723547295434, 3.5324010943595567, 3.6157659439268173]",2017_Jan_25_1025,59.9040172481,famFaceGrey,001,2,
28,./greyInner/Beyonce3_2_cut.png,0,137,137,27,,,1.ja,1.046,None,None,None,music,0.428,None,None,None,Beyonce Knowles,"['lshift', 'b', 'e', 'y', 'o', 'b', 'c', 'e', 'backspace', 'backspace', 'backspace', 'n', 'c', 'e', 'space', 'lshift', 'k', 'n', 'o', 'w', 'l', 'e', 's', 'return']","[0.48366400518898445, 0.7834634240070955, 0.9333905597572993, 1.1334540092339012, 1.1999794061862303, 1.3834218514480199, 1.5833480088317629, 1.6666515901983985, 2.1830908748552247, 2.3330625984581275, 2.4830635126695597, 3.066035251348694, 3.299297404505978, 3.4158907899141013, 3.515894607147402, 3.632410044007429, 3.7323333464851203, 3.915689182249025, 4.082118955900114, 4.182206816424241, 4.282339585576665, 4.382163768295868, 4.582103398267918, 4.982010886493299]",2017_Jan_25_1025,59.9040172481,famFaceGrey,001,2,
170,./greyInner/RobertSeanLeonard(Wilson)8_1_cut.png,0,138,138,169,,,2.nein,6.701,None,act,0.479,None,None,None,None,None,,['return'],[0.6006124895388893],2017_Jan_25_1025,59.9040172481,famFaceGrey,001,2,
58,./greyInner/ElvisPresley4_10_cut.png,0,139,139,57,,,1.ja,1.149,None,None,None,music,0.524,None,None,None,Elvis Presley,"['lshift', 'e', 'l', 'v', 'i', 's', 'space', 'lshift', 'p', 'l', 'backspace', 'r', 'e', 's', 'l', 'e', 'y', 'return']","[0.2836550876181718, 0.4169900889864948, 0.6003863425162308, 0.8168468946164467, 1.0167377666489301, 1.2500775475782575, 1.6331744530207288, 1.7665440981882057, 1.9330710669423752, 2.1162280216367435, 2.4829117856597804, 2.6328074853699945, 2.815922418419177, 2.9993100109991246, 3.1322597604894327, 3.2492082448393376, 3.449133119118869, 3.6490615219340725]",2017_Jan_25_1025,59.9040172481,famFaceGrey,001,2,
202,./greyInner/Usher11_1_cut.png,0,140,140,201,,,2.nein,1.636,None,act,1.245,None,None,None,None,None,,['return'],[0.5505188390093281],2017_Jan_25_1025,59.9040172481,famFaceGrey,001,2,
44,./greyInner/CobieSmulders(Robin)4_7_cut.png,0,141,141,43,,,1.ja,1.718,None,dummy,1.167,None,None,None,None,None,Robin,"['lshift', 'r', 'o', 'b', 'i', 'n', 'return']","[5.031854011030191, 5.231863890928253, 5.415000315964335, 5.797951589139757, 5.848004180351836, 6.014816318897374, 6.231498847933381]",2017_Jan_25_1025,59.9040172481,famFaceGrey,001,2,
178,./greyInner/Shakira3_1_cut.png,0,142,142,177,,,1.ja,1.722,None,None,None,music,0.712,None,None,None,Shakira,"['lshift', 's', 'h', 'a', 'k', 'i', 'r', 'a', 'return']","[0.35028088743274566, 0.5002327229285584, 0.6170439151851497, 0.716976840940788, 0.8000841074454002, 0.9670024228203147, 1.050193732615753, 1.2668204466417592, 1.566494762851562]",2017_Jan_25_1025,59.9040172481,famFaceGrey,001,2,
184,./greyInner/SigmarGabriel4_5_cut.png,0,143,143,183,,,1.ja,1.976,None,None,None,None,None,polit,1.15,None,Sigmar Gabriel,"['lshift', 's', 'i', 'g', 'm', 'a', 'r', 'space', 'lshift', 'g', 'a', 'b', 'r', 'i', 'e', 'l', 'return']","[33.10368985331252, 33.25355219232688, 33.35354221619582, 33.553363800629995, 33.73649509325105, 33.82002321776099, 34.00311954580684, 34.10318719744828, 34.23632203464331, 34.26975715017534, 34.452800870970805, 34.58634822599697, 34.752860118283024, 34.83627821665277, 34.952501105874944, 35.05276860091362, 35.90243151353934]",2017_Jan_25_1025,59.9040172481,famFaceGrey,001,2,
199,./greyInner/UrsulavonderLeyen7_1_cut.png,0,144,144,198,,,2.nein,1.737,None,act,2.463,None,None,None,None,None,,['return'],[0.716605382427133],2017_Jan_25_1025,59.9040172481,famFaceGrey,001,2,
116,./greyInner/JudithRakers1_1_cut.png,0,145,145,115,,,2.nein,1.633,None,dummy,0.511,None,None,None,None,None,,['return'],[0.6003029407775102],2017_Jan_25_1025,59.9040172481,famFaceGrey,001,2,
209,./greyInner/WillSmith5_1_cut.png,0,146,146,208,,,1.ja,1.39,None,act,0.896,None,None,None,None,None,Will Smith,"['lshift', 'w', 'i', 'l', 'l', 'space', 'lshift', 's', 'm', 'i', 't', 'h', 'return']","[0.40034919666459245, 0.5171257451220299, 0.6503712500089023, 0.8170104903347237, 0.9334338645062417, 1.1334504806986843, 1.3499270715947205, 1.4833778730694576, 1.5996684460105826, 1.750023817611691, 1.8665963525850202, 1.9499076325741953, 2.1831463690891724]",2017_Jan_25_1025,59.9040172481,famFaceGrey,001,2,
106,./greyInner/JoachimLoew1_1_cut.png,0,147,147,105,,,1.ja,1.121,None,None,None,None,None,sport,1.156,None,Joachim Löw,"['lshift', 'j', 'o', 'a', 'c', 'h', 'i', 'm', 'space', 'lshift', 'l', u'\xf6', 'w', 'return']","[0.5835379081754581, 0.7000937628008614, 0.883480713829158, 0.9501411574428857, 1.1331399696096014, 1.1999210249687167, 1.333336541092649, 1.516408490168942, 1.666305472982458, 1.690758221246142, 1.8661783815637136, 1.99970360305133, 2.066317854933004, 2.2161141141082226]",2017_Jan_25_1025,59.9040172481,famFaceGrey,001,2,
41,./greyInner/CobieSmulders(Robin)12_1_cut.png,0,148,148,40,,,1.ja,1.314,None,act,0.411,None,None,None,None,None,Robin,"['lshift', 'r', 'o', 'b', 'i', 'n', 'return']","[0.31694136312444243, 0.5168585387823441, 0.6335051729929546, 0.8000074420015153, 0.8834694866718564, 1.033240725325868, 1.2500615087824372]",2017_Jan_25_1025,59.9040172481,famFaceGrey,001,2,
221,./greyInner/notfamousface6_8_cut.png,0,149,149,220,,,2.nein,3.361,None,None,None,music,0.902,None,None,None,,['return'],[0.46710940158936864],2017_Jan_25_1025,59.9040172481,famFaceGrey,001,2,
158,./greyInner/NicoleKidman5_1_cut.png,0,150,150,157,,,1.ja,1.314,None,act,0.526,None,None,None,None,None,Nicole Kidman,"['lshift', 'n', 'i', 'c', 'o', 'l', 'e', 'space', 'lshift', 'k', 'i', 'd', 'm', 'a', 'n', 'return']","[0.45020130292732574, 0.6667359542648228, 0.883229225508785, 1.0000930250162128, 1.066867344080947, 1.2166741888618162, 1.299833741841212, 1.3999530384053287, 1.4831975970032545, 1.5834557895400394, 1.71644499446802, 1.7830746435938636, 1.8996420461526213, 2.016384592362556, 2.0830389412340082, 2.2996075948190082]",2017_Jan_25_1025,59.9040172481,famFaceGrey,001,2,
136,./greyInner/LisaEdelstein(DrLisaCuddy)1_1_cut.png,0,151,151,135,,,2.nein,1.988,None,dummy,0.514,None,None,None,None,None,,['return'],[1.5665133678548955],2017_Jan_25_1025,59.9040172481,famFaceGrey,001,2,
164,./greyInner/OmarEpps(DrEricForeman)5_2_cut.png,0,152,152,163,,,2.nein,1.704,None,None,None,music,1.039,None,None,None,,['return'],[0.5004129989952162],2017_Jan_25_1025,59.9040172481,famFaceGrey,001,2,
214,./greyInner/notfamousface1_2_cut.png,0,153,153,213,,,2.nein,3.722,None,act,0.768,None,None,None,None,None,,['return'],[0.6501165539302747],2017_Jan_25_1025,59.9040172481,famFaceGrey,001,2,
88,./greyInner/Ice-T(OdafinFinTutuola)5_1_cut.png,0,154,154,87,,,2.nein,1.476,None,act,0.446,None,None,None,None,None,,['return'],[0.6001627617006307],2017_Jan_25_1025,59.9040172481,famFaceGrey,001,2,
142,./greyInner/MariskaHargitay(Liv)14_1_cut.png,0,155,155,141,,,2.nein,1.251,None,dummy,0.929,None,None,None,None,None,,['return'],[0.666902116190613],2017_Jan_25_1025,59.9040172481,famFaceGrey,001,2,
49,./greyInner/CristinMilioti(Tracy_Mutter)8_1_cut.png,0,156,156,48,,,2.nein,1.398,None,None,None,music,0.703,None,None,None,,['return'],[0.6168023709192312],2017_Jan_25_1025,59.9040172481,famFaceGrey,001,2,
47,./greyInner/CristinMilioti(Tracy_Mutter)2_1_cut.png,0,157,157,46,,,2.nein,3.595,None,dummy,0.563,None,None,None,None,None,,['return'],[0.6337640391589048],2017_Jan_25_1025,59.9040172481,famFaceGrey,001,2,
198,./greyInner/UrsulavonderLeyen5_1_cut.png,0,158,158,197,,,1.ja,1.442,None,None,None,None,None,polit,0.725,None,Ursula von der Leyen,"['lshift', 'u', 'r', 's', 'u', 'l', 'a', 'space', 'v', 'o', 'n', 'space', 'd', 'e', 'r', 'space', 'lshift', 'l', 'e', 'y', 'e', 'n', 'return']","[0.4165727595163844, 0.5825175199784098, 1.0159108063312488, 1.2328910154192272, 1.3331283575212183, 1.5328636532335622, 1.5997813591338854, 1.7329457077134975, 1.848965866555318, 1.948832070919707, 2.0987611313253183, 2.2327428169451196, 2.3159152009611716, 2.415862240857223, 2.549194034465927, 2.599254965851742, 2.7158127451330074, 2.832469964948814, 2.9657151490596334, 3.199006172049394, 3.4157024944497607, 3.54892554502203, 4.165376666310294]",2017_Jan_25_1025,59.9040172481,famFaceGrey,001,2,
157,./greyInner/NicoleKidman3_1_cut.png,0,159,159,156,,,1.ja,1.93,None,act,0.488,None,None,None,None,None,Nicole Kidman,"['lshift', 'n', 'i', 'c', 'o', 'l', 'e', 'space', 'lshift', 'k', 'i', 'd', 'm', 'a', 'n', 'return']","[0.4011139264543999, 0.5171308775370562, 0.733683171550183, 0.9669100393562076, 1.05051354620673, 1.2170620069473443, 1.30034409632799, 1.4001378053349072, 1.4835376194773744, 1.60022178447025, 1.750080915725448, 1.8000132159681925, 1.949989751209614, 2.0166912541408237, 2.1161330719651232, 2.3497044531077336]",2017_Jan_25_1025,59.9040172481,famFaceGrey,001,2,
176,./greyInner/Shakira1_1_cut.png,0,160,160,175,,,1.ja,1.227,None,None,None,music,0.576,None,None,None,Shakira,"['lshift', 's', 'h', 'a', 'k', 'i', 'r', 'a', 'return']","[0.2669949487417398, 0.40041944659105866, 0.5668735992117035, 0.6503138311200019, 0.7499949477792143, 0.9001924976287228, 0.9834242251899923, 1.1667450963786905, 1.2666324719539261]",2017_Jan_25_1025,59.9040172481,famFaceGrey,001,2,
196,./greyInner/UrsulavonderLeyen1_1_cut.png,0,161,161,195,,,1.ja,1.231,None,None,None,None,None,polit,0.464,None,Ursula von der Leyen,"['lshift', 'u', 'r', 's', 'u', 'l', 'a', 'space', 'v', 'o', 'n', 'space', 'd', 'e', 'r', 'space', 'lshift', 'l', 'e', 'y', 'e', 'n', 'return']","[0.33368843227481193, 0.5335148283479612, 0.7001967318706193, 0.8666537714748301, 0.9169873623909552, 1.1166985999093413, 1.142168207834402, 1.2997500193264386, 1.3665952298697448, 1.5163542790382962, 1.6663619295441094, 1.81620534277954, 1.8824324181273369, 1.949309064710178, 2.0828846480171705, 2.1328265715374073, 2.3327668430611084, 2.3994452501265187, 2.549268454479261, 2.7660064777487605, 2.9493132347975006, 3.08247116785833, 3.6153434820416805]",2017_Jan_25_1025,59.9040172481,famFaceGrey,001,2,
51,./greyInner/DannFlorek(DonaldDonCragen)1_1_cut.png,0,162,162,50,,,2.nein,1.482,None,act,0.629,None,None,None,None,None,,['return'],[0.6173678988629945],2017_Jan_25_1025,59.9040172481,famFaceGrey,001,2,
38,./greyInner/CarenMiosga2_11_cut.png,0,163,163,37,,,2.nein,2.095,None,act,0.468,None,None,None,None,None,,['return'],[0.4501480541248384],2017_Jan_25_1025,59.9040172481,famFaceGrey,001,2,
76,./greyInner/GeorgeClooney11_1_cut.png,0,164,164,75,,,1.ja,1.438,None,act,1.214,None,None,None,None,None,,['return'],[96.1609858855386],2017_Jan_25_1025,59.9040172481,famFaceGrey,001,2,
34,./greyInner/BritneySpears7_1_cut.png,0,165,165,33,,,1.ja,1.961,None,None,None,music,0.496,None,None,None,Britney Spears,"['lshift', 'b', 'r', 'i', 't', 'n', 'e', 'y', 'space', 'lshift', 's', 'p', 'e', 'a', 'r', 's', 'return']","[0.48341668695547924, 0.6500989112541902, 0.8499596303504404, 0.9499419555972963, 1.1500621824116024, 1.3495771050675103, 1.374187033531598, 1.5665085562163767, 1.6829749143607842, 1.7663654260013573, 1.9162059522536765, 2.066414729260032, 2.2159963893459462, 2.416008835451521, 2.649219985237778, 2.882428248040469, 3.8820259950384752]",2017_Jan_25_1025,59.9040172481,famFaceGrey,001,2,
81,./greyInner/HughLaurie(DrHouse)2_1_cut.png,0,166,166,80,,,1.ja,2.235,None,act,0.719,None,None,None,None,None,Dr House,"['lshift', 'd', 'r', 'period', 'space', 'lshift', 'h', 'o', 'u', 's', 'e', 'return']","[0.3501622003427656, 0.5169101837050221, 0.7501938288482961, 0.8667339654539319, 1.0333478644820389, 1.11671720491222, 1.2333583859322061, 1.416498981055156, 1.5996629928199582, 1.625970467443949, 1.799689232289893, 2.099440534720543]",2017_Jan_25_1025,59.9040172481,famFaceGrey,001,2,
87,./greyInner/Ice-T(OdafinFinTutuola)12_1_cut.png,0,167,167,86,,,2.nein,1.246,None,act,0.446,None,None,None,None,None,,['return'],[0.5836055918939564],2017_Jan_25_1025,59.9040172481,famFaceGrey,001,2,
91,./greyInner/JanHofer1_3_cut.png,0,168,168,90,,,2.nein,1.458,None,None,None,None,None,polit,1.43,None,,['return'],[0.5335517175785753],2017_Jan_25_1025,59.9040172481,famFaceGrey,001,2,
114,./greyInner/JoshRadnor(Ted)7_1_cut.png,0,169,169,113,,,2.nein,2.113,None,None,None,music,0.526,None,None,None,,['return'],[0.5335279801606703],2017_Jan_25_1025,59.9040172481,famFaceGrey,001,2,
2,./greyInner/AlysonHannigan(Lily)12_2_cut.png,0,170,170,1,,,1.ja,1.183,None,act,0.732,None,None,None,None,None,,['return'],[2.616044056647752],2017_Jan_25_1025,59.9040172481,famFaceGrey,001,2,
85,./greyInner/HughLaurie(DrHouse)9_2_cut.png,0,171,171,84,,,1.ja,4.171,None,dummy,0.403,None,None,None,None,None,,['return'],[0.9167673101110267],2017_Jan_25_1025,59.9040172481,famFaceGrey,001,2,
29,./greyInner/Beyonce5_3_cut.png,0,172,172,28,,,1.ja,1.026,None,None,None,music,0.442,None,None,None,Beyonce Knowles,"['lshift', 'b', 'e', 'y', 'o', 'n', 'c', 'e', 'space', 'lshift', 'k', 'n', 'o', 'w', 'l', 'e', 's', 'return']","[0.5001342447221759, 0.6331382053422203, 0.8166942052794184, 0.9999926221539681, 1.0833260356812389, 1.2665497117668565, 1.3331854556349754, 1.5165393667434728, 1.6163173577301677, 1.7162890973718277, 1.7828356655345488, 1.9495753087230696, 2.132751830748475, 2.232618355888917, 2.3659687545009547, 2.4993422489792465, 2.6825752275667583, 3.0489856905073793]",2017_Jan_25_1025,59.9040172481,famFaceGrey,001,2,
57,./greyInner/ElvisPresley2_1_cut.png,0,173,173,56,,,1.ja,1.063,None,None,None,music,0.567,None,None,None,Elvis Presley,"['lshift', 'e', 'l', 'v', 'i', 's', 'space', 'lshift', 'p', 'r', 'e', 's', 'l', 'e', 'y', 'return']","[0.30042012022067865, 0.45043899788333874, 0.6503651552670817, 0.9000847169204462, 1.1001340522566352, 1.1835187899309858, 1.333394280758057, 1.3834712509396923, 1.5498532289789182, 1.6833450897711373, 1.8664654760109443, 2.06643333426382, 2.1831482937450346, 2.2829564376679627, 2.4995058446979783, 2.6327414055313056]",2017_Jan_25_1025,59.9040172481,famFaceGrey,001,2,
207,./greyInner/WillSmith14_1_cut.png,0,174,174,206,,,1.ja,1.281,None,act,0.592,None,None,None,None,None,Will Smith,"['lshift', 'w', 'i', 'l', 'l', 'space', 'lshift', 's', 'm', 'i', 't', 'h', 'return']","[0.30013912051572333, 0.3835145556886346, 0.5502391224085841, 0.7333364127821369, 0.8666213731071366, 1.049866541179199, 1.1497728425333662, 1.233256699966205, 1.3330176898293757, 1.4830920617264383, 1.6163343588536918, 1.6831365854236537, 2.3491501523203624]",2017_Jan_25_1025,59.9040172481,famFaceGrey,001,2,
126,./greyInner/KatjaBurkard1_1_cut.png,0,175,175,125,,,2.nein,1.568,None,act,1.577,None,None,None,None,None,,['return'],[0.46690570888131333],2017_Jan_25_1025,59.9040172481,famFaceGrey,001,2,
154,./greyInner/NeilPatrickHarris(Barney)2_2_cut.png,0,176,176,153,,,1.ja,1.138,None,act,0.413,None,None,None,None,None,Barney Stinson,"['lshift', 'b', 'a', 'r', 'n', 'e', 'y', 'space', 'lshift', 's', 't', 'i', 'n', 's', 'o', 'n', 'return']","[0.5335777004279407, 0.6833434858913279, 0.8668462370255838, 1.0832310860091638, 1.183314134894772, 1.2833384817868136, 1.4829862056731145, 1.6165951496755042, 1.7330926230838486, 1.8331913899892243, 1.9330229505544594, 2.1329885633763297, 2.316128837722772, 2.4161156538325486, 2.499493655212518, 2.6492905559398423, 2.88268615187917]",2017_Jan_25_1025,59.9040172481,famFaceGrey,001,2,
107,./greyInner/JoachimLoew12_1_cut.png,0,177,177,106,,,2.nein,1.763,None,act,1.896,None,None,None,None,None,,['return'],[0.6670426160430907],2017_Jan_25_1025,59.9040172481,famFaceGrey,001,2,
138,./greyInner/LisaEdelstein(DrLisaCuddy)2_2_cut.png,0,178,178,137,,,2.nein,2.234,None,act,1.275,None,None,None,None,None,,['return'],[0.6501457445383494],2017_Jan_25_1025,59.9040172481,famFaceGrey,001,2,
80,./greyInner/GeorgeClooney4_2_cut.png,0,179,179,79,,,1.ja,3.003,None,act,0.734,None,None,None,None,None,,['return'],[52.09566692681619],2017_Jan_25_1025,59.9040172481,famFaceGrey,001,2,
83,./greyInner/HughLaurie(DrHouse)5_3_cut.png,0,180,180,82,,,1.ja,1.94,None,act,0.561,None,None,None,None,None,Dr House,"['lshift', 'd', 'r', 'space', 'lshift', 'h', 'o', 'u', 's', 'e', 'return']","[0.5167709669567557, 1.050006078703973, 1.2999854688509913, 1.3833942647192998, 1.4996841961083192, 1.5829967592012508, 1.7829752030593227, 1.9494303180076713, 2.0329051937151235, 2.216099358416159, 2.5661005292481605]",2017_Jan_25_1025,59.9040172481,famFaceGrey,001,2,
127,./greyInner/KatjaBurkard10_1_cut.png,0,181,181,126,,,1.ja,3.036,None,None,None,host,0.78,None,None,None,Frauke Ludowig,"['lshift', 'f', 'r', 'a', 'u', 'k', 'e', 'space', 'lshift', 'l', 'u', 'd', 'o', 'w', 'i', 'g', 'return']","[0.5002753861258498, 0.6333762210733767, 0.7834499514183335, 0.8834550517553907, 1.0166508363749927, 1.1832432434166549, 1.2833060834186654, 1.3832951449599022, 1.4665050597586742, 1.5660934721777267, 1.7498419376661332, 1.833052494016556, 1.91622455725701, 2.032957800965505, 3.8654697875595048, 4.0653901709765705, 5.34813489653834]",2017_Jan_25_1025,59.9040172481,famFaceGrey,001,2,
133,./greyInner/LeonardoDiCaprio3_1_cut.png,0,182,182,132,,,1.ja,1.213,None,act,0.476,None,None,None,None,None,Leonardo DiCaprio,"['lshift', 'l', 'e', 'o', 'n', 'b', 'a', 'r', 'd', 'o', 'backspace', 'backspace', 'backspace', 'backspace', 'backspace', 'backspace', 'n', 'a', 'r', 'd', 'o', 'space', 'lshift', 'd', 'i', 'lshift', 'c', 'a', 'p', 'r', 'i', 'o', 'return']","[0.3499597907389216, 0.5667568367775857, 0.6833893568477833, 0.7666999952848528, 0.950218464439331, 1.0000346437991539, 1.2164380977860674, 1.4332524657243084, 1.5661521741712932, 1.93288726234141, 2.066160674733055, 2.2162565386161077, 2.3657268894585286, 2.4993765720023475, 2.732521321173408, 3.3157551337781115, 3.5323215419311964, 3.865421350395991, 4.04858664526455, 4.148773625547619, 4.3652229504905335, 4.398541624364498, 4.481827563055958, 4.598658964195238, 4.864852614692609, 4.99824150641507, 5.181362854982581, 6.314464331482213, 6.647595255210945, 6.764169073288031, 6.897401426362194, 7.197114556458473]",2017_Jan_25_1025,59.9040172481,famFaceGrey,001,2,
149,./greyInner/MilaKunis5_2_cut.png,0,183,183,148,,,1.ja,5.149,None,None,None,music,0.51,None,None,None,,['return'],[0.6173444822211422],2017_Jan_25_1025,59.9040172481,famFaceGrey,001,2,
75,./greyInner/GuentherJauch9_1_cut.png,0,184,184,74,,,1.ja,1.608,None,None,None,host,0.57,None,None,None,Günther Jauch,"['lshift', 'g', u'\xfc', 'n', 't', 'h', 'e', 'r', 'space', 'lshift', 'j', 'a', 'u', 'c', 'h', 'return']","[0.4333903993688182, 0.6001759135133398, 0.85002859717315, 1.0663133640700835, 1.1665317803926882, 1.2832409659072255, 1.3997159850014214, 1.5331562008709625, 1.6161877642589388, 1.7330015227230433, 1.849551924158277, 2.0328583604305095, 2.166123111872821, 2.2825278810405507, 2.3826882369221494, 2.6492148528232065]",2017_Jan_25_1025,59.9040172481,famFaceGrey,001,2,
137,./greyInner/LisaEdelstein(DrLisaCuddy)10_1_cut.png,0,185,185,136,,,2.nein,1.145,None,act,0.529,None,None,None,None,None,,['return'],[0.5011478966239338],2017_Jan_25_1025,59.9040172481,famFaceGrey,001,2,
215,./greyInner/notfamousface13_1_cut.png,0,186,186,214,,,2.nein,1.224,None,None,None,music,1.263,None,None,None,,['return'],[0.633582159213347],2017_Jan_25_1025,59.9040172481,famFaceGrey,001,2,
35,./greyInner/BritneySpears8_5_cut.png,0,187,187,34,,,1.ja,1.01,None,None,None,music,0.439,None,None,None,Britney Spears,"['lshift', 'b', 'r', 'i', 't', 'n', 'e', 'y', 'space', 'lshift', 's', 'p', 'e', 'a', 'r', 's', 'return']","[0.4334362703257284, 0.5668126517871315, 0.7167234279654622, 0.8334855415068887, 1.049995172322724, 1.233262794708935, 1.299802626577275, 1.4664075438799955, 1.5831379006049247, 1.716332081345172, 1.83284431044558, 1.9829805920944636, 2.1494514250630345, 2.3326536091622074, 2.5494737510671257, 2.732596703514446, 2.9324195710519234]",2017_Jan_25_1025,59.9040172481,famFaceGrey,001,2,
112,./greyInner/JoshRadnor(Ted)3_1_cut.png,0,188,188,111,,,1.ja,1.516,None,act,0.848,None,None,None,None,None,Ted Mosby,"['lshift', 't', 'e', 'd', 'space', 'lshift', 'm', 'o', 's', 'b', 'y', 'return']","[0.3834863274073541, 0.5836966922547617, 0.7165649646617567, 0.8667650807183236, 0.966851016587043, 1.0333427320674673, 1.1330751728742143, 1.2998520260684927, 1.3666228165984649, 1.483219730541805, 1.5664508165509687, 1.7163558187626222]",2017_Jan_25_1025,59.9040172481,famFaceGrey,001,2,
124,./greyInner/KaleyCuoco(Penny)5_2_cut.png,0,189,189,123,,,1.ja,1.115,None,act,0.452,None,None,None,None,None,Penny,"['lshift', 'p', 'e', 'n', 'n', 'y', 'return']","[0.3333596369584484, 0.5336171558656133, 0.6836344296489187, 0.7836542856784945, 0.9002242544443106, 1.0002720179786593, 1.1500182361110092]",2017_Jan_25_1025,59.9040172481,famFaceGrey,001,2,
36,./greyInner/CarenMiosga1_1_cut.png,0,190,190,35,,,2.nein,2.273,None,None,None,None,None,sport,0.529,None,,['return'],[0.5334801845488073],2017_Jan_25_1025,59.9040172481,famFaceGrey,001,2,
42,./greyInner/CobieSmulders(Robin)2_1_cut.png,0,191,191,41,,,1.ja,1.246,None,act,0.512,None,None,None,None,None,Robin,"['lshift', 'r', 'o', 'b', 'i', 'n', 'return']","[0.4671536686660147, 0.6336867321624595, 0.7668847622135218, 0.9668000132155612, 1.0665064711729428, 1.2334071438717729, 1.4500152528949002]",2017_Jan_25_1025,59.9040172481,famFaceGrey,001,2,
139,./greyInner/LisaEdelstein(DrLisaCuddy)6_3_cut.png,0,192,192,138,,,2.nein,3.115,None,act,0.574,None,None,None,None,None,,['return'],[0.483577074915047],2017_Jan_25_1025,59.9040172481,famFaceGrey,001,2,
110,./greyInner/JoachimLoew8_1_cut.png,0,193,193,109,,,1.ja,0.95,None,None,None,None,None,sport,0.99,None,Joachim Löw,"['lshift', 'j', 'o', 'a', 'c', 'h', 'i', 'm', 'space', 'lshift', 'l', u'\xf6', 'w', 'return']","[0.566817463426105, 0.7334194937452594, 0.8999570481046248, 0.9666447576714745, 1.1665205532358414, 1.2165057815050204, 1.3497111894021145, 1.5164992697536945, 1.6664026680859934, 1.6995968809033002, 1.8495532072620335, 2.016220996644279, 2.042826151321151, 2.1987219645857294]",2017_Jan_25_1025,59.9040172481,famFaceGrey,001,2,
17,./greyInner/BastianSchweinsteiger12_1_cut.png,0,194,194,16,,,1.ja,1.358,None,None,None,None,None,sport,0.497,None,Bastian Schwiensteiger,"['lshift', 'b', 'a', 's', 't', 'i', 'a', 'n', 'space', 'lshift', 's', 'c', 'h', 'w', 'i', 'e', 'n', 's', 't', 'e', 'i', 'g', 'e', 'r', 'return']","[0.41665904823867095, 0.5835507392121144, 0.7333877369292168, 0.8832545668064995, 1.0000904588091544, 1.1829455633642283, 1.2665461832316396, 1.3831636268337206, 1.5331719188911848, 1.582993551441632, 1.6830227099726471, 1.8995698715712024, 1.9827108195472647, 2.132814382052402, 2.2829734387919416, 2.432596478970936, 2.5326721500105123, 2.632638757237146, 2.7492876368792167, 2.8157257827815556, 2.9991903615818956, 3.065659943524224, 3.2157076910198157, 3.332249752280859]",2017_Jan_25_1025,59.9040172481,famFaceGrey,001,2,
12,./greyInner/BarackObama11_2_cut.png,0,195,195,11,,,1.ja,1.63,None,None,None,None,None,polit,0.469,None,Barack Obama,"['lshift', 'b', 'a', 'r', 'a', 'c', 'k', 'space', 'lshift', 'o', 'b', 'a', 'm', 'a', 'return']","[0.299819948476852, 0.44966239938457875, 0.6169906663831171, 0.733281880875893, 0.8001161850374956, 0.9669177379782923, 1.0500904427703972, 1.2000079552426541, 1.2666796260136834, 1.3999491890945137, 1.5664508165509687, 1.6665367524196881, 1.766413542389273, 1.8498929089596459, 2.0163146632125972]",2017_Jan_25_1025,59.9040172481,famFaceGrey,001,2,
5,./greyInner/AlysonHannigan(Lily)8_3_cut.png,0,196,196,4,,,1.ja,1.177,None,dummy,0.683,None,None,None,None,None,,['return'],[1.4497409894843258],2017_Jan_25_1025,59.9040172481,famFaceGrey,001,2,
45,./greyInner/CobieSmulders(Robin)5_1_cut.png,0,197,197,44,,,1.ja,1.463,None,act,0.497,None,None,None,None,None,Robin,"['lshift', 'r', 'o', 'b', 'i', 'n', 'return']","[0.28373111151131525, 0.4335783740575607, 0.5835533054196276, 0.7334499674575454, 0.8001707169437395, 0.9666720236245965, 1.18337187456018]",2017_Jan_25_1025,59.9040172481,famFaceGrey,001,2,
24,./greyInner/BenedictCumberbatch4_1_cut.png,0,198,198,23,,,1.ja,1.085,None,dummy,0.513,None,None,None,None,None,Benedict Cumberbatch,"['lshift', 'b', 'e', 'n', 'e', 'd', 'i', 'c', 't', 'space', 'lshift', 'c', 'u', 'm', 'b', 'e', 'r', 'b', 'a', 't', 'c', 'h', 'return']","[0.3168515458673937, 0.5166959053917708, 0.6500783815954492, 0.766597346990693, 0.8834127093341522, 1.0670761692040287, 1.4162189436783592, 1.5162891615268563, 1.766263740035356, 2.332774862459246, 2.499306322076336, 2.6492511005021697, 2.782538947809826, 2.9824160264779493, 3.1490870236198134, 3.19882525443154, 3.3491116592103936, 3.378728258209321, 3.5488094241400177, 3.6489316076872456, 3.765479442914966, 3.8486871122822777, 4.148758869855101]",2017_Jan_25_1025,59.9040172481,famFaceGrey,001,2,
1,./greyInner/AlysonHannigan(Lily)1_1_cut.png,0,199,199,0,,,1.ja,1.167,None,act,0.54,None,None,None,None,None,,['return'],[0.6503138311200019],2017_Jan_25_1025,59.9040172481,famFaceGrey,001,2,
98,./greyInner/JasonSegel(Marshall)6_1_cut.png,0,200,200,97,,,1.ja,1.322,None,dummy,0.474,None,None,None,None,None,Eric,"['lshift', 'e', 'r', 'i', 'c', 'return']","[0.8999368392219367, 0.9999076165354381, 1.2332624739328821, 1.3332213825378858, 1.4499058683068142, 1.5998070212076527]",2017_Jan_25_1025,59.9040172481,famFaceGrey,001,2,
43,./greyInner/CobieSmulders(Robin)3_4_cut.png,0,201,201,42,,,1.ja,1.02,None,act,0.546,None,None,None,None,None,Robin,"['lshift', 'r', 'o', 'b', 'i', 'n', 'return']","[0.4332887134032717, 0.5834859424767274, 0.733349564594846, 0.883218319127991, 0.9666457199991783, 1.166385827350041, 1.4163273659391962]",2017_Jan_25_1025,59.9040172481,famFaceGrey,001,2,
59,./greyInner/ElvisPresley5_2_cut.png,0,202,202,58,,,1.ja,1.016,None,None,None,music,0.415,None,None,None,Elvis Presley,"['lshift', 'e', 'l', 'v', 'i', 's', 'space', 'lshift', 'p', 'r', 'e', 's', 'l', 'e', 'y', 'return']","[0.38338399988970195, 0.5169242978454349, 0.6331128640445058, 0.7833713613185864, 0.8832619446525314, 1.0330540337413368, 1.116440375295042, 1.1998562282333296, 1.3498956355551854, 1.4997185191314202, 1.6830143697989115, 1.8491131027017218, 1.9496458794246792, 2.0662235468130348, 2.249568476195691, 2.3993913597723804]",2017_Jan_25_1025,59.9040172481,famFaceGrey,001,2,
134,./greyInner/LeonardoDiCaprio4_1_cut.png,0,203,203,133,,,1.ja,0.977,None,act,0.727,None,None,None,None,None,Leonardo DiCaprio,"['lshift', 'l', 'e', 'o', 'n', 'a', 'r', 'd', 'o', 'space', 'lshift', 'd', 'i', 'lshift', 'c', 'a', 'p', 'r', 'i', 'o', 'return']","[0.36671006764845515, 0.5667892351452792, 0.7347195985425969, 0.7996619663372257, 0.9666582302602365, 1.0999470398960511, 1.316431970965823, 1.516368072403111, 1.5994471106268975, 1.7662999877143193, 1.8496122300311981, 1.9329167737255375, 2.0327518628259895, 2.1493763634980496, 2.2660111289997076, 2.415813482917656, 2.5993139886209065, 2.7323865952876076, 2.815867886513388, 2.9656525977557067, 3.215300947155356]",2017_Jan_25_1025,59.9040172481,famFaceGrey,001,2,
67,./greyInner/EmmaWatson(HermioneGranger)16_1_cut.png,0,204,204,66,,,1.ja,1.189,None,act,0.466,None,None,None,None,None,Emma Watson,"['lshift', 'e', 'm', 'm', 'a', 'space', 'lshift', 'w', 'a', 't', 's', 'o', 'n', 'return']","[0.20032841038528204, 0.31718611514997974, 0.4670109233820767, 0.5834301274667268, 0.6502317124845831, 0.8337514647428179, 0.9001386072741298, 0.9499432387010529, 1.133450801474737, 1.2335774758848856, 1.350023304370552, 1.433229690634107, 1.6332235317363484, 1.8664106233286475]",2017_Jan_25_1025,59.9040172481,famFaceGrey,001,2,
46,./greyInner/CristinMilioti(Tracy_Mutter)10_1_cut.png,0,205,205,45,,,2.nein,1.498,None,act,1.159,None,None,None,None,None,,['return'],[0.566831256790465],2017_Jan_25_1025,59.9040172481,famFaceGrey,001,2,
220,./greyInner/notfamousface5_1_cut.png,0,206,206,219,,,2.nein,1.173,None,None,None,None,None,polit,1.572,None,,['return'],[0.48381958150912396],2017_Jan_25_1025,59.9040172481,famFaceGrey,001,2,
60,./greyInner/ElvisPresley6_1_cut.png,0,207,207,59,,,1.ja,1.067,None,None,None,music,0.912,None,None,None,Elvis Presley,"['lshift', 'e', 'l', 'v', 'i', 's', 'space', 'lshift', 'p', 'r', 'e', 's', 'l', 'e', 'y', 'return']","[0.3677657411958535, 0.4838426773753781, 0.6009371147679303, 0.7674663289535602, 0.8840449586696195, 0.9673241610666992, 1.1007207514107904, 1.1673096619952048, 1.3336829790841875, 1.5004915890949633, 1.7003699508663885, 1.8504359825892607, 1.9669860632484415, 2.0670094478127794, 2.2501795543203116, 2.41675111092718]",2017_Jan_25_1025,59.9040172481,famFaceGrey,001,2,
13,./greyInner/BarackObama2_1_cut.png,0,208,208,12,,,1.ja,1.009,None,None,None,None,None,polit,0.489,None,Barack Obama,"['lshift', 'b', 'a', 'r', 'a', 'c', 'k', 'space', 'lshift', 'o', 'b', 'a', 'm', 'a', 'return']","[0.366819131460943, 0.5337557310626835, 0.68371462362893, 0.7666169143217303, 0.8835506429795714, 1.0501869963218269, 1.1168878577013857, 1.2666424160074712, 1.3667200117020002, 1.483240260200546, 1.6497755691289058, 1.7331817987897011, 1.8497617116090623, 1.9330733123738355, 2.099736931669213]",2017_Jan_25_1025,59.9040172481,famFaceGrey,001,2,
180,./greyInner/Shakira9_1_cut.png,0,209,209,179,,,1.ja,1.236,None,None,None,music,0.542,None,None,None,Shakira,"['lshift', 's', 'h', 'a', 'k', 'i', 'r', 'a', 'return']","[0.2836076127823617, 0.41673154359614273, 0.5500655826363072, 0.6500296236558825, 0.7501790731562323, 0.9166014689612894, 0.9665796401600346, 1.1831585585741777, 1.2830106487981539]",2017_Jan_25_1025,59.9040172481,famFaceGrey,001,2,
146,./greyInner/MilaKunis1_3_cut.png,0,210,210,145,,,1.ja,5.186,None,act,0.525,None,None,None,None,None,Mila Kunis,"['lshift', 'm', 'i', 'l', 'a', 'space', 'lshift', 'k', 'n', 'u', 'i', 'backspace', 'backspace', 'backspace', 'u', 'n', 'i', 's', 'return']","[6.647952599584187, 6.764527059212924, 6.9311679034181, 7.114449960720776, 7.197547924723949, 7.297648937060785, 7.430788265118736, 7.513946855770428, 7.680979367371947, 7.847466880688444, 8.047258953738037, 8.497242129041297, 8.647239514717512, 8.79681379695694, 9.246669303444833, 9.430023535328928, 9.596658926343935, 9.696597305289743, 10.296357172437183]",2017_Jan_25_1025,59.9040172481,famFaceGrey,001,2,
22,./greyInner/BenedictCumberbatch2_2_cut.png,0,211,211,21,,,1.ja,1.025,None,act,5.164,None,None,None,None,None,Benedict Cumberbatch,"['lshift', 'n', 'e', 'backspace', 'backspace', 'lshift', 'b', 'e', 'n', 'e', 'd', 'i', 'c', 't', 'space', 'lshift', 'c', 'u', 'm', 'b', 'e', 'r', 'b', 'a', 't', 'c', 'h', 'return']","[0.6334830394544042, 0.9001530421905954, 1.1664900795235553, 1.4499113214974386, 1.5665457662230438, 1.6664735595636557, 1.8165549885306973, 1.949785416949453, 2.0663502533006977, 2.199705142775656, 2.382879740145654, 2.449442988656301, 2.599404768205659, 2.7994249129333184, 2.9327368184353872, 3.132582140287468, 3.2327534025503155, 3.332294660909156, 3.5158840215417513, 3.6823734595136557, 3.8155904153436495, 3.999570801820937, 4.048737730722223, 4.198929185829002, 4.298733480441115, 4.398498961167206, 4.532071336715035, 4.948544655696878]",2017_Jan_25_1025,59.9040172481,famFaceGrey,001,2,
188,./greyInner/TaylorSwift3_1_cut.png,0,212,212,187,,,1.ja,1.167,None,None,None,music,0.444,None,None,None,Taylor Swift,"['lshift', 't', 'a', 'y', 'l', 'o', 'r', 'space', 'lshift', 's', 'w', 'i', 'f', 't', 'return']","[0.3003136226152492, 0.5663273178224699, 0.7169033832556124, 0.9333571990614473, 0.9833632777654202, 1.133335322143921, 1.233364801450989, 1.383135719328493, 1.4496543799864412, 1.5830281952407859, 1.7827211485318912, 1.8996933702997012, 1.9663214155457354, 2.1329102940521807, 2.249428617895319]",2017_Jan_25_1025,59.9040172481,famFaceGrey,001,2,
20,./greyInner/BastianSchweinsteiger6_2_cut.png,0,213,213,19,,,1.ja,1.137,None,None,None,None,None,sport,0.593,None,Bastian Schweinsteiger,"['lshift', 'b', 'a', 's', 't', 'i', 'a', 'n', 'space', 'lshift', 's', 'c', 'h', 'w', 'e', 'i', 'n', 's', 't', 'e', 'i', 'g', 'e', 'r', 'return']","[0.3174337541595378, 0.5505685592770533, 0.7507279207529791, 0.9006037323561031, 0.9337847933611556, 1.117039905486763, 1.1837494278161103, 1.3337731171177438, 1.4670898342583314, 1.5170041710493933, 1.6503359646585523, 1.816965260930374, 1.900208215648945, 2.0334133027699863, 2.1666251261854086, 2.1951491624063237, 2.3499059003843286, 2.4166882388472004, 2.533276812616805, 2.6165868095017686, 2.7332392176790563, 2.899861456880899, 2.9831445085892483, 3.1162982715632097, 3.232986606643408]",2017_Jan_25_1025,59.9040172481,famFaceGrey,001,2,
163,./greyInner/OmarEpps(DrEricForeman)3_1_cut.png,0,214,214,162,,,2.nein,1.18,None,act,0.659,None,None,None,None,None,,['return'],[0.46705775666623595],2017_Jan_25_1025,59.9040172481,famFaceGrey,001,2,
186,./greyInner/TaylorSwift1_2_cut.png,0,215,215,185,,,1.ja,0.925,None,None,None,music,0.433,None,None,None,Taylor Swift,"['lshift', 't', 'a', 'y', 'l', 'o', 'r', 'space', 'lshift', 's', 'w', 'i', 'f', 't', 'return']","[0.3668957969052826, 0.5499863509849092, 0.7001649750550314, 0.8834242572675066, 0.9500045069016778, 1.099968211106443, 1.1999986527412148, 1.3662789448139847, 1.4162891936048254, 1.5664652514674344, 1.7827025435285577, 1.8830082109011528, 1.9830518043486336, 2.1495511863736283, 2.2494189946178267]",2017_Jan_25_1025,59.9040172481,famFaceGrey,001,2,
15,./greyInner/BarackObama5_2_cut.png,0,216,216,14,,,1.ja,1.072,None,None,None,None,None,polit,0.644,None,Barack Obama,"['lshift', 'b', 'a', 'r', 'a', 'c', 'k', 'space', 'lshift', 'o', 'b', 'a', 'm', 'a', 'return']","[0.3673557895722297, 0.5338500391826528, 0.6837601738088779, 0.8004639061332455, 0.9170014765313681, 1.067085792481521, 1.1336814393598615, 1.3002491466554602, 1.3834144736015332, 1.5167831564413063, 1.6999808496775586, 1.7832812232850301, 1.8831445406663079, 1.9665712999858442, 2.1495813393098615]",2017_Jan_25_1025,59.9040172481,famFaceGrey,001,2,
79,./greyInner/GeorgeClooney3_1_cut.png,0,217,217,78,,,1.ja,2.873,None,dummy,3.462,None,None,None,None,None,Robter DenIro,"['lshift', 'r', 'o', 'b', 't', 'e', 'r', 'space', 'lshift', 'd', 'e', 'n', 'lshift', 'i', 'r', 'o', 'return']","[8.714024740163495, 8.863907929613106, 8.96373339543561, 9.180500609314095, 9.363611051500357, 9.480248703985126, 9.646847526545116, 9.730121275751571, 9.83018892739301, 9.946803804787578, 10.163195069289486, 10.379947527475451, 10.40815848639977, 10.579855721407512, 10.696086950803874, 10.796474416035835, 11.029644827279753]",2017_Jan_25_1025,59.9040172481,famFaceGrey,001,2,
115,./greyInner/JoshRadnor(Ted)9_1_cut.png,0,218,218,114,,,1.ja,2.672,None,dummy,0.43,None,None,None,None,None,Ted Mosby,"['lshift', 't', 'e', 'd', 'space', 'lshift', 'm', 'p', 'o', 's', 'b', 'y', 'backspace', 'backspace', 'backspace', 'backspace', 'backspace', 'o', 's', 'b', 'y', 'return']","[0.4168053220573711, 0.6336931476812424, 0.7835041625489794, 0.9834826064070512, 1.0832840140360531, 1.1664647382262956, 1.283435997665947, 1.4667193380723802, 1.5166994339269877, 1.6498458190549172, 1.7666448218265032, 1.9996683177005252, 2.1497920890883506, 2.3003569273646463, 2.4328601567763144, 2.5824803099721976, 2.9994572471459833, 3.3157285093766404, 3.415820539987635, 3.5490884991891107, 4.09883972142552]",2017_Jan_25_1025,59.9040172481,famFaceGrey,001,2,
21,./greyInner/BenedictCumberbatch16_1_cut.png,0,219,219,20,,,1.ja,1.186,None,act,0.411,None,None,None,None,None,Benedict Cumberbatch,"['lshift', 'b', 'e', 'n', 'e', 'd', 'i', 'c', 't', 'space', 'lshift', 'c', 'u', 'm', 'b', 'e', 'r', 'b', 'a', 't', 'c', 'h', 'return']","[0.5834929995467064, 0.8168353466830922, 0.983313557497695, 1.1167082231868335, 1.2498934222007847, 1.4330404328420627, 1.583150731641581, 1.6828655297726982, 1.8828988263130668, 1.9829706480409186, 2.1824531723295877, 2.282866299634861, 2.399477969270265, 2.5825730142123575, 2.766022516544581, 2.8660673930958183, 2.9825305434810616, 3.032259471790894, 3.282471103703301, 3.3656386760808346, 3.4989339012349774, 3.6322717895864116, 4.315328501806562]",2017_Jan_25_1025,59.9040172481,famFaceGrey,001,2,
145,./greyInner/MariskaHargitay(Liv)8_8_cut.png,0,220,220,144,,,2.nein,2.117,None,None,None,host,1.161,None,None,None,,['return'],[0.5171206127074583],2017_Jan_25_1025,59.9040172481,famFaceGrey,001,2,
132,./greyInner/LeonardoDiCaprio2_1_cut.png,0,221,221,131,,,1.ja,1.183,None,act,0.908,None,None,None,None,None,Leonardo DiCaprio,"['lshift', 'l', 'e', 'o', 'n', 'a', 'r', 'd', 'o', 'space', 'lshift', 'd', 'i', 'lshift', 'c', 'a', 'p', 'r', 'i', 'o', 'return']","[0.3499989254009961, 0.5169473937116891, 0.6500639466794382, 0.7167824507346268, 0.8832398111144357, 0.983360390782309, 1.1995630390438237, 1.3498244233010155, 1.4330468483608456, 1.6162779022924951, 1.7163997650636702, 1.8161273942314438, 1.9661571782753526, 2.0494424754151623, 2.199541547057379, 2.332661307784292, 2.4824909276553626, 2.6158098902274105, 2.715881391179664, 2.8655551139540876, 3.1156490211042183]",2017_Jan_25_1025,59.9040172481,famFaceGrey,001,2,
39,./greyInner/CarenMiosga6_2_cut.png,0,222,222,38,,,2.nein,2.658,None,act,0.93,None,None,None,None,None,,['return'],[0.5167279829834115],2017_Jan_25_1025,59.9040172481,famFaceGrey,001,2,
55,./greyInner/DannFlorek(DonaldDonCragen)8_1_cut.png,0,223,223,54,,,2.nein,0.993,None,None,None,host,0.501,None,None,None,,['return'],[0.46684379912858276],2017_Jan_25_1025,59.9040172481,famFaceGrey,001,2,
