num,pic,trials.thisRepN,trials.thisTrialN,trials.thisN,trials.thisIndex,key_resp_2.keys,key_resp_2.rt,ratingBekannt.response,ratingBekannt.rt,key_resp_5.keys,ratingK1.response,ratingK1.rt,ratingK2.response,ratingK2.rt,ratingK3.response,ratingK3.rt,key_resp_6.keys,inputText,key_resp_4.keys,key_resp_4.rt,date,frameRate,expName,session,participant,
,,,,,,space,51.0269381201,,,,,,,,,,,,,,2017_Jan_25_1225,60.0194645794,famFaceGrey,001,3,
148,./greyInner/MilaKunis4_1_cut.png,0,0,0,147,,,2.nein,10.88,None,act,10.441,None,None,None,None,None,,['return'],[4.948467348700433],2017_Jan_25_1225,60.0194645794,famFaceGrey,001,3,
169,./greyInner/RobertSeanLeonard(Wilson)2_6_cut.png,0,1,1,168,,,1.ja,4.442,None,act,3.264,None,None,None,None,None,,['return'],[2.9992625361628598],2017_Jan_25_1225,60.0194645794,famFaceGrey,001,3,
150,./greyInner/MilaKunis7_3_cut.png,0,2,2,149,,,2.nein,5.122,None,None,None,music,10.054,None,None,None,,['return'],[2.0661577877490345],2017_Jan_25_1225,60.0194645794,famFaceGrey,001,3,
76,./greyInner/GeorgeClooney11_1_cut.png,0,3,3,75,,,1.ja,29.901,None,act,2.145,None,None,None,None,None,Gergoe Cloney,"['lshift', 'g', 'e', 'r', 'g', 'o', 'e', 'space', 'lshift', 'c', 'l', 'o', 'n', 'e', 'y', 'left', 'left', 'backspace', 'y', 'return']","[1.9331814138586196, 2.082909668539287, 2.7162024878743978, 2.966068323346917, 3.8151249694874423, 4.032432049236377, 4.232272238672522, 4.4155587868390285, 4.6320170935086935, 4.798752245833384, 4.898575145449286, 5.098483339381346, 5.681589483168864, 5.981610558146713, 6.364724464714527, 8.147255072350163, 8.463814391356209, 11.345805421819023, 12.878655281689134, 17.410184507101803]",2017_Jan_25_1225,60.0194645794,famFaceGrey,001,3,
89,./greyInner/Ice-T(OdafinFinTutuola)6_1_cut.png,0,4,4,88,,,1.ja,10.75,None,act,1.534,None,None,None,None,None,,['return'],[19.625707110415533],2017_Jan_25_1225,60.0194645794,famFaceGrey,001,3,
51,./greyInner/DannFlorek(DonaldDonCragen)1_1_cut.png,0,5,5,50,,,2.nein,7.576,None,None,None,None,None,polit,1.113,None,,['return'],[1.566508556215922],2017_Jan_25_1225,60.0194645794,famFaceGrey,001,3,
130,./greyInner/KatjaBurkard7_1_cut.png,0,6,6,129,,,2.nein,7.525,None,dummy,2.227,None,None,None,None,None,,['return'],[1.7660770484508248],2017_Jan_25_1225,60.0194645794,famFaceGrey,001,3,
119,./greyInner/JudithRakers7_1_cut.png,0,7,7,118,,,2.nein,8.792,None,None,None,host,3.46,None,None,None,,['return'],[3.2658112856024673],2017_Jan_25_1225,60.0194645794,famFaceGrey,001,3,
140,./greyInner/LisaEdelstein(DrLisaCuddy)9_1_cut.png,0,8,8,139,,,2.nein,3.845,None,dummy,7.91,None,None,None,None,None,,['return'],[2.3328589057509816],2017_Jan_25_1225,60.0194645794,famFaceGrey,001,3,
14,./greyInner/BarackObama4_1_cut.png,0,9,9,13,,,1.ja,2.396,None,None,None,None,None,polit,1.813,None,Barak Obama,"['lshift', 'b', 'a', 'r', 'a', 'k', 'space', 'lshift', 'lshift', 'o', 'b', 'a', 'm', 'a', 'return']","[1.7332992027750151, 1.8668642004759022, 2.1166873727506754, 2.3999158283986617, 2.8664163972935057, 4.03252507425168, 4.315751284466387, 4.6486422678081, 6.864769533729486, 7.081363528612201, 7.41446045009252, 7.6309986299656885, 7.814305066238376, 7.89759196725754, 8.813792466320592]",2017_Jan_25_1225,60.0194645794,famFaceGrey,001,3,
175,./greyInner/SahraWagenknecht9_1_cut.png,0,10,10,174,,,1.ja,3.04,None,None,None,None,None,polit,1.292,None,Wagenknecht,"['lshift', 's', 'period', 'space', 'lshift', 'w', 'a', 'g', 'e', 'n', 'k', 'n', 'e', 'c', 'h', 't', 'left', 'left', 'backspace', 'backspace', 'backspace', 'backspace', 'backspace', 'backspace', 'backspace', 'backspace', 'backspace', 'backspace', 'backspace', 'backspace', 'period', 'space', 'lshift', 'w', 'a', 'backspace', 'backspace', 'backspace', 'backspace', 'lshift', 'w', 'a', 'g', 'e', 'n', 'k', 'n', 'e', 'c', 'h', 't', 'return']","[4.09895616308313, 4.56539995464118, 5.581453185481223, 5.831467540203448, 5.931460130279447, 6.264727704548932, 6.531268755366909, 6.664460690675696, 6.814368259094408, 6.9811002036603895, 7.231013513968719, 7.497509656155671, 8.296997761945022, 8.513730652801314, 8.680370213902279, 8.91356628721951, 11.795549619062513, 12.01217376688146, 12.978354682574718, 14.177996632493887, 14.378019022653461, 14.54456523796216, 14.711123321980267, 14.861115896017509, 15.027706057628166, 15.193960046075517, 15.344373157342488, 15.510898842992901, 15.64531742541294, 15.810861215977638, 16.710368215468407, 17.593211226771018, 18.392903346044477, 18.69296900887639, 19.009503628134553, 19.67563588212215, 19.859064854796088, 20.025605616914618, 20.192257688277095, 20.758736091556784, 20.958662890492633, 21.258450440600427, 21.3918418985304, 21.525147388514597, 21.641400430673457, 21.87492690318686, 22.091268126645446, 22.641218871503952, 22.85788279553526, 22.957780115164496, 23.140978770728907, 27.955697637900812]",2017_Jan_25_1225,60.0194645794,famFaceGrey,001,3,
79,./greyInner/GeorgeClooney3_1_cut.png,0,11,11,78,,,1.ja,9.359,None,act,0.863,None,None,None,None,None,,['return'],[1.499819884322278],2017_Jan_25_1225,60.0194645794,famFaceGrey,001,3,
116,./greyInner/JudithRakers1_1_cut.png,0,12,12,115,,,2.nein,4.843,None,None,None,music,5.36,None,None,None,,['return'],[2.3161817657492065],2017_Jan_25_1225,60.0194645794,famFaceGrey,001,3,
144,./greyInner/MariskaHargitay(Liv)6_5_cut.png,0,13,13,143,,,2.nein,4.011,None,act,2.209,None,None,None,None,None,,['return'],[1.4498991320124333],2017_Jan_25_1225,60.0194645794,famFaceGrey,001,3,
48,./greyInner/CristinMilioti(Tracy_Mutter)4_2_cut.png,0,14,14,47,,,2.nein,3.511,None,None,None,music,7.409,None,None,None,,['return'],[2.016348344683138],2017_Jan_25_1225,60.0194645794,famFaceGrey,001,3,
223,./greyInner/notfamousface8_9_cut.png,0,15,15,222,,,2.nein,4.166,None,None,None,None,None,sport,9.11,None,,['return'],[1.6333361240831437],2017_Jan_25_1225,60.0194645794,famFaceGrey,001,3,
145,./greyInner/MariskaHargitay(Liv)8_8_cut.png,0,16,16,144,,,1.ja,5.542,None,act,1.083,None,None,None,None,None,,['return'],[2.049831255828394],2017_Jan_25_1225,60.0194645794,famFaceGrey,001,3,
72,./greyInner/GuentherJauch3_1_cut.png,0,17,17,71,,,1.ja,3.267,None,None,None,host,1.634,None,None,None,Günter Jauch,"['lshift', 'g', u'\xfc', 'n', 't', 'e', 'r', 'space', 'lshift', 'j', 'a', 'u', 'c', 'h', 'return']","[1.1000455181019788, 1.2167575906005368, 1.5830172888581728, 1.8997738850539463, 2.382863380573326, 2.582844390639366, 2.749539445974733, 2.9160154113578756, 3.0992490314965835, 3.2991909069005487, 3.615766585477104, 3.7323583670058724, 3.8656500636243436, 3.965715469834322, 5.4150660750274255]",2017_Jan_25_1225,60.0194645794,famFaceGrey,001,3,
7,./greyInner/AngelaMerkel3_1_cut.png,0,18,18,6,,,1.ja,1.835,None,None,None,None,None,polit,1.188,None,Angela Merkel,"['lshift', 'a', 'n', 'g', 'e', 'l', 'a', 'space', 'lshift', 'm', 'e', 'r', 'k', 'e', 'l', 'return']","[0.7167096346001927, 0.900069319675822, 1.2165936741057521, 1.4664630381139432, 2.0496689432129642, 2.599507095723311, 2.8326852055906784, 2.9492295122818177, 3.082436203283578, 3.1823492409312166, 3.3157711725743866, 3.4823578056493716, 3.6322034643162624, 3.7990037341514835, 3.91507874567651, 11.02931282420468]",2017_Jan_25_1225,60.0194645794,famFaceGrey,001,3,
162,./greyInner/OmarEpps(DrEricForeman)2_2_cut.png,0,19,19,161,,,2.nein,7.234,None,None,None,music,1.035,None,None,None,,['return'],[1.4498468455385591],2017_Jan_25_1225,60.0194645794,famFaceGrey,001,3,
85,./greyInner/HughLaurie(DrHouse)9_2_cut.png,0,20,20,84,,,1.ja,3.807,None,act,0.892,None,None,None,None,None,,['return'],[5.5982794862848095],2017_Jan_25_1225,60.0194645794,famFaceGrey,001,3,
206,./greyInner/WillSmith1_1_cut.png,0,21,21,205,,,1.ja,2.33,None,act,1.13,None,None,None,None,None,Will Smith,"['lshift', 'w', 'i', 'l', 'l', 'space', 'lshift', 's', 'm', 'i', 't', 'h', 'return']","[1.266898074412893, 1.3170414452106343, 1.6169954780216358, 1.866879597720981, 2.0333552423271612, 2.2001526251806354, 2.416590402192014, 2.59997286235739, 3.349426019609382, 3.4328842149698175, 3.732844021746132, 3.9328112384482665, 4.582392417369192]",2017_Jan_25_1225,60.0194645794,famFaceGrey,001,3,
143,./greyInner/MariskaHargitay(Liv)4_4_cut.png,0,22,22,142,,,1.ja,7.993,None,act,1.379,None,None,None,None,None,,['return'],[1.5167173973786703],2017_Jan_25_1225,60.0194645794,famFaceGrey,001,3,
17,./greyInner/BastianSchweinsteiger12_1_cut.png,0,23,23,16,,,2.nein,3.113,None,None,None,None,None,sport,1.014,None,,['return'],[1.4497910305290134],2017_Jan_25_1225,60.0194645794,famFaceGrey,001,3,
34,./greyInner/BritneySpears7_1_cut.png,0,24,24,33,,,1.ja,2.846,None,None,None,music,1.197,None,None,None,Britney Spears,"['lshift', 'b', 'r', 'i', 't', 'n', 'e', 'y', 'space', 'lshift', 's', 'p', 'e', 'a', 'r', 's', 'return']","[0.8501527374537545, 0.9834348107942787, 1.2001285669884965, 1.366484882953955, 1.9663855707294715, 2.4328563074650447, 2.6162268989210133, 3.115971080125746, 3.282634057870382, 3.4490256591871002, 3.6157335455591237, 3.832410621404051, 4.232148739944023, 4.515429161288921, 4.681996547809831, 4.915152844912882, 5.481634776728242]",2017_Jan_25_1225,60.0194645794,famFaceGrey,001,3,
31,./greyInner/BritneySpears1_1_cut.png,0,25,25,30,,,1.ja,8.623,None,None,None,music,3.491,None,None,None,Britney Spears,"['lshift', 'b', 'r', 'i', 't', 'n', 'e', 'y', 'space', 'lshift', 's', 'p', 'e', 'a', 'r', 's', 'return']","[1.283129656663732, 1.4497958421670774, 1.7329777853046835, 1.9161135687900241, 2.199454616782532, 2.4326327266498993, 2.5993143093965045, 2.982377212591018, 3.0656560942134092, 3.2155601340964495, 3.34898655660254, 3.5488472756987903, 3.7322310189665586, 3.9153148367513495, 4.148597519568284, 4.515100686749065, 4.915047951188171]",2017_Jan_25_1225,60.0194645794,famFaceGrey,001,3,
52,./greyInner/DannFlorek(DonaldDonCragen)10_1_cut.png,0,26,26,51,,,2.nein,2.817,None,None,None,None,None,polit,4.834,None,,['return'],[1.6496331446214754],2017_Jan_25_1225,60.0194645794,famFaceGrey,001,3,
71,./greyInner/GuentherJauch2_1_cut.png,0,27,27,70,,,1.ja,3.243,None,None,None,host,1.462,None,None,None,Günter Jauch,"['lshift', 'g', u'\xfc', 'n', 't', 'e', 'r', 'space', 'lshift', 'j', 'a', 'u', 'c', 'h', 'return']","[1.067073282221827, 1.2169904739184858, 1.8000914852927963, 2.066220980605067, 2.2997878708847566, 2.4329403507563256, 2.599640217729757, 2.882499460294639, 3.0662136027603992, 3.216105453158889, 3.3992588793189498, 3.5159202692211693, 3.6823227769182267, 3.749099662190929, 5.315032104857892]",2017_Jan_25_1225,60.0194645794,famFaceGrey,001,3,
46,./greyInner/CristinMilioti(Tracy_Mutter)10_1_cut.png,0,28,28,45,,,2.nein,3.442,None,act,5.475,None,None,None,None,None,,['return'],[1.3497702121712791],2017_Jan_25_1225,60.0194645794,famFaceGrey,001,3,
135,./greyInner/LeonardoDiCaprio7_1_cut.png,0,29,29,134,,,1.ja,16.215,None,act,0.854,None,None,None,None,None,Leonardo di Caprio,"['lshift', 'l', 'e', 'o', 'n', 'a', 'r', 'd', 'o', 'space', 'd', 'i', 'space', 'lshift', 'c', 'a', 'p', 'r', 'i', 'o', 'return']","[1.066524434623716, 1.4664607926824829, 1.6996883020401583, 2.449435931586777, 2.7324590906446247, 3.2657333370552806, 3.6322082759543264, 4.2319338200795755, 4.398579796697959, 4.715029731116374, 5.348239790264415, 5.5146916974536, 5.897743694267774, 6.064477884265216, 6.331043955602581, 6.547660404799899, 6.847630155631123, 7.147444650916441, 7.8138691317653866, 7.9803001885193225, 8.98008591020698]",2017_Jan_25_1225,60.0194645794,famFaceGrey,001,3,
29,./greyInner/Beyonce5_3_cut.png,0,30,30,28,,,2.nein,3.674,None,None,None,music,2.758,None,None,None,,['return'],[1.4499142084805499],2017_Jan_25_1225,60.0194645794,famFaceGrey,001,3,
104,./greyInner/JimParsons(SheldonCooper)8_1_cut.png,0,31,31,103,,,1.ja,2.859,None,act,1.659,None,None,None,None,None,Jim Parsons,"['lshift', 'j', 'i', 'm', 'space', 'lshift', 'p', 'a', 'r', 's', 'o', 'n', 's', 'return']","[3.0654947439270472, 3.232309127904955, 3.256138929333247, 3.482352352459202, 3.5988918475122773, 3.898724306251097, 4.065329223552908, 4.298529146182773, 4.431887564192948, 4.748422825003217, 4.898386529208437, 5.081591921067229, 5.148190454929136, 6.314268978949258]",2017_Jan_25_1225,60.0194645794,famFaceGrey,001,3,
194,./greyInner/TomCruise6_1_cut.png,0,32,32,193,,,1.ja,4.743,None,dummy,0.58,None,None,None,None,None,Tom Curse,"['lshift', 't', 'o', 'm', 'space', 'lshift', 'c', 'u', 'r', 's', 'e', 'return']","[1.0502800213380397, 1.3667405413598317, 1.516727662206904, 1.749975059672579, 1.8000189899339603, 2.416307157054689, 2.599513832017692, 3.066097481876568, 3.2159120252799767, 3.4825685554260417, 3.69915966332519, 4.398877476751295]",2017_Jan_25_1225,60.0194645794,famFaceGrey,001,3,
184,./greyInner/SigmarGabriel4_5_cut.png,0,33,33,183,,,1.ja,3.141,None,None,None,None,None,polit,0.693,None,Günther Gabriel,"['lshift', 'g', u'\xfc', 'n', 't', 'h', 'e', 'r', 'space', 'lshift', 'g', 'a', 'b', 'r', 'i', 'e', 'l', 'return']","[0.8500808836488432, 1.1334475937164825, 1.54995331106511, 1.8164427169595, 2.06639804891347, 2.849077817350917, 2.9993068032399606, 3.199090536116273, 4.598682060062856, 4.864932487897022, 4.965112411109658, 5.215061969096496, 5.315114865044961, 5.448222436287324, 5.58164276404932, 5.748068367613087, 5.881476826667495, 7.3141942381589615]",2017_Jan_25_1225,60.0194645794,famFaceGrey,001,3,
95,./greyInner/JanHofer9_2_cut.png,0,34,34,94,,,2.nein,2.228,None,None,None,None,None,polit,4.345,None,,['return'],[1.59991865122538],2017_Jan_25_1225,60.0194645794,famFaceGrey,001,3,
18,./greyInner/BastianSchweinsteiger14_1_cut.png,0,35,35,17,,,2.nein,3.495,None,None,None,None,None,sport,1.963,None,,['return'],[1.566577202262124],2017_Jan_25_1225,60.0194645794,famFaceGrey,001,3,
172,./greyInner/SahraWagenknecht2_2_cut.png,0,36,36,171,,,1.ja,3.107,None,None,None,None,None,polit,1.0,None,Wagenknecht,"['lshift', 'w', 'a', 'g', 'e', 'n', 'k', 'n', 'e', 'c', 'h', 't', 'return']","[1.366807583528498, 1.4999882916799834, 1.782967825212836, 1.9497693781540875, 2.0498440868650505, 2.182789345491983, 2.9160426773123618, 3.132611330896907, 3.582509179805129, 3.815769087530498, 3.9156356126713945, 4.082339970507746, 4.681945223663206]",2017_Jan_25_1225,60.0194645794,famFaceGrey,001,3,
40,./greyInner/CarenMiosga9_1_cut.png,0,37,37,39,,,1.ja,9.525,None,act,0.679,None,None,None,None,None,,['return'],[1.0168811534840643],2017_Jan_25_1225,60.0194645794,famFaceGrey,001,3,
15,./greyInner/BarackObama5_2_cut.png,0,38,38,14,,,1.ja,1.91,None,None,None,None,None,polit,1.611,None,Barak Obama,"['lshift', 'b', 'a', 'r', 'a', 'k', 'space', 'lshift', 'o', 'b', 'a', 'm', 'a', 'return']","[0.733160948355362, 0.9000321096700645, 1.2164781947758456, 1.4164431660465198, 1.7497633475668408, 2.549385216912924, 2.6492671392988996, 2.749393492931631, 2.8324744558121893, 3.0491919494234025, 3.199098234737903, 3.299136054218252, 3.415724627988311, 3.8322457425820176]",2017_Jan_25_1225,60.0194645794,famFaceGrey,001,3,
178,./greyInner/Shakira3_1_cut.png,0,39,39,177,,,2.nein,9.826,None,act,0.813,None,None,None,None,None,,['return'],[1.516456285780805],2017_Jan_25_1225,60.0194645794,famFaceGrey,001,3,
19,./greyInner/BastianSchweinsteiger3_1_cut.png,0,40,40,18,,,1.ja,13.091,None,None,None,None,None,sport,1.329,None,Sebastian Schweinsteiger,"['lshift', 's', 'e', 'b', 'a', 's', 't', 'i', 'a', 'n', 'space', 'lshift', 's', 'c', 'h', 'w', 'e', 'i', 'n', 's', 'e', 'i', 'g', 'e', 'r', 'backspace', 'backspace', 'backspace', 'backspace', 'backspace', 'backspace', 's', 't', 'e', 'i', 'g', 'e', 'r', 'return']","[0.9503778900707402, 1.1001103148373659, 1.3333952430839418, 1.5000431443604612, 1.6499975460628775, 2.1830834970078286, 2.4662779504087666, 2.5830506495549344, 2.816348088063023, 2.916095926113485, 3.0161555583563313, 3.116202038787378, 3.249138636463613, 3.4492559762948076, 3.532635581554132, 3.6990586189112946, 4.082371406546372, 4.198912826255764, 4.348998425310128, 4.881971783908739, 5.131919738014403, 5.39840336994348, 5.61509840924009, 5.731624752481366, 5.931588119870867, 7.231083763894276, 7.414307760755037, 7.58075068621838, 7.714249604081488, 7.8807801013699645, 8.447199161106255, 9.14692788091088, 9.2467639323404, 9.380077441721369, 9.530087337658188, 10.363121547447008, 10.496463926661818, 10.729739552407409, 11.462703544348187]",2017_Jan_25_1225,60.0194645794,famFaceGrey,001,3,
16,./greyInner/BastianSchweinsteiger1_1_cut.png,0,41,41,15,,,2.nein,8.953,None,None,None,None,None,sport,1.94,None,,['return'],[1.349936374097524],2017_Jan_25_1225,60.0194645794,famFaceGrey,001,3,
23,./greyInner/BenedictCumberbatch3_9_cut.png,0,42,42,22,,,1.ja,2.019,None,act,2.775,None,None,None,None,None,Comberbatsh,"['lshift', 'c', 'o', 'm', 'b', 'e', 'r', 'backspace', 'backspace', 'backspace', 'b', 'e', 'r', 'b', 'a', 't', 's', 'h', 'return']","[1.7166586312305299, 1.866340373402636, 1.983108581685883, 2.149819675818435, 2.582814558480095, 2.716110745961487, 2.866123849657015, 4.165512996076359, 4.332263224869166, 4.532121377758813, 5.081827691366925, 5.265071255558723, 5.431518351109844, 5.632280771313162, 5.6982358286823, 6.264663549367469, 6.581326158217053, 6.831171143256142, 8.930233483168195]",2017_Jan_25_1225,60.0194645794,famFaceGrey,001,3,
173,./greyInner/SahraWagenknecht5_1_cut.png,0,43,43,172,,,1.ja,2.76,None,None,None,None,None,polit,1.544,None,Wagenknecht,"['lshift', 'w', 'a', 'g', 'e', 'n', 'k', 'n', 'e', 'c', 'h', 't', 'return']","[1.6334092609940853, 1.8000375949377485, 2.0666389516281924, 2.333127715970477, 2.4997002349045943, 2.599744790679324, 2.866235800453069, 3.049549935347386, 4.332120479586592, 4.782203736975134, 4.948676173824424, 5.115169140330181, 5.714975840761326]",2017_Jan_25_1225,60.0194645794,famFaceGrey,001,3,
134,./greyInner/LeonardoDiCaprio4_1_cut.png,0,44,44,133,,,1.ja,3.461,None,act,1.195,None,None,None,None,None,Leonardo di Caprio,"['lshift', 'l', 'e', 'o', 'n', 'a', 'r', 'd', 'o', 'space', 'd', 'i', 'space', 'lshift', 'c', 'a', 'p', 'r', 'i', 'o', 'return']","[1.466922710005747, 1.583477281526939, 1.7334676101327204, 2.316391873977409, 2.5331395205248555, 3.0161459350802033, 3.266155798939508, 3.882546614355306, 4.648612114873686, 4.948729101850404, 5.332000509391946, 5.465072795283049, 5.598663134282106, 7.331085014920973, 7.580999287556551, 7.897532623714142, 8.197411594959704, 8.514061693549593, 8.797261920915844, 8.980401874487143, 9.463532429323095]",2017_Jan_25_1225,60.0194645794,famFaceGrey,001,3,
190,./greyInner/TaylorSwift8_1_cut.png,0,45,45,189,,,1.ja,2.262,None,None,None,music,0.779,None,None,None,Taylor Swift,"['lshift', 't', 'a', 'y', 'l', 'o', 'r', 'space', 'lshift', 's', 'w', 'i', 'f', 't', 'return']","[0.8004273376791389, 0.9503964950745285, 1.166962582450651, 2.0166033615387278, 2.365989925710892, 2.549043269784306, 2.7663355938402674, 2.8993751605885336, 3.0328006207655562, 3.1661417168761545, 3.699287973693572, 3.7992279565187346, 4.598870997077029, 4.682145067059537, 12.69545726767501]",2017_Jan_25_1225,60.0194645794,famFaceGrey,001,3,
60,./greyInner/ElvisPresley6_1_cut.png,0,46,46,59,,,1.ja,2.01,None,None,None,music,1.065,None,None,None,Elvis Presley,"['lshift', 'e', 'l', 'v', 'i', 's', 'space', 'lshift', 'p', 'r', 'e', 's', 'l', 'e', 'y', 'return']","[0.8999836725070054, 1.0666071948126046, 1.7329068938288401, 2.065996116687529, 2.232733193668537, 2.3827437311574613, 2.482412337556525, 2.649174755833883, 2.7825732708333817, 2.9324904625300405, 3.3156637126412534, 4.63169214750269, 4.948203350120821, 5.348091591789853, 5.66464770303719, 5.964623869385832]",2017_Jan_25_1225,60.0194645794,famFaceGrey,001,3,
117,./greyInner/JudithRakers2_1_cut.png,0,47,47,116,,,2.nein,3.365,None,act,3.649,None,None,None,None,None,,['return'],[1.5830067032547959],2017_Jan_25_1225,60.0194645794,famFaceGrey,001,3,
137,./greyInner/LisaEdelstein(DrLisaCuddy)10_1_cut.png,0,48,48,136,,,1.ja,2.71,None,dummy,1.194,None,None,None,None,None,,['return'],[1.5502830687091773],2017_Jan_25_1225,60.0194645794,famFaceGrey,001,3,
68,./greyInner/EmmaWatson(HermioneGranger)3_1_cut.png,0,49,49,67,,,1.ja,4.959,None,act,0.794,None,None,None,None,None,Emma Watson,"['lshift', 'e', 'm', 'm', 'a', 'space', 'lshift', 'w', 't', 'backspace', 'a', 't', 's', 'o', 'n', 'return']","[0.9496102732973668, 1.1664762861582858, 1.366211261094577, 1.499707612749262, 1.949478113619989, 2.1494828611030243, 2.299479284451081, 2.5160075202711596, 2.9158383430512913, 3.8153039624485245, 3.9487894077228702, 4.515305662560422, 4.831758804737547, 4.981777040848101, 5.164902238726427, 5.46476709583294]",2017_Jan_25_1225,60.0194645794,famFaceGrey,001,3,
28,./greyInner/Beyonce3_2_cut.png,0,50,50,27,,,2.nein,3.61,None,None,None,music,1.027,None,None,None,,['return'],[0.7337778004457505],2017_Jan_25_1225,60.0194645794,famFaceGrey,001,3,
188,./greyInner/TaylorSwift3_1_cut.png,0,51,51,187,,,1.ja,2.062,None,None,None,music,0.928,None,None,None,Taylor Swift,"['lshift', 't', 'a', 'y', 'l', 'o', 'r', 'space', 'lshift', 's', 'w', 'i', 'f', 't', 'return']","[1.250137853450724, 1.4165993839178554, 1.649552629864047, 2.1496426075100317, 2.4162378694563813, 2.582854013917313, 2.76594296411713, 2.8826322615241224, 3.0658331625199935, 3.182480117506202, 3.4659096996529115, 3.6323805326228467, 4.298155442234929, 4.348115008431705, 4.815229221658228]",2017_Jan_25_1225,60.0194645794,famFaceGrey,001,3,
2,./greyInner/AlysonHannigan(Lily)12_2_cut.png,0,52,52,1,,,1.ja,3.748,None,act,1.049,None,None,None,None,None,,['return'],[1.233419333357233],2017_Jan_25_1225,60.0194645794,famFaceGrey,001,3,
80,./greyInner/GeorgeClooney4_2_cut.png,0,53,53,79,,,1.ja,18.377,None,act,0.601,None,None,None,None,None,,['return'],[1.0333616578463989],2017_Jan_25_1225,60.0194645794,famFaceGrey,001,3,
186,./greyInner/TaylorSwift1_2_cut.png,0,54,54,185,,,1.ja,1.75,None,None,None,music,1.4,None,None,None,Taylor Swift,"['lshift', 't', 'a', 'y', 'l', 'o', 'r', 'space', 'lshift', 's', 'w', 'i', 'f', 't', 'return']","[0.9667316879458667, 1.1332936212747882, 1.416319667318021, 1.6665393186267465, 2.082974465274674, 2.232882033693386, 2.3995328219534713, 2.4995895672127517, 2.6494525477792195, 2.8826489418734127, 3.2657804911141284, 3.4324976799889555, 4.082194017464644, 4.148744434938635, 5.248341508307931]",2017_Jan_25_1225,60.0194645794,famFaceGrey,001,3,
187,./greyInner/TaylorSwift2_1_cut.png,0,55,55,186,,,1.ja,2.143,None,None,None,music,1.043,None,None,None,Taylor Swift,"['lshift', 't', 'a', 'y', 'l', 'o', 'r', 'space', 'lshift', 's', 'w', 'i', 'f', 't', 'return']","[0.7000530242585228, 0.8167577189105941, 1.1831627286610455, 1.3664585793285369, 1.649668429970916, 1.799431328450737, 1.999670563131076, 2.1161375628271344, 2.2660165821889677, 2.3661268970281526, 2.699238894978407, 2.8491862396112992, 4.1650315114220575, 4.248579203262125, 4.715107358888417]",2017_Jan_25_1225,60.0194645794,famFaceGrey,001,3,
77,./greyInner/GeorgeClooney15_1_cut.png,0,56,56,76,,,1.ja,6.274,None,act,0.709,None,None,None,None,None,,['return'],[1.183141878225797],2017_Jan_25_1225,60.0194645794,famFaceGrey,001,3,
179,./greyInner/Shakira7_1_cut.png,0,57,57,178,,,2.nein,2.879,None,None,None,music,2.711,None,None,None,,['return'],[1.1834575217308156],2017_Jan_25_1225,60.0194645794,famFaceGrey,001,3,
192,./greyInner/TomCruise4_1_cut.png,0,58,58,191,,,1.ja,3.324,None,act,1.107,None,None,None,None,None,Tom Cruise,"['lshift', 't', 'm', 'o', 'm', 'space', 'lshift', 'c', 'r', 'u', 'i', 's', 'e', 'backspace', 'backspace', 'backspace', 'backspace', 'backspace', 'backspace', 'backspace', 'backspace', 'backspace', 'backspace', 'backspace', 'lshift', 't', 'o', 'm', 'space', 'lshift', 'c', 'r', 'u', 'i', 's', 'e', 'return']","[10.112954182613976, 10.279668484505237, 11.262511784505477, 11.479314604510364, 11.679153831621079, 11.712302173482385, 11.812330369684787, 11.979042746919731, 13.045163966215114, 13.611642690271765, 13.711563426541034, 14.34468013989681, 14.544483440104159, 16.71035089357065, 16.893377613241682, 17.04362905344533, 17.19356837867963, 17.326735935019315, 17.47672113121007, 17.643188756419477, 17.79324676874421, 17.943177753806594, 18.09299871272742, 18.409764290647217, 18.992804354598775, 19.44241767526728, 19.592519954669115, 19.792278025470296, 19.92572369453046, 20.275521172654408, 20.425567637046697, 20.675317351635385, 20.908559937462996, 21.041981548327385, 21.175325210646406, 21.824884897581796, 22.974464633012758]",2017_Jan_25_1225,60.0194645794,famFaceGrey,001,3,
45,./greyInner/CobieSmulders(Robin)5_1_cut.png,0,59,59,44,,,1.ja,5.145,None,act,0.881,None,None,None,None,None,,['return'],[1.1500984300910204],2017_Jan_25_1225,60.0194645794,famFaceGrey,001,3,
101,./greyInner/JimParsons(SheldonCooper)1_1_cut.png,0,60,60,100,,,1.ja,1.913,None,act,0.731,None,None,None,None,None,Jim Parsons,"['lshift', 'j', 'i', 'm', 'space', 'lshift', 'p', 'a', 'r', 's', 'o', 'n', 's', 'return']","[2.549279040084002, 2.8992279244412202, 3.049173023642652, 3.2656531430748146, 3.349007727811113, 3.4490830780760007, 3.9322332002429903, 4.398666726970987, 4.648522297615273, 4.965074880325119, 5.131676269093077, 5.281256325299182, 5.381546916203661, 5.981408469317103]",2017_Jan_25_1225,60.0194645794,famFaceGrey,001,3,
128,./greyInner/KatjaBurkard4_1_cut.png,0,61,61,127,,,2.nein,2.533,None,None,None,None,None,polit,2.716,None,,['return'],[1.0999633994670148],2017_Jan_25_1225,60.0194645794,famFaceGrey,001,3,
20,./greyInner/BastianSchweinsteiger6_2_cut.png,0,62,62,19,,,1.ja,7.524,None,None,None,None,None,sport,1.193,None,,['return'],[2.2163235807838646],2017_Jan_25_1225,60.0194645794,famFaceGrey,001,3,
198,./greyInner/UrsulavonderLeyen5_1_cut.png,0,63,63,197,,,2.nein,3.107,None,dummy,1.859,None,None,None,None,None,,['return'],[1.5664973290586204],2017_Jan_25_1225,60.0194645794,famFaceGrey,001,3,
35,./greyInner/BritneySpears8_5_cut.png,0,64,64,34,,,1.ja,2.72,None,None,None,music,0.787,None,None,None,Britney Spears,"['lshift', 'b', 'r', 'i', 't', 'n', 'e', 'y', 'space', 'lshift', 's', 'p', 'e', 'a', 'r', 's', 'return']","[0.9499172558516875, 1.1831268017594994, 1.416230812388676, 1.5332816242553235, 1.766410655407526, 2.6157284131440974, 2.749378095688371, 3.032249527737804, 3.2824797646535444, 3.5825810336118593, 3.832135074890175, 4.132100976410584, 4.265482490287468, 4.48204408680067, 4.665020123877184, 4.948466065598041, 5.1483168406393816]",2017_Jan_25_1225,60.0194645794,famFaceGrey,001,3,
224,./greyInner/notfamousface9_1_cut.png,0,65,65,223,,,2.nein,3.109,None,None,None,music,1.627,None,None,None,,['return'],[1.1999133263470867],2017_Jan_25_1225,60.0194645794,famFaceGrey,001,3,
138,./greyInner/LisaEdelstein(DrLisaCuddy)2_2_cut.png,0,66,66,137,,,1.ja,2.492,None,act,0.792,None,None,None,None,None,,['return'],[1.016523488335224],2017_Jan_25_1225,60.0194645794,famFaceGrey,001,3,
168,./greyInner/RobertSeanLeonard(Wilson)11_2_cut.png,0,67,67,167,,,1.ja,1.811,None,act,1.544,None,None,None,None,None,,['return'],[1.1500916937966394],2017_Jan_25_1225,60.0194645794,famFaceGrey,001,3,
129,./greyInner/KatjaBurkard5_3_cut.png,0,68,68,128,,,2.nein,3.834,None,act,1.685,None,None,None,None,None,,['return'],[1.016631589820463],2017_Jan_25_1225,60.0194645794,famFaceGrey,001,3,
170,./greyInner/RobertSeanLeonard(Wilson)8_1_cut.png,0,69,69,169,,,1.ja,2.679,None,act,0.796,None,None,None,None,None,,['return'],[0.9172808723560593],2017_Jan_25_1225,60.0194645794,famFaceGrey,001,3,
87,./greyInner/Ice-T(OdafinFinTutuola)12_1_cut.png,0,70,70,86,,,1.ja,2.646,None,act,0.614,None,None,None,None,None,,['return'],[0.9836378619511379],2017_Jan_25_1225,60.0194645794,famFaceGrey,001,3,
207,./greyInner/WillSmith14_1_cut.png,0,71,71,206,,,2.nein,2.175,None,None,None,music,1.727,None,None,None,,['return'],[1.0166813100877334],2017_Jan_25_1225,60.0194645794,famFaceGrey,001,3,
4,./greyInner/AlysonHannigan(Lily)5_4_cut.png,0,72,72,3,,,1.ja,1.934,None,act,0.536,None,None,None,None,None,,['return'],[1.3164832951115386],2017_Jan_25_1225,60.0194645794,famFaceGrey,001,3,
97,./greyInner/JasonSegel(Marshall)14_1_cut.png,0,73,73,96,,,1.ja,2.239,None,act,0.656,None,None,None,None,None,,['return'],[0.866736531661445],2017_Jan_25_1225,60.0194645794,famFaceGrey,001,3,
105,./greyInner/JimParsons(SheldonCooper)9_3_cut.png,0,74,74,104,,,1.ja,3.977,None,act,0.767,None,None,None,None,None,Jim Parsons,"['lshift', 'j', 'i', 'm', 'space', 'lshift', 'p', 'a', 'r', 's', 'i', 'backspace', 'o', 'n', 's', 'return']","[0.8169389573049557, 0.9336401234231744, 1.0337257385144767, 1.2501487598328822, 1.349945997375471, 1.4500787665274402, 1.5825762219719763, 2.6161441387357627, 2.8327102261118853, 3.1493814959139854, 3.2825233901785396, 3.6657043389113824, 3.9157312038951204, 4.065528746174095, 4.1655967185906775, 4.598716383085048]",2017_Jan_25_1225,60.0194645794,famFaceGrey,001,3,
183,./greyInner/SigmarGabriel3_3_cut.png,0,75,75,182,,,1.ja,2.94,None,None,None,None,None,polit,1.066,None,,['return'],[1.166436830721068],2017_Jan_25_1225,60.0194645794,famFaceGrey,001,3,
218,./greyInner/notfamousface3_3_cut.png,0,76,76,217,,,2.nein,3.647,None,dummy,3.994,None,None,None,None,None,,['return'],[1.5656848036578594],2017_Jan_25_1225,60.0194645794,famFaceGrey,001,3,
25,./greyInner/BenedictCumberbatch6_5_cut.png,0,77,77,24,,,1.ja,2.174,None,act,0.909,None,None,None,None,None,Comberbatsh,"['lshift', 'c', 'o', 'm', 'b', 'e', 'r', 'b', 'a', 't', 's', 'h', 'return']","[2.399555917818361, 2.5829037341845833, 2.8492956242007494, 3.099310299698118, 3.399154947921488, 3.5819981837667, 3.7325023953944765, 3.8824083599338337, 4.148877556945081, 4.298843506581761, 4.598741724383217, 4.732086028252525, 6.414718995483781]",2017_Jan_25_1225,60.0194645794,famFaceGrey,001,3,
182,./greyInner/SigmarGabriel11_3_cut.png,0,78,78,181,,,2.nein,2.891,None,None,None,None,None,polit,1.421,None,,['return'],[1.3999668317701435],2017_Jan_25_1225,60.0194645794,famFaceGrey,001,3,
136,./greyInner/LisaEdelstein(DrLisaCuddy)1_1_cut.png,0,79,79,135,,,1.ja,3.129,None,act,0.696,None,None,None,None,None,,['return'],[1.0331836272107466],2017_Jan_25_1225,60.0194645794,famFaceGrey,001,3,
65,./greyInner/EmilyDeschanel8_3_cut.png,0,80,80,64,,,1.ja,3.766,None,act,16.851,None,None,None,None,None,,['return'],[1.8997106921997329],2017_Jan_25_1225,60.0194645794,famFaceGrey,001,3,
222,./greyInner/notfamousface7_cut.png,0,81,81,221,,,2.nein,2.233,None,None,None,None,None,sport,3.014,None,,['return'],[1.2500839630956762],2017_Jan_25_1225,60.0194645794,famFaceGrey,001,3,
176,./greyInner/Shakira1_1_cut.png,0,82,82,175,,,2.nein,3.743,None,dummy,1.293,None,None,None,None,None,,['return'],[1.5331260479342745],2017_Jan_25_1225,60.0194645794,famFaceGrey,001,3,
156,./greyInner/NicoleKidman14_1_cut.png,0,83,83,155,,,1.ja,2.778,None,act,4.911,None,None,None,None,None,Nicole Kitman ,"['lshift', 'n', 'i', 'c', 'o', 'l', 'e', 'space', 'lshift', 'k', 'i', 't', 'm', 'a', 'n', 'space', 'backspace', 'backspace', 'backspace', 'backspace', 'backspace', 'backspace', 'i', 't', 'm', 'a', 'n', 'space', 'return']","[1.0838245214581548, 1.2503245450352551, 1.5169733765596902, 2.149959854892586, 2.9329318501931994, 3.1329074070690694, 3.299244476478634, 3.449299922596765, 3.6325235986823827, 3.9491878114131396, 4.149096326120343, 4.765546805856502, 5.231982578017778, 5.415356056457313, 5.515411197837238, 5.648311227059821, 8.014189843528584, 8.214220894637037, 8.41408963313188, 8.547268095851905, 8.747234350224971, 8.897326364796754, 9.830236723004418, 10.17997068749537, 12.529108971108144, 12.71229607873829, 12.845615362086392, 12.928957436562996, 16.19413903903842]",2017_Jan_25_1225,60.0194645794,famFaceGrey,001,3,
108,./greyInner/JoachimLoew15_1_cut.png,0,84,84,107,,,1.ja,3.144,None,None,None,None,None,sport,1.612,None,Jogi Löw,"['lshift', 'j', 'o', 'g', 'i', 'space', 'lshift', 'l', u'\xf6', 'w', 'return']","[1.000213636762055, 1.2001449265590054, 1.433392965576786, 1.899998748973303, 2.1830687413166743, 2.4328765163481876, 2.6829187785751856, 2.8494021218048147, 3.0827954723117728, 3.4991924466248747, 5.048640856393831]",2017_Jan_25_1225,60.0194645794,famFaceGrey,001,3,
41,./greyInner/CobieSmulders(Robin)12_1_cut.png,0,85,85,40,,,2.nein,2.507,None,act,0.893,None,None,None,None,None,,['return'],[1.0331367939288612],2017_Jan_25_1225,60.0194645794,famFaceGrey,001,3,
13,./greyInner/BarackObama2_1_cut.png,0,86,86,12,,,1.ja,1.718,None,None,None,None,None,polit,1.745,None,Barak Obama,"['lshift', 'b', 'a', 'r', 'a', 'k', 'space', 'lshift', 'o', 'b', 'a', 'm', 'a', 'return']","[0.5506012784207996, 0.7173216750543361, 0.9338261734555999, 1.167042776431117, 1.4336271319971274, 1.5665951657156256, 1.6501714066125714, 1.8333832139887818, 2.0332763314527256, 2.2666385666962015, 2.4498962450288673, 2.6497813430960377, 2.7497107403160044, 2.9329937599468394]",2017_Jan_25_1225,60.0194645794,famFaceGrey,001,3,
180,./greyInner/Shakira9_1_cut.png,0,87,87,179,,,2.nein,2.694,None,dummy,0.911,None,None,None,None,None,,['return'],[1.116523777032853],2017_Jan_25_1225,60.0194645794,famFaceGrey,001,3,
196,./greyInner/UrsulavonderLeyen1_1_cut.png,0,88,88,195,,,2.nein,1.876,None,None,None,None,None,polit,0.931,None,,['return'],[1.0337170775637787],2017_Jan_25_1225,60.0194645794,famFaceGrey,001,3,
220,./greyInner/notfamousface5_1_cut.png,0,89,89,219,,,2.nein,2.939,None,dummy,4.255,None,None,None,None,None,,['return'],[1.0336240525484754],2017_Jan_25_1225,60.0194645794,famFaceGrey,001,3,
26,./greyInner/Beyonce1_1_cut.png,0,90,90,25,,,2.nein,2.569,None,None,None,music,1.091,None,None,None,,['return'],[0.7335494079907221],2017_Jan_25_1225,60.0194645794,famFaceGrey,001,3,
94,./greyInner/JanHofer7_1_cut.png,0,91,91,93,,,2.nein,2.758,None,None,None,None,None,polit,0.693,None,,['return'],[1.0334457011376799],2017_Jan_25_1225,60.0194645794,famFaceGrey,001,3,
59,./greyInner/ElvisPresley5_2_cut.png,0,92,92,58,,,1.ja,2.032,None,None,None,music,0.517,None,None,None,Elvis Presley,"['lshift', 'e', 'l', 'i', 's', 'backspace', 'backspace', 'v', 'i', 's', 'space', 'lshift', 'p', 'r', 'e', 's', 'l', 'e', 'y', 'return']","[0.7834845952183969, 1.0000083401737356, 1.199945403939637, 1.383198591409382, 2.4825188351605902, 3.0324028586273926, 3.1991489173324226, 4.6486371353948925, 4.815274451064397, 4.948049056902164, 5.0650312227244285, 5.24820999018084, 5.514867803432935, 5.7646390100089775, 5.947946408608914, 6.497737727835556, 6.930840070430349, 7.097411627037218, 7.564036336212666, 7.663834536082504]",2017_Jan_25_1225,60.0194645794,famFaceGrey,001,3,
75,./greyInner/GuentherJauch9_1_cut.png,0,93,93,74,,,1.ja,3.82,None,None,None,host,1.288,None,None,None,Günther Jauch ,"['lshift', 'g', u'\xfc', 'n', 't', 'backspace', 't', 'h', 'e', 'r', 'space', 'lshift', 'j', 'a', 'u', 'c', 'h', 'space', 'return']","[0.8168010236604459, 1.1006335003621643, 1.4497117988757964, 1.6829726689302333, 1.916233218207708, 2.5493322888869443, 3.032459315189044, 3.2324688743101433, 3.315531873739019, 3.4490182813406136, 3.5655648334650323, 3.9653902030549943, 4.1651909370539215, 4.3318500654859236, 4.448675371882928, 4.581769470536528, 4.68180215760367, 4.814811250638741, 4.998346079364637]",2017_Jan_25_1225,60.0194645794,famFaceGrey,001,3,
86,./greyInner/Ice-T(OdafinFinTutuola)10_1_cut.png,0,94,94,85,,,1.ja,1.697,None,act,0.664,None,None,None,None,None,,['return'],[1.233313156528311],2017_Jan_25_1225,60.0194645794,famFaceGrey,001,3,
171,./greyInner/SahraWagenknecht12_1_cut.png,0,95,95,170,,,2.nein,2.196,None,None,None,host,7.21,None,None,None,,['return'],[0.750436014666775],2017_Jan_25_1225,60.0194645794,famFaceGrey,001,3,
73,./greyInner/GuentherJauch4_1_cut.png,0,96,96,72,,,1.ja,1.928,None,None,None,host,1.727,None,None,None,Günther Jauch,"['lshift', 'g', u'\xfc', 'n', 't', 'h', 'e', 'r', 'space', 'lshift', 'j', 'a', 'u', 'c', 'h', 'return']","[0.7336895870685112, 1.2167691385329817, 1.499998556508217, 1.7331073787754576, 1.9830899766820949, 2.5829127159104246, 2.6995898238328664, 2.849194900560178, 2.982655325313317, 3.215915233038686, 3.349021200401694, 3.532445361435748, 3.599171564112112, 3.7322079230998497, 3.88238366018777, 4.248752101482751]",2017_Jan_25_1225,60.0194645794,famFaceGrey,001,3,
200,./greyInner/UrsulavonderLeyen8_2_cut.png,0,97,97,199,,,2.nein,2.008,None,act,1.459,None,None,None,None,None,,['return'],[0.5829913060097169],2017_Jan_25_1225,60.0194645794,famFaceGrey,001,3,
100,./greyInner/JasonSegel(Marshall)9_1_cut.png,0,98,98,99,,,1.ja,6.227,None,act,0.846,None,None,None,None,None,,['return'],[0.750351009048245],2017_Jan_25_1225,60.0194645794,famFaceGrey,001,3,
78,./greyInner/GeorgeClooney16_1_cut.png,0,99,99,77,,,2.nein,6.89,None,act,1.159,None,None,None,None,None,,['return'],[0.999920768348602],2017_Jan_25_1225,60.0194645794,famFaceGrey,001,3,
204,./greyInner/Usher4_1_cut.png,0,100,100,203,,,2.nein,1.811,None,None,None,music,1.843,None,None,None,,['return'],[1.7001543894493807],2017_Jan_25_1225,60.0194645794,famFaceGrey,001,3,
165,./greyInner/OmarEpps(DrEricForeman)9_1_cut.png,0,101,101,164,,,2.nein,1.879,None,None,None,music,2.445,None,None,None,,['return'],[0.7003362693958479],2017_Jan_25_1225,60.0194645794,famFaceGrey,001,3,
212,./greyInner/notfamousface11_1_cut.png,0,102,102,211,,,2.nein,3.383,None,act,1.884,None,None,None,None,None,,['return'],[1.3161323662588984],2017_Jan_25_1225,60.0194645794,famFaceGrey,001,3,
152,./greyInner/NeilPatrickHarris(Barney)11_2_cut.png,0,103,103,151,,,2.nein,3.029,None,dummy,1.564,None,None,None,None,None,,['return'],[1.7331195682618272],2017_Jan_25_1225,60.0194645794,famFaceGrey,001,3,
126,./greyInner/KatjaBurkard1_1_cut.png,0,104,104,125,,,2.nein,3.094,None,None,None,None,None,polit,1.877,None,,['return'],[0.9167214391545713],2017_Jan_25_1225,60.0194645794,famFaceGrey,001,3,
197,./greyInner/UrsulavonderLeyen4_1_cut.png,0,105,105,196,,,2.nein,2.228,None,None,None,None,None,polit,1.495,None,,['return'],[1.2498020010643813],2017_Jan_25_1225,60.0194645794,famFaceGrey,001,3,
161,./greyInner/OmarEpps(DrEricForeman)1_5_cut.png,0,106,106,160,,,1.ja,2.499,None,act,0.834,None,None,None,None,None,,['return'],[0.9164705923849397],2017_Jan_25_1225,60.0194645794,famFaceGrey,001,3,
56,./greyInner/ElvisPresley1_1_cut.png,0,107,107,55,,,1.ja,1.592,None,None,None,music,1.341,None,None,None,Elvis Presley,"['lshift', 'e', 'l', 'v', 'i', 's', 'space', 'lshift', 'p', 'r', 'e', 's', 'l', 'e', 'y', 'return']","[0.8000472182138765, 1.0333991886291187, 1.1832021840982634, 2.1160891256640753, 2.2994622833266476, 2.499450671239174, 2.649253987485281, 2.8324561715835443, 3.0325013368328655, 3.282247522887701, 3.4820155377437914, 3.8987672902221675, 4.331877652215553, 4.565092972088678, 4.864877314437763, 4.9483287735038175]",2017_Jan_25_1225,60.0194645794,famFaceGrey,001,3,
63,./greyInner/EmilyDeschanel5_1_cut.png,0,108,108,62,,,2.nein,4.176,None,dummy,0.876,None,None,None,None,None,,['return'],[1.349808705281248],2017_Jan_25_1225,60.0194645794,famFaceGrey,001,3,
195,./greyInner/TomCruise7_1_cut.png,0,109,109,194,,,1.ja,3.596,None,act,1.263,None,None,None,None,None,Tom Cruise,"['lshift', 't', 'o', 'm', 'space', 'lshift', 'c', 'r', 'u', 'i', 's', 'e', 'return']","[0.633258175535957, 0.8998717217109515, 1.0500471380219096, 1.2330388931186462, 1.3664627494163142, 1.5163622984364338, 1.8495224127746042, 2.3660524770166376, 2.5824267403932026, 2.7492298972138087, 3.3152717244684027, 3.548827708367753, 3.5989162264813785]",2017_Jan_25_1225,60.0194645794,famFaceGrey,001,3,
216,./greyInner/notfamousface14_6_cut.png,0,110,110,215,,,2.nein,2.088,None,None,None,music,2.025,None,None,None,,['return'],[1.083392757071124],2017_Jan_25_1225,60.0194645794,famFaceGrey,001,3,
88,./greyInner/Ice-T(OdafinFinTutuola)5_1_cut.png,0,111,111,87,,,1.ja,1.796,None,dummy,0.596,None,None,None,None,None,,['return'],[0.8502986904968566],2017_Jan_25_1225,60.0194645794,famFaceGrey,001,3,
133,./greyInner/LeonardoDiCaprio3_1_cut.png,0,112,112,132,,,1.ja,2.497,None,act,1.278,None,None,None,None,None,Leonardo di Daprio,"['lshift', 'l', 'e', 'o', 'n', 'a', 'r', 'd', 'o', 'space', 'd', 'i', 'space', 'lshift', 'd', 'a', 'p', 'r', 'i', 'o', 'return']","[0.7168360203140764, 0.8166881105371431, 1.000136329766974, 1.633117996459987, 2.2827658967726165, 2.7992035775496333, 3.082450638199589, 3.548941583818305, 3.7322964572558703, 3.832265630690017, 4.198775213388217, 4.298663551291611, 4.3486458925781335, 4.648543468827484, 4.7982887246307655, 5.431555240340458, 5.964448404958603, 6.3645547742526105, 6.564376358686786, 6.747585599856393, 7.580633923786081]",2017_Jan_25_1225,60.0194645794,famFaceGrey,001,3,
127,./greyInner/KatjaBurkard10_1_cut.png,0,113,113,126,,,1.ja,5.644,None,dummy,1.114,None,None,None,None,None,,['return'],[2.6160915314849262],2017_Jan_25_1225,60.0194645794,famFaceGrey,001,3,
96,./greyInner/JasonSegel(Marshall)11_1_cut.png,0,114,114,95,,,1.ja,2.03,None,act,0.63,None,None,None,None,None,,['return'],[0.7501168426279037],2017_Jan_25_1225,60.0194645794,famFaceGrey,001,3,
109,./greyInner/JoachimLoew4_1_cut.png,0,115,115,108,,,1.ja,1.843,None,None,None,None,None,sport,0.977,None,Jogi Löw,"['lshift', 'j', 'o', 'g', 'i', 'space', 'lshift', 'l', u'\xf6', 'w', 'return']","[1.0497946873729234, 1.333262121079315, 1.6495304963264061, 2.2161060947109945, 2.8656994631182897, 3.5488562574246316, 3.765510878954956, 4.048721691926403, 4.315330105686371, 4.664824771343774, 4.76501239317804]",2017_Jan_25_1225,60.0194645794,famFaceGrey,001,3,
177,./greyInner/Shakira2_1_cut.png,0,116,116,176,,,2.nein,2.379,None,act,1.979,None,None,None,None,None,,['return'],[0.9169700404927426],2017_Jan_25_1225,60.0194645794,famFaceGrey,001,3,
11,./greyInner/BarackObama1_3_cut.png,0,117,117,10,,,1.ja,1.573,None,None,None,None,None,polit,0.597,None,Barak Obama,"['lshift', 'b', 'a', 'r', 'a', 'k', 'space', 'lshift', 'o', 'b', 'a', 'm', 'a', 'return']","[1.0003374562656973, 1.400135559902992, 1.6333098204577254, 1.949704260641738, 2.299426035648139, 2.6162811100512045, 2.7162358485693403, 2.849439973362678, 2.9494004858461267, 3.1490180567961943, 3.3491665118926903, 3.4492229363750084, 3.5489759068404965, 3.73241225736092]",2017_Jan_25_1225,60.0194645794,famFaceGrey,001,3,
107,./greyInner/JoachimLoew12_1_cut.png,0,118,118,106,,,2.nein,2.497,None,None,None,music,1.413,None,None,None,,['return'],[1.7994069494834548],2017_Jan_25_1225,60.0194645794,famFaceGrey,001,3,
42,./greyInner/CobieSmulders(Robin)2_1_cut.png,0,119,119,41,,,1.ja,1.944,None,act,0.412,None,None,None,None,None,,['return'],[0.9500638504468952],2017_Jan_25_1225,60.0194645794,famFaceGrey,001,3,
69,./greyInner/EmmaWatson(HermioneGranger)4_1_cut.png,0,120,120,68,,,1.ja,1.827,None,act,0.694,None,None,None,None,None,Emma Watson,"['lshift', 'e', 'm', 'm', 'a', 'space', 'lshift', 'w', 'a', 't', 's', 'o', 'n', 'return']","[0.6333281046845514, 0.8000433689030615, 0.9834165265674528, 1.1332429386784497, 1.2662741652511613, 1.433193763730742, 1.5996764654082654, 1.8663243346054514, 2.082655614010946, 2.3327716546991724, 2.73269806870303, 2.7989504853485414, 2.932654058247863, 3.2985868858449976]",2017_Jan_25_1225,60.0194645794,famFaceGrey,001,3,
64,./greyInner/EmilyDeschanel6_12_cut.png,0,121,121,63,,,1.ja,5.545,None,act,0.408,None,None,None,None,None,,['return'],[1.1167146387051616],2017_Jan_25_1225,60.0194645794,famFaceGrey,001,3,
208,./greyInner/WillSmith4_1_cut.png,0,122,122,207,,,1.ja,1.691,None,act,0.642,None,None,None,None,None,Will Smith,"['lshift', 'w', 'i', 'l', 'l', 'space', 'lshift', 's', 'm', 'i', 't', 'h', 'return']","[0.4669814119970397, 0.6669322691268462, 0.8670053418809403, 1.0667528270787443, 1.2000220693826122, 1.4499963271155139, 1.5831356551734643, 1.7998021454131958, 1.982967440280845, 2.1496134169010475, 2.366145502031941, 2.6827785994992155, 3.032637025045915]",2017_Jan_25_1225,60.0194645794,famFaceGrey,001,3,
213,./greyInner/notfamousface12_2_cut.png,0,123,123,212,,,2.nein,2.135,None,None,None,music,3.165,None,None,None,,['return'],[0.9666466823273367],2017_Jan_25_1225,60.0194645794,famFaceGrey,001,3,
210,./greyInner/WillSmith6_1_cut.png,0,124,124,209,,,1.ja,1.411,None,act,1.095,None,None,None,None,None,Will Smith,"['lshift', 'w', 'i', 'l', 'l', 'space', 'lshift', 's', 'm', 'i', 't', 'h', 'return']","[0.9001809496967326, 1.083477762691473, 1.3499979630742018, 1.583271664163476, 1.7664401667916536, 1.933104427638682, 2.0496172982911958, 2.1831136499458808, 2.3993031463960506, 2.4995042408190784, 2.7327141075002146, 2.916011882824023, 3.282444479302285]",2017_Jan_25_1225,60.0194645794,famFaceGrey,001,3,
157,./greyInner/NicoleKidman3_1_cut.png,0,125,125,156,,,2.nein,4.712,None,dummy,1.14,None,None,None,None,None,,['return'],[1.116883046062867],2017_Jan_25_1225,60.0194645794,famFaceGrey,001,3,
149,./greyInner/MilaKunis5_2_cut.png,0,126,126,148,,,2.nein,6.107,None,dummy,1.927,None,None,None,None,None,,['return'],[0.8006650326351519],2017_Jan_25_1225,60.0194645794,famFaceGrey,001,3,
32,./greyInner/BritneySpears14_2_cut.png,0,127,127,31,,,1.ja,1.977,None,None,None,music,1.478,None,None,None,Britney Spears,"['lshift', 'b', 'r', 'i', 't', 'n', 'e', 'y', 'space', 'lshift', 's', 'p', 'e', 'a', 'r', 's', 'return']","[0.68367773439968, 0.8336353438608057, 1.0502351127106522, 1.2335181323414872, 1.4499379458993644, 1.7499872491571296, 1.883132351182212, 2.1997247101080575, 2.3163950817361183, 2.4496617578333826, 2.533051307145797, 2.7494999905375153, 2.915803378476994, 3.1660964874718047, 3.3658661062072497, 3.5991048427222267, 3.7323323841574165]",2017_Jan_25_1225,60.0194645794,famFaceGrey,001,3,
99,./greyInner/JasonSegel(Marshall)7_1_cut.png,0,128,128,98,,,1.ja,1.994,None,dummy,0.444,None,None,None,None,None,,['return'],[0.9832869330966787],2017_Jan_25_1225,60.0194645794,famFaceGrey,001,3,
24,./greyInner/BenedictCumberbatch4_1_cut.png,0,129,129,23,,,1.ja,1.7,None,act,1.051,None,None,None,None,None,Comberbatsh,"['lshift', 'c', 'o', 'm', 'b', 'e', 'r', 'b', 'a', 't', 's', 'h', 'return']","[0.7003314577577839, 0.900151438310786, 1.1999489324734895, 1.3999940977228107, 1.7997261215205071, 1.9663185285626241, 2.1497584076169005, 2.549451617529485, 2.816100769830882, 2.9326710593722964, 3.08258985494831, 3.1825202144973446, 5.181468390261216]",2017_Jan_25_1225,60.0194645794,famFaceGrey,001,3,
217,./greyInner/notfamousface2_cut.png,0,130,130,216,,,2.nein,2.689,None,dummy,1.008,None,None,None,None,None,,['return'],[0.8501726255599351],2017_Jan_25_1225,60.0194645794,famFaceGrey,001,3,
93,./greyInner/JanHofer5_1_cut.png,0,131,131,92,,,2.nein,2.628,None,None,None,None,None,polit,1.063,None,,['return'],[1.3167511430056038],2017_Jan_25_1225,60.0194645794,famFaceGrey,001,3,
112,./greyInner/JoshRadnor(Ted)3_1_cut.png,0,132,132,111,,,2.nein,2.998,None,act,1.316,None,None,None,None,None,,['return'],[0.7833967026163009],2017_Jan_25_1225,60.0194645794,famFaceGrey,001,3,
153,./greyInner/NeilPatrickHarris(Barney)13_4_cut.png,0,133,133,152,,,1.ja,5.937,None,act,0.523,None,None,None,None,None,,['return'],[0.7500854065892781],2017_Jan_25_1225,60.0194645794,famFaceGrey,001,3,
58,./greyInner/ElvisPresley4_10_cut.png,0,134,134,57,,,1.ja,1.731,None,None,None,music,0.531,None,None,None,Elvis Presley,"['lshift', 'e', 'l', 'v', 'i', 's', 'space', 'lshift', 'p', 'r', 'e', 's', 'l', 'e', 'y', 'return']","[0.6003039031056687, 0.7999310973336833, 0.9663380958936614, 1.7329152340007568, 1.8662152707947826, 2.0161645400821726, 2.1328204767942225, 2.282601017950583, 2.4326503693264385, 2.5994323549348337, 2.7825152103923756, 3.015719623883342, 3.415215235829237, 3.865121745688157, 4.131412912065571, 4.265007741927548]",2017_Jan_25_1225,60.0194645794,famFaceGrey,001,3,
214,./greyInner/notfamousface1_2_cut.png,0,135,135,213,,,2.nein,2.508,None,dummy,0.956,None,None,None,None,None,,['return'],[1.066657877405305],2017_Jan_25_1225,60.0194645794,famFaceGrey,001,3,
21,./greyInner/BenedictCumberbatch16_1_cut.png,0,136,136,20,,,1.ja,1.227,None,dummy,0.629,None,None,None,None,None,Comberbatch,"['lshift', 'c', 'o', 'm', 'b', 'e', 'r', 'b', 'a', 't', 's', 'h', 'backspace', 'backspace', 'c', 'h', 'return']","[0.8489084476659627, 1.0322469615293812, 1.2153410441442247, 1.398546115227873, 1.6149470030068187, 1.7649581820478488, 1.931644576432518, 2.24837454822773, 2.5648164632457338, 2.8311826911885873, 3.19786709676373, 3.331075391643026, 4.197416085820805, 4.380676651137037, 4.563939141109586, 5.113699986623033, 6.0132493285364035]",2017_Jan_25_1225,60.0194645794,famFaceGrey,001,3,
10,./greyInner/AngelaMerkel6_1_cut.png,0,137,137,9,,,1.ja,10.155,None,None,None,None,None,polit,0.692,None,Anglea Merkel,"['lshift', 'a', 'n', 'g', 'l', 'e', 'a', 'space', 'm', 'lshift', 'e', 'r', 'k', 'backspace', 'backspace', 'backspace', 'backspace', 'lshift', 'm', 'e', 'r', 'k', 'e', 'l', 'return']","[0.750191583416381, 0.883523697801138, 1.066810566742788, 1.2833301416121685, 1.5333015123615041, 1.6997813270554616, 2.0163913286560273, 2.1329635428537586, 2.2996720707778877, 2.3495007603978593, 2.599344783107881, 2.766087954831164, 2.882807725951352, 3.7490656599420618, 3.932243465071224, 4.115498256422143, 4.2988874528819, 4.448705524819161, 4.798624897792251, 4.998403177476575, 5.165051078753095, 5.398226301635077, 5.581791604074169, 5.714883778071453, 6.247999561177494]",2017_Jan_25_1225,60.0194645794,famFaceGrey,001,3,
203,./greyInner/Usher2_1_cut.png,0,138,138,202,,,2.nein,2.145,None,None,None,music,1.063,None,None,None,,['return'],[1.0834800081229332],2017_Jan_25_1225,60.0194645794,famFaceGrey,001,3,
1,./greyInner/AlysonHannigan(Lily)1_1_cut.png,0,139,139,0,,,1.ja,1.649,None,act,0.513,None,None,None,None,None,,['return'],[0.6168520911851374],2017_Jan_25_1225,60.0194645794,famFaceGrey,001,3,
125,./greyInner/KaleyCuoco(Penny)7_1_cut.png,0,140,140,124,,,1.ja,1.559,None,None,None,music,2.193,None,None,None,Katy Perry,"['lshift', 'k', 'a', 't', 'y', 'space', 'lshift', 'p', 'e', 'r', 'r', 'y', 'return']","[1.2331261441686365, 1.2997179417361622, 1.5164489079361374, 1.6830348994590167, 1.8830175134044111, 2.016233506905337, 2.1328304208491318, 2.3162350145521486, 2.5826721339726646, 2.7659926843844005, 2.8991005764037254, 4.03240927414663, 4.1653628729472985]",2017_Jan_25_1225,60.0194645794,famFaceGrey,001,3,
57,./greyInner/ElvisPresley2_1_cut.png,0,141,141,56,,,1.ja,2.213,None,None,None,music,0.566,None,None,None,Elvis Presley,"['lshift', 'e', 'l', 'v', 'i', 's', 'space', 'lshift', 'p', 'r', 'e', 's', 'l', 'e', 'y', 'return']","[0.7669386525685695, 1.0167993556260626, 1.3500316445442877, 2.0164301425429585, 2.1829686592300277, 2.316247845588805, 2.416228887732359, 2.549451617529485, 2.6827407479413523, 2.849331871879258, 2.9991752851146884, 3.2160008802093216, 3.415749648509518, 3.549111595055365, 3.748729486780576, 3.882315014141568]",2017_Jan_25_1225,60.0194645794,famFaceGrey,001,3,
82,./greyInner/HughLaurie(DrHouse)4_1_cut.png,0,142,142,81,,,1.ja,1.942,None,act,0.625,None,None,None,None,None,,['return'],[0.5336662345816876],2017_Jan_25_1225,60.0194645794,famFaceGrey,001,3,
27,./greyInner/Beyonce11_2_cut.png,0,143,143,26,,,2.nein,2.925,None,None,None,music,3.177,None,None,None,,['return'],[0.8166637315680418],2017_Jan_25_1225,60.0194645794,famFaceGrey,001,3,
44,./greyInner/CobieSmulders(Robin)4_7_cut.png,0,144,144,43,,,1.ja,1.301,None,dummy,0.589,None,None,None,None,None,,['return'],[0.9834373770027014],2017_Jan_25_1225,60.0194645794,famFaceGrey,001,3,
189,./greyInner/TaylorSwift7_1_cut.png,0,145,145,188,,,1.ja,1.513,None,dummy,0.564,None,None,None,None,None,Taylor Swift,"['lshift', 't', 'a', 'y', 'l', 'o', 'r', 'space', 'lshift', 's', 'w', 'i', 'f', 't', 'return']","[3.398995522287805, 3.948850996697729, 4.448653238345287, 5.098088143447967, 5.398252284485352, 5.581471469708049, 5.848041390358048, 5.947969504473804, 6.11456511927463, 6.497924098643125, 6.7477658759216865, 7.0142726037156535, 7.580693908881585, 7.664016736804115, 8.213826981809689]",2017_Jan_25_1225,60.0194645794,famFaceGrey,001,3,
84,./greyInner/HughLaurie(DrHouse)8_1_cut.png,0,146,146,83,,,1.ja,5.457,None,act,0.942,None,None,None,None,None,,['return'],[1.1332936212747882],2017_Jan_25_1225,60.0194645794,famFaceGrey,001,3,
61,./greyInner/EmilyDeschanel15_1_cut.png,0,147,147,60,,,2.nein,4.327,None,None,None,music,2.077,None,None,None,,['return'],[1.5664732708664815],2017_Jan_25_1225,60.0194645794,famFaceGrey,001,3,
70,./greyInner/EmmaWatson(HermioneGranger)9_1_cut.png,0,148,148,69,,,1.ja,2.745,None,dummy,1.063,None,None,None,None,None,Emma Watson,"['lshift', 'e', 'm', 'm', 'a', 'space', 'lshift', 'w', 'a', 't', 's', 'o', 'n', 'return']","[1.0336054475446872, 1.183435708968318, 1.4001875256017229, 1.5333214004695037, 1.6666477408889477, 1.983192624977164, 2.216441947097337, 2.449727837672981, 3.0161507467182673, 3.1326203126227483, 3.4656200389999867, 3.6991862877275707, 3.8823316944890394, 4.1657426716337795]",2017_Jan_25_1225,60.0194645794,famFaceGrey,001,3,
111,./greyInner/JoshRadnor(Ted)1_2_cut.png,0,149,149,110,,,1.ja,7.251,None,act,1.012,None,None,None,None,None,,['return'],[2.8496135131335905],2017_Jan_25_1225,60.0194645794,famFaceGrey,001,3,
115,./greyInner/JoshRadnor(Ted)9_1_cut.png,0,150,150,114,,,2.nein,2.596,None,act,0.847,None,None,None,None,None,,['return'],[1.0834960469182988],2017_Jan_25_1225,60.0194645794,famFaceGrey,001,3,
159,./greyInner/NicoleKidman7_1_cut.png,0,151,151,158,,,1.ja,3.877,None,act,0.813,None,None,None,None,None,Nicole Kitman,"['lshift', 'n', 'i', 'c', 'o', 'l', 'e', 'space', 'lshift', 'k', 'i', 't', 'm', 'a', 'n', 'return']","[0.683841971669608, 1.2002738784794929, 1.4501826979249017, 1.5501903644690174, 2.1833077193768986, 2.383166834593794, 2.499537601514021, 2.6164697262920527, 2.7496632654801942, 2.8330804015222384, 2.999603841741191, 3.2325532383783866, 3.4993611747595423, 3.632411006336042, 3.699255896102841, 4.398975954958587]",2017_Jan_25_1225,60.0194645794,famFaceGrey,001,3,
205,./greyInner/Usher7_1_cut.png,0,152,152,204,,,2.nein,4.359,None,dummy,0.661,None,None,None,None,None,,['return'],[0.8333838555408875],2017_Jan_25_1225,60.0194645794,famFaceGrey,001,3,
49,./greyInner/CristinMilioti(Tracy_Mutter)8_1_cut.png,0,153,153,48,,,2.nein,3.386,None,dummy,1.771,None,None,None,None,None,,['return'],[0.8166935637273127],2017_Jan_25_1225,60.0194645794,famFaceGrey,001,3,
74,./greyInner/GuentherJauch7_1_cut.png,0,154,154,73,,,1.ja,1.128,None,None,None,host,0.761,None,None,None,Günther Jauch,"['lctrl', 'lshift', 'g', u'\xfc', 'n', 't', 'h', 'e', 'r', 'space', 'lshift', 'j', 'a', 'u', 'c', 'h', 'return']","[0.8168132131449966, 1.0834437604426057, 1.399760572854575, 1.6333059711469105, 1.8331291594622598, 2.049741117794838, 2.216237933613229, 2.299561403086045, 2.4661268649506383, 2.5491828073099896, 2.7160125885311572, 2.8827211164552864, 3.1325593651981762, 3.265843042418055, 3.3990208635859744, 3.499092364538228, 3.7656892303657514]",2017_Jan_25_1225,60.0194645794,famFaceGrey,001,3,
98,./greyInner/JasonSegel(Marshall)6_1_cut.png,0,155,155,97,,,1.ja,1.612,None,dummy,1.568,None,None,None,None,None,,['return'],[0.933560570992995],2017_Jan_25_1225,60.0194645794,famFaceGrey,001,3,
5,./greyInner/AlysonHannigan(Lily)8_3_cut.png,0,156,156,4,,,1.ja,1.852,None,act,0.519,None,None,None,None,None,,['return'],[0.5834339767770871],2017_Jan_25_1225,60.0194645794,famFaceGrey,001,3,
199,./greyInner/UrsulavonderLeyen7_1_cut.png,0,157,157,198,,,2.nein,1.83,None,None,None,None,None,polit,0.847,None,,['return'],[0.833484899954783],2017_Jan_25_1225,60.0194645794,famFaceGrey,001,3,
92,./greyInner/JanHofer3_1_cut.png,0,158,158,91,,,2.nein,1.413,None,None,None,None,None,polit,1.646,None,,['return'],[0.6334198465974623],2017_Jan_25_1225,60.0194645794,famFaceGrey,001,3,
160,./greyInner/NicoleKidman8_2_cut.png,0,159,159,159,,,2.nein,2.544,None,dummy,0.827,None,None,None,None,None,,['return'],[0.8667734208920592],2017_Jan_25_1225,60.0194645794,famFaceGrey,001,3,
106,./greyInner/JoachimLoew1_1_cut.png,0,160,160,105,,,1.ja,2.453,None,None,None,None,None,sport,0.887,None,Jogi Löw,"['lshift', 'j', 'o', 'g', 'i', 'space', 'lshift', 'l', u'\xf6', 'w', 'return']","[0.8167785693458427, 0.9497915116917284, 1.1333558518035716, 1.5330442500762729, 1.749614828317135, 1.9494729812049627, 2.0993439811700227, 2.2825618832885084, 2.499000301850174, 2.7157925362516835, 2.8158316388344247]",2017_Jan_25_1225,60.0194645794,famFaceGrey,001,3,
122,./greyInner/KaleyCuoco(Penny)14_2_cut.png,0,161,161,121,,,1.ja,4.292,None,act,1.627,None,None,None,None,None,,['return'],[1.966171613190454],2017_Jan_25_1225,60.0194645794,famFaceGrey,001,3,
158,./greyInner/NicoleKidman5_1_cut.png,0,162,162,157,,,1.ja,5.773,None,dummy,3.008,None,None,None,None,None,,['return'],[1.6497123762728734],2017_Jan_25_1225,60.0194645794,famFaceGrey,001,3,
120,./greyInner/JudithRakers8_1_cut.png,0,163,163,119,,,2.nein,2.34,None,act,1.625,None,None,None,None,None,,['return'],[0.8001155434867542],2017_Jan_25_1225,60.0194645794,famFaceGrey,001,3,
12,./greyInner/BarackObama11_2_cut.png,0,164,164,11,,,1.ja,1.685,None,None,None,None,None,polit,1.039,None,Barak Obama,"['lshift', 'b', 'a', 'r', 'a', 'k', 'space', 'lshift', 'o', 'b', 'm', 'a', 'backspace', 'backspace', 'a', 'm', 'a', 'return']","[0.7169588774904696, 1.0001260649369215, 1.1835406026930286, 1.3665955506457976, 1.6164973130198632, 1.7663301406500977, 1.8497524091071682, 1.9831884548893868, 2.0831024548660935, 2.2996749577614537, 2.5494785627051897, 2.6327831064008933, 3.4490821157487517, 3.6324334606488264, 4.115541240395032, 4.265499170634939, 4.348847981405925, 4.53171367156574]",2017_Jan_25_1225,60.0194645794,famFaceGrey,001,3,
147,./greyInner/MilaKunis10_1_cut.png,0,165,165,146,,,2.nein,2.563,None,dummy,0.797,None,None,None,None,None,,['return'],[0.7500719340005162],2017_Jan_25_1225,60.0194645794,famFaceGrey,001,3,
66,./greyInner/EmmaWatson(HermioneGranger)11_2_cut.png,0,166,166,65,,,1.ja,1.828,None,dummy,0.645,None,None,None,None,None,Emma Watson,"['lshift', 'e', 'm', 'm', 'a', 'space', 'lshift', 'w', 't', 'backspace', 'a', 't', 's', 'o', 'n', 'return']","[0.46674339626588335, 0.7334993669483083, 0.8998576075700839, 1.0499342248986068, 1.1833401177445921, 1.299654107328024, 1.4664296774190007, 1.6163779843791417, 1.9829080967374466, 2.5326015793089027, 2.6659616011984326, 2.849202278406665, 3.36566080961893, 3.532179758974962, 3.6988655118093448, 4.381966491106141]",2017_Jan_25_1225,60.0194645794,famFaceGrey,001,3,
54,./greyInner/DannFlorek(DonaldDonCragen)5_1_cut.png,0,167,167,53,,,2.nein,2.494,None,None,None,None,None,polit,1.228,None,,['return'],[0.8668484824574989],2017_Jan_25_1225,60.0194645794,famFaceGrey,001,3,
38,./greyInner/CarenMiosga2_11_cut.png,0,168,168,37,,,2.nein,3.289,None,act,4.625,None,None,None,None,None,,['return'],[0.6837261715609202],2017_Jan_25_1225,60.0194645794,famFaceGrey,001,3,
43,./greyInner/CobieSmulders(Robin)3_4_cut.png,0,169,169,42,,,1.ja,1.425,None,act,0.409,None,None,None,None,None,,['return'],[0.5834891502363462],2017_Jan_25_1225,60.0194645794,famFaceGrey,001,3,
124,./greyInner/KaleyCuoco(Penny)5_2_cut.png,0,170,170,123,,,2.nein,6.316,None,dummy,1.435,None,None,None,None,None,,['return'],[1.133269242303868],2017_Jan_25_1225,60.0194645794,famFaceGrey,001,3,
113,./greyInner/JoshRadnor(Ted)6_2_cut.png,0,171,171,112,,,2.nein,3.178,None,None,None,music,3.244,None,None,None,,['return'],[0.750344272755683],2017_Jan_25_1225,60.0194645794,famFaceGrey,001,3,
154,./greyInner/NeilPatrickHarris(Barney)2_2_cut.png,0,172,172,153,,,2.nein,1.846,None,None,None,None,None,sport,0.68,None,,['return'],[0.7005867953866982],2017_Jan_25_1225,60.0194645794,famFaceGrey,001,3,
67,./greyInner/EmmaWatson(HermioneGranger)16_1_cut.png,0,173,173,66,,,1.ja,5.245,None,act,0.881,None,None,None,None,None,Emma Watson,"['lshift', 'e', 'm', 'm', 'a', 'space', 'lshift', 'w', 'a', 't', 's', 'o', 'n', 'return']","[0.6503224920688808, 0.866977113599205, 1.000246355904892, 1.133393061809329, 1.2500775475782575, 1.3999424527992232, 1.5332687932186673, 1.7333142792431318, 2.0831277961624437, 2.666243884004871, 3.182665525986522, 3.265885384838839, 3.432449884376183, 3.6491298472046765]",2017_Jan_25_1225,60.0194645794,famFaceGrey,001,3,
36,./greyInner/CarenMiosga1_1_cut.png,0,174,174,35,,,2.nein,2.943,None,None,None,None,None,polit,0.578,None,,['return'],[0.8834755814150412],2017_Jan_25_1225,60.0194645794,famFaceGrey,001,3,
193,./greyInner/TomCruise5_1_cut.png,0,175,175,192,,,1.ja,2.111,None,act,1.595,None,None,None,None,None,Tom Cruise,"['lshift', 't', 'o', 'm', 'space', 'lshift', 'c', 'r', 'u', 'i', 's', 'e', 'return']","[0.583853230902605, 0.9336641816153133, 1.1003284424623416, 1.3001580462951097, 1.4502163793949876, 1.5500748851391108, 1.783317470964903, 2.083108870385331, 2.349754494151057, 2.4829522034251568, 3.1992358476072695, 3.3659992282136955, 3.5826679638848873]",2017_Jan_25_1225,60.0194645794,famFaceGrey,001,3,
50,./greyInner/CristinMilioti(Tracy_Mutter)9_1_cut.png,0,176,176,49,,,2.nein,2.118,None,None,None,music,1.202,None,None,None,,['return'],[0.8833482333757274],2017_Jan_25_1225,60.0194645794,famFaceGrey,001,3,
53,./greyInner/DannFlorek(DonaldDonCragen)2_1_cut.png,0,177,177,52,,,2.nein,1.828,None,None,None,None,None,polit,1.346,None,,['return'],[0.5669983810439589],2017_Jan_25_1225,60.0194645794,famFaceGrey,001,3,
9,./greyInner/AngelaMerkel5_1_cut.png,0,178,178,8,,,1.ja,1.612,None,None,None,None,None,polit,1.078,None,Angela Merkel,"['lshift', 'a', 'n', 'g', 'e', 'l', 'a', 'space', 'lshift', 'm', 'e', 'r', 'k', 'e', 'l', 'return']","[0.8669982848114159, 1.3999620201320795, 1.716369932904854, 2.0664031813284964, 2.26629405336098, 2.3998314643322374, 2.56630967514684, 2.9160045049775363, 3.132712696087765, 3.2658741576833563, 3.4158397865430743, 3.599086558495401, 3.6991975148848724, 3.9990177841391414, 4.215569436599253, 4.465530863295498]",2017_Jan_25_1225,60.0194645794,famFaceGrey,001,3,
174,./greyInner/SahraWagenknecht6_2_cut.png,0,179,179,173,,,2.nein,2.79,None,None,None,None,None,polit,1.756,None,,['return'],[0.6503827979413472],2017_Jan_25_1225,60.0194645794,famFaceGrey,001,3,
155,./greyInner/NeilPatrickHarris(Barney)3_7_cut.png,0,180,180,154,,,1.ja,1.949,None,act,0.858,None,None,None,None,None,,['return'],[1.5831994895816024],2017_Jan_25_1225,60.0194645794,famFaceGrey,001,3,
132,./greyInner/LeonardoDiCaprio2_1_cut.png,0,181,181,131,,,1.ja,2.31,None,act,0.91,None,None,None,None,None,Leonardo Di Caprio,"['lshift', 'l', 'e', 'o', 'n', 'a', 'r', 'd', 'o', 'space', 'lshift', 'd', 'i', 'space', 'lshift', 'c', 'a', 'p', 'r', 'i', 'o', 'return']","[0.54987600406821, 0.7000350608068402, 0.833340871566179, 1.1332086156562582, 1.5995077372754167, 1.7164209362726979, 1.899756242379226, 2.0828987621571287, 2.3828290575493156, 2.4493146782879194, 2.615958088701518, 2.7825354192736995, 2.9159342550501606, 2.998760201075129, 3.248992041870224, 3.5655892124341335, 3.815483917738675, 4.4818349409015354, 4.964714328192713, 5.1316929494405485, 5.2982138234528975, 5.631128864988568]",2017_Jan_25_1225,60.0194645794,famFaceGrey,001,3,
33,./greyInner/BritneySpears5_1_cut.png,0,182,182,32,,,1.ja,2.561,None,None,None,music,0.495,None,None,None,Britney Spears,"['lshift', 'b', 'r', 'i', 't', 'n', 'e', 'y', 'space', 'lshift', 's', 'p', 'e', 'a', 'r', 's', 'return']","[0.583520907051934, 0.7335785986015253, 0.899909894045777, 1.0999650033481885, 1.5665585972601548, 2.216255255512806, 2.3660534393438866, 2.6994352098408854, 2.832569726258953, 2.9492320784902404, 3.0658110289823526, 3.2490048729068803, 3.349195060949569, 3.5489399799389503, 3.7819269073588657, 4.23210543519599, 4.748407748535101]",2017_Jan_25_1225,60.0194645794,famFaceGrey,001,3,
121,./greyInner/KaleyCuoco(Penny)10_1_cut.png,0,183,183,120,,,1.ja,3.275,None,None,None,music,0.56,None,None,None,Katy Perry,"['lshift', 'k', 'a', 't', 'y', 'space', 'lshift', 'p', 'e', 'r', 'r', 'y', 'return']","[0.6335279480827012, 0.750187734107385, 0.9167884813214187, 1.0331855518688826, 1.2333195720475487, 1.3500101525587525, 1.4832332031310216, 1.8497700517837075, 2.299422186339143, 2.4994840319359355, 2.616116231229171, 2.882677170153329, 3.2659238779506268]",2017_Jan_25_1225,60.0194645794,famFaceGrey,001,3,
55,./greyInner/DannFlorek(DonaldDonCragen)8_1_cut.png,0,184,184,54,,,2.nein,1.666,None,None,None,None,None,polit,1.016,None,,['return'],[0.7500129112304421],2017_Jan_25_1225,60.0194645794,famFaceGrey,001,3,
22,./greyInner/BenedictCumberbatch2_2_cut.png,0,185,185,21,,,1.ja,1.95,None,act,0.744,None,None,None,None,None,Comberbatch,"['lshift', 'c', 'o', 'm', 'b', 'e', 'r', 'b', 'a', 't', 'c', 'h', 'return']","[0.7002390742909483, 1.0503521959199134, 1.2999594860011712, 1.4500938429937378, 1.699616448233428, 1.8498194512740156, 2.016498147037055, 2.4663433886962594, 2.6329021142664715, 3.1327989848086872, 3.365629694353629, 3.4493169237193797, 4.048986011282977]",2017_Jan_25_1225,60.0194645794,famFaceGrey,001,3,
209,./greyInner/WillSmith5_1_cut.png,0,186,186,208,,,1.ja,2.279,None,act,2.446,None,None,None,None,None,Will Smith,"['lshift', 'w', 'i', 'l', 'l', 'space', 'lshift', 's', 'm', 'i', 't', 'h', 'return']","[1.4998837187304161, 1.5999064617426484, 1.7997893143765396, 2.016445219011075, 2.149672760446265, 2.266233426711551, 2.3995774098057154, 2.599233794640895, 2.7828340616542846, 2.9160077127362456, 3.132556157437648, 3.3488826252050785, 3.665754059178653]",2017_Jan_25_1225,60.0194645794,famFaceGrey,001,3,
141,./greyInner/MariskaHargitay(Liv)13_1_cut.png,0,187,187,140,,,2.nein,2.045,None,act,1.746,None,None,None,None,None,,['return'],[0.7835612606631912],2017_Jan_25_1225,60.0194645794,famFaceGrey,001,3,
146,./greyInner/MilaKunis1_3_cut.png,0,188,188,145,,,2.nein,1.73,None,None,None,music,0.925,None,None,None,,['return'],[0.6168164850605535],2017_Jan_25_1225,60.0194645794,famFaceGrey,001,3,
142,./greyInner/MariskaHargitay(Liv)14_1_cut.png,0,189,189,141,,,1.ja,1.896,None,act,0.413,None,None,None,None,None,,['return'],[0.6170439151865139],2017_Jan_25_1225,60.0194645794,famFaceGrey,001,3,
219,./greyInner/notfamousface4_2_cut.png,0,190,190,218,,,2.nein,1.505,None,act,0.739,None,None,None,None,None,,['return'],[0.9168936958230915],2017_Jan_25_1225,60.0194645794,famFaceGrey,001,3,
90,./greyInner/Ice-T(OdafinFinTutuola)7_1_cut.png,0,191,191,89,,,1.ja,1.326,None,act,0.576,None,None,None,None,None,,['return'],[0.8168606879808067],2017_Jan_25_1225,60.0194645794,famFaceGrey,001,3,
131,./greyInner/LeonardoDiCaprio1_1_cut.png,0,192,192,130,,,1.ja,1.587,None,act,0.62,None,None,None,None,None,Leonardo Di Caprio,"['lshift', 'l', 'e', 'o', 'n', 'a', 'r', 'd', 'o', 'space', 'lshift', 'd', 'i', 'space', 'lshift', 'c', 'a', 'p', 'r', 'i', 'o', 'return']","[0.5833140065842599, 0.7335981659307436, 0.8833540073410404, 1.1499576094611257, 1.3499254677153658, 1.5330176256738923, 1.7493851527578954, 2.1162421357767016, 2.2326247714063356, 2.3328685290271096, 2.4494134772703546, 3.0157603624247713, 3.115871318814243, 3.1823986404233437, 3.6490050653719663, 3.8488686714517826, 4.115513012113297, 4.231910082660761, 4.415377227667705, 4.631869536584418, 4.798469000696059, 5.031515592436335]",2017_Jan_25_1225,60.0194645794,famFaceGrey,001,3,
191,./greyInner/TomCruise1_1_cut.png,0,193,193,190,,,2.nein,1.829,None,act,1.113,None,None,None,None,None,,['return'],[0.7340029851420695],2017_Jan_25_1225,60.0194645794,famFaceGrey,001,3,
215,./greyInner/notfamousface13_1_cut.png,0,194,194,214,,,2.nein,1.512,None,None,None,music,0.663,None,None,None,,['return'],[0.7835583736778062],2017_Jan_25_1225,60.0194645794,famFaceGrey,001,3,
8,./greyInner/AngelaMerkel4_1_cut.png,0,195,195,7,,,1.ja,1.81,None,None,None,None,None,polit,1.343,None,Angela Merkel,"['lshift', 'a', 'n', 'g', 'a', 'l', 'backspace', 'backspace', 'e', 'l', 'a', 'space', 'lshift', 'm', 'e', 'r', 'k', 'e', 'l', 'return']","[0.483448122995469, 0.633327783911227, 0.7834380827098357, 0.9831871717869944, 1.1163155934627866, 1.4830631918939616, 2.0994325153224054, 2.2661728000639414, 2.7991455171086272, 3.0656496786959906, 3.4987555498246365, 3.665301123583049, 3.7820077428896184, 3.8820766776352684, 3.998602058547476, 4.165301283970621, 4.265352896814875, 4.381783328057281, 4.531802205719941, 4.798050708899609]",2017_Jan_25_1225,60.0194645794,famFaceGrey,001,3,
39,./greyInner/CarenMiosga6_2_cut.png,0,196,196,38,,,2.nein,2.512,None,act,1.679,None,None,None,None,None,,['return'],[1.08342772164724],2017_Jan_25_1225,60.0194645794,famFaceGrey,001,3,
221,./greyInner/notfamousface6_8_cut.png,0,197,197,220,,,2.nein,4.213,None,None,None,None,None,sport,2.435,None,,['return'],[0.8000327832978655],2017_Jan_25_1225,60.0194645794,famFaceGrey,001,3,
37,./greyInner/CarenMiosga13_1_cut.png,0,198,198,36,,,2.nein,4.027,None,dummy,1.094,None,None,None,None,None,,['return'],[0.6665556781990745],2017_Jan_25_1225,60.0194645794,famFaceGrey,001,3,
164,./greyInner/OmarEpps(DrEricForeman)5_2_cut.png,0,199,199,163,,,1.ja,1.817,None,act,0.481,None,None,None,None,None,,['return'],[0.5001175643756142],2017_Jan_25_1225,60.0194645794,famFaceGrey,001,3,
123,./greyInner/KaleyCuoco(Penny)3_1_cut.png,0,200,200,122,,,1.ja,3.662,None,dummy,0.664,None,None,None,None,None,,['return'],[1.2333811610224075],2017_Jan_25_1225,60.0194645794,famFaceGrey,001,3,
166,./greyInner/RobertSeanLeonard(Wilson)1_1_cut.png,0,201,201,165,,,1.ja,1.707,None,dummy,0.607,None,None,None,None,None,,['return'],[0.8002339097984077],2017_Jan_25_1225,60.0194645794,famFaceGrey,001,3,
185,./greyInner/SigmarGabriel8_2_cut.png,0,202,202,184,,,1.ja,2.493,None,None,None,None,None,polit,1.402,None,Sigmar Gabriel,"['lshift', 's', 'i', 'g', 'm', 'a', 'r', 'space', 'lshift', 'g', 'a', 'b', 'r', 'i', 'e', 'l', 'return']","[0.7335769947221706, 0.8501697385781881, 1.016769844241935, 1.2332990423874435, 1.4664874170830444, 1.6331503948276804, 1.8663573745270696, 2.0496535459697043, 2.349501401951784, 2.566033166305715, 2.7660484993939463, 2.9324032114800502, 3.0825670798585634, 3.2158007160360285, 4.182159662364938, 4.315516155718797, 5.448133902133122]",2017_Jan_25_1225,60.0194645794,famFaceGrey,001,3,
181,./greyInner/SigmarGabriel1_2_cut.png,0,203,203,180,,,1.ja,2.845,None,None,None,None,None,polit,3.312,None,Sigmar Gabriel,"['lshift', 's', 'i', 'o', 'g', 'backspace', 'backspace', 'g', 'm', 'a', 'r', 'space', 'lshift', 'g', 'a', 'b', 'r', 'i', 'e', 'l', 'return']","[0.7001014614234009, 0.8165540262034483, 0.9670040267010336, 1.1334062136229477, 1.6331648297436914, 1.9331329766955605, 2.2663258101765678, 2.499544337808402, 2.7993719849073386, 3.132537873210822, 3.232504480438365, 3.382427446100337, 3.6658409894535, 3.8323182379390346, 3.9822671864512813, 4.099032828527925, 4.232129172612986, 4.448688523696546, 4.548697152567911, 5.331642844243106]",2017_Jan_25_1225,60.0194645794,famFaceGrey,001,3,
167,./greyInner/RobertSeanLeonard(Wilson)10_1_cut.png,0,204,204,166,,,1.ja,1.737,None,dummy,0.905,None,None,None,None,None,,['return'],[1.0499493013667234],2017_Jan_25_1225,60.0194645794,famFaceGrey,001,3,
3,./greyInner/AlysonHannigan(Lily)14_2_cut.png,0,205,205,2,,,1.ja,1.362,None,dummy,0.447,None,None,None,None,None,,['return'],[0.667061541822477],2017_Jan_25_1225,60.0194645794,famFaceGrey,001,3,
163,./greyInner/OmarEpps(DrEricForeman)3_1_cut.png,0,206,206,162,,,1.ja,1.043,None,dummy,0.592,None,None,None,None,None,,['return'],[0.6833697895162913],2017_Jan_25_1225,60.0194645794,famFaceGrey,001,3,
81,./greyInner/HughLaurie(DrHouse)2_1_cut.png,0,207,207,80,,,1.ja,1.151,None,dummy,0.718,None,None,None,None,None,,['return'],[0.6834926466926845],2017_Jan_25_1225,60.0194645794,famFaceGrey,001,3,
201,./greyInner/Usher1_1_cut.png,0,208,208,200,,,1.ja,10.397,None,None,None,music,1.083,None,None,None,Usher,"['lshift', 'u', 's', 'h', 'e', 'r', 'return']","[0.9000590548475884, 1.049985549045232, 1.2831623758083879, 1.4498301651910879, 1.5830265913609765, 1.7664603756729775, 2.099555693275761]",2017_Jan_25_1225,60.0194645794,famFaceGrey,001,3,
102,./greyInner/JimParsons(SheldonCooper)10_1_cut.png,0,209,209,101,,,1.ja,1.862,None,act,0.497,None,None,None,None,None,Jim Parsons,"['lshift', 'j', 'i', 'm', 'space', 'lshift', 'p', 'a', 'r', 's', 'o', 'n', 's', 'return']","[0.8168930863485002, 0.9500183002655831, 1.083426759319991, 1.300145856810559, 1.3997843102715706, 1.5332796995990066, 1.7332712952702423, 1.8831987517969537, 2.116521852378355, 2.4162372279060946, 2.5995683639230265, 2.782941842362561, 3.016147538959558, 3.132681901597607]",2017_Jan_25_1225,60.0194645794,famFaceGrey,001,3,
211,./greyInner/notfamousface10_4_cut.png,0,210,210,210,,,2.nein,2.748,None,None,None,host,3.412,None,None,None,,['return'],[0.8169434481678763],2017_Jan_25_1225,60.0194645794,famFaceGrey,001,3,
114,./greyInner/JoshRadnor(Ted)7_1_cut.png,0,211,211,113,,,2.nein,3.558,None,dummy,0.542,None,None,None,None,None,,['return'],[0.7667032030440168],2017_Jan_25_1225,60.0194645794,famFaceGrey,001,3,
103,./greyInner/JimParsons(SheldonCooper)6_1_cut.png,0,212,212,102,,,1.ja,1.796,None,act,0.978,None,None,None,None,None,Jim Parsons,"['lshift', 'j', 'i', 'm', 'space', 'lshift', 'p', 'a', 'r', 's', 'o', 'n', 's', 'return']","[0.6336421443102154, 0.7170137301709474, 0.8335997377344029, 0.9835547809889249, 1.1000330078422849, 1.1835681894226582, 1.2831601303769276, 1.516231101086305, 1.6500748530615965, 1.9663913446966035, 2.316142631087132, 2.4830333597328718, 2.6329232854768634, 2.766062613534814]",2017_Jan_25_1225,60.0194645794,famFaceGrey,001,3,
139,./greyInner/LisaEdelstein(DrLisaCuddy)6_3_cut.png,0,213,213,138,,,1.ja,2.192,None,dummy,0.409,None,None,None,None,None,,['return'],[0.7667076939069375],2017_Jan_25_1225,60.0194645794,famFaceGrey,001,3,
151,./greyInner/NeilPatrickHarris(Barney)1_1_cut.png,0,214,214,150,,,1.ja,1.993,None,dummy,0.494,None,None,None,None,None,,['return'],[0.5998798373402678],2017_Jan_25_1225,60.0194645794,famFaceGrey,001,3,
30,./greyInner/Beyonce8_3_cut.png,0,215,215,29,,,2.nein,1.28,None,None,None,music,0.745,None,None,None,,['return'],[0.783701118962199],2017_Jan_25_1225,60.0194645794,famFaceGrey,001,3,
91,./greyInner/JanHofer1_3_cut.png,0,216,216,90,,,2.nein,1.63,None,None,None,None,None,polit,0.73,None,,['return'],[0.5501833073994931],2017_Jan_25_1225,60.0194645794,famFaceGrey,001,3,
62,./greyInner/EmilyDeschanel3_1_cut.png,0,217,217,61,,,1.ja,2.068,None,act,0.935,None,None,None,None,None,,['return'],[0.6504139132066484],2017_Jan_25_1225,60.0194645794,famFaceGrey,001,3,
6,./greyInner/AngelaMerkel1_1_cut.png,0,218,218,5,,,1.ja,1.443,None,None,None,None,None,polit,1.143,None,Angela Merkel,"['lshift', 'a', 'n', 'g', 'e', 'l', 'a', 'space', 'lshift', 'm', 'e', 'r', 'k', 'e', 'l', 'return']","[0.56667279348585, 0.9333235175890877, 1.1165500806582713, 1.333120017347028, 1.5495558697020897, 1.7995301274331723, 2.016137915681611, 2.1995046578267647, 2.3326353249340173, 2.449454215813603, 2.615999468795053, 2.782461320037328, 2.9491839621023246, 3.082359858613927, 3.1822514042760304, 3.4821682270812744]",2017_Jan_25_1225,60.0194645794,famFaceGrey,001,3,
47,./greyInner/CristinMilioti(Tracy_Mutter)2_1_cut.png,0,219,219,46,,,2.nein,2.08,None,None,None,music,1.645,None,None,None,,['return'],[0.6501945024792803],2017_Jan_25_1225,60.0194645794,famFaceGrey,001,3,
83,./greyInner/HughLaurie(DrHouse)5_3_cut.png,0,220,220,82,,,1.ja,1.428,None,act,0.545,None,None,None,None,None,,['return'],[0.9501164576959127],2017_Jan_25_1225,60.0194645794,famFaceGrey,001,3,
110,./greyInner/JoachimLoew8_1_cut.png,0,221,221,109,,,1.ja,1.558,None,None,None,None,None,sport,1.192,None,Jogi Löw,"['lshift', 'j', 'o', 'g', 'i', 'space', 'lshift', 'l', u'\xf6', 'w', 'return']","[0.7667538856385363, 0.9999297500726243, 1.2831861132253835, 1.7663346315130184, 1.9661536497387715, 2.0663095147592685, 2.2661378354860062, 2.5160177850993932, 2.7325912503220025, 3.032124104352988, 3.099008770333967]",2017_Jan_25_1225,60.0194645794,famFaceGrey,001,3,
118,./greyInner/JudithRakers4_3_cut.png,0,222,222,117,,,2.nein,2.212,None,None,None,music,0.729,None,None,None,,['return'],[0.7504992075246264],2017_Jan_25_1225,60.0194645794,famFaceGrey,001,3,
202,./greyInner/Usher11_1_cut.png,0,223,223,201,,,2.nein,3.294,None,None,None,music,1.177,None,None,None,,['return'],[0.6170147245775297],2017_Jan_25_1225,60.0194645794,famFaceGrey,001,3,
