num,pic,trials.thisRepN,trials.thisTrialN,trials.thisN,trials.thisIndex,key_resp_2.keys,key_resp_2.rt,ratingBekannt.response,ratingBekannt.rt,key_resp_5.keys,ratingK1.response,ratingK1.rt,ratingK2.response,ratingK2.rt,ratingK3.response,ratingK3.rt,key_resp_6.keys,inputText,key_resp_4.keys,key_resp_4.rt,date,frameRate,expName,session,participant,
,,,,,,space,83.5975696092,,,,,,,,,,,,,,2017_Jan_25_1425,59.9932452199,famFaceGrey,001,4,
88,./greyInner/Ice-T(OdafinFinTutuola)5_1_cut.png,0,0,0,87,,,1.ja,8.696,None,None,None,music,5.142,None,None,None,Ice Cube,"['lshift', 'i', 'c', 'e', 'space', 'lshift', 'c', 'u', 'b', 'e', 'return']","[18.57578892431411, 18.676078873668303, 18.94273219605384, 19.159288660153834, 19.858835820792592, 20.308654438049416, 20.49218894599835, 20.925256003243703, 21.358333004540327, 21.508143698629283, 25.306712139859883]",2017_Jan_25_1425,59.9932452199,famFaceGrey,001,4,
59,./greyInner/ElvisPresley5_2_cut.png,0,1,1,58,,,1.ja,2.077,None,None,None,music,2.997,None,None,None,Elvis,"['lshift', 'e', 'l', 'b', 'backspace', 'v', 'i', 's', 'return']","[2.73266823654194, 2.8825838243610633, 3.3323604199722467, 3.7487541865266394, 4.615276760650886, 5.348132009552501, 5.6315532515291125, 5.964672306548891, 7.347410584512545]",2017_Jan_25_1425,59.9932452199,famFaceGrey,001,4,
148,./greyInner/MilaKunis4_1_cut.png,0,2,2,147,,,1.ja,8.826,None,act,2.029,None,None,None,None,None,Mila Kunis,"['lshift', 'm', 'i', 'l', 'a', 'space', 'lshift', 'k', 'u', 'n', 'i', 's', 'return']","[2.5328325379705348, 2.6827426725976693, 2.916024393085536, 3.115926492275321, 3.2494918107513513, 3.5497082382644294, 5.048959386884235, 5.18229567135495, 5.398929442450026, 5.665415319810563, 5.898742911253066, 6.065301957598422, 7.148195587342343]",2017_Jan_25_1425,59.9932452199,famFaceGrey,001,4,
188,./greyInner/TaylorSwift3_1_cut.png,0,3,3,187,,,1.ja,2.745,None,None,None,music,2.795,None,None,None,Tailor Swift,"['lshift', 't', 'a', 'o', 'backspace', 'i', 'l', 'o', 'r', 'space', 'lshift', 's', 'w', 'i', 'f', 't', 'return']","[13.628646700930403, 13.795268619356648, 13.978582433475822, 14.27847423575804, 14.861593210582214, 15.178044107327878, 15.411336734196084, 15.56119297846817, 15.777888980093849, 15.97774552910414, 17.077249577454495, 17.22727134210072, 17.47711953489852, 17.860348600021098, 18.076904422567168, 18.176933260321675, 19.65957976429854]",2017_Jan_25_1425,59.9932452199,famFaceGrey,001,4,
162,./greyInner/OmarEpps(DrEricForeman)2_2_cut.png,0,4,4,161,,,1.ja,13.531,None,act,2.238,None,None,None,None,None,,['return'],[1.2500079392048065],2017_Jan_25_1425,59.9932452199,famFaceGrey,001,4,
92,./greyInner/JanHofer3_1_cut.png,0,5,5,91,,,1.ja,5.561,None,None,None,None,None,polit,5.694,None,,['return'],[1.2332137159937702],2017_Jan_25_1425,59.9932452199,famFaceGrey,001,4,
176,./greyInner/Shakira1_1_cut.png,0,6,6,175,,,1.ja,1.676,None,None,None,music,1.676,None,None,None,Shakira,"['lshift', 's', 'h', 'a', 'k', 'i', 'r', 'a', 'return']","[1.0333148245626944, 1.2331373713277571, 1.5497534676687792, 1.982889170958515, 2.366150313671824, 2.5660822450226988, 2.732598628172127, 3.0657054937073553, 4.1320871830466785]",2017_Jan_25_1425,59.9932452199,famFaceGrey,001,4,
2,./greyInner/AlysonHannigan(Lily)12_2_cut.png,0,7,7,1,,,1.ja,2.098,None,act,1.115,None,None,None,None,None,,['return'],[1.7166496495046886],2017_Jan_25_1425,59.9932452199,famFaceGrey,001,4,
15,./greyInner/BarackObama5_2_cut.png,0,8,8,14,,,1.ja,1.542,None,None,None,None,None,polit,1.894,None,Obama,"['lshift', 'o', 'b', 'a', 'm', 'a', 'return']","[1.3834317955042934, 1.5499526695130044, 1.8497671648001415, 2.0161488220655883, 2.133248071095295, 2.2996361438781605, 4.232284748934035]",2017_Jan_25_1425,59.9932452199,famFaceGrey,001,4,
24,./greyInner/BenedictCumberbatch4_1_cut.png,0,9,9,23,,,1.ja,1.396,None,act,1.943,None,None,None,None,None,,['return'],[1.4667366599715024],2017_Jan_25_1425,59.9932452199,famFaceGrey,001,4,
189,./greyInner/TaylorSwift7_1_cut.png,0,10,10,188,,,1.ja,2.513,None,None,None,music,1.329,None,None,None,Tailor Swift,"['lshift', 't', 'a', 'i', 'l', 'o', 'r', 'space', 'lshift', 's', 'w', 'i', 'f', 't', 'return']","[1.150015990679094, 1.3166465700523986, 1.516727662205085, 1.7664610172250832, 2.0164484267697844, 2.1830748360589496, 2.3496322785249504, 2.9657998339025653, 3.332518241724756, 3.4657955034272163, 3.9156721811232273, 4.182329032046255, 4.398847644588386, 4.531967726092262, 7.680873511319078]",2017_Jan_25_1425,59.9932452199,famFaceGrey,001,4,
28,./greyInner/Beyonce3_2_cut.png,0,11,11,27,,,1.ja,1.445,None,None,None,music,1.711,None,None,None,Beyonce,"['lshift', 'b', 'e', 'y', 'o', 'n', 'c', 'e', 'return']","[1.31712613005584, 1.4503668233046483, 1.733227669748885, 2.06684617287101, 2.433271070727642, 2.866487288774806, 3.0664817714277888, 3.2830228382845235, 4.782395881753473]",2017_Jan_25_1425,59.9932452199,famFaceGrey,001,4,
161,./greyInner/OmarEpps(DrEricForeman)1_5_cut.png,0,12,12,160,,,1.ja,1.711,None,act,1.349,None,None,None,None,None,,['return'],[1.133356172576896],2017_Jan_25_1425,59.9932452199,famFaceGrey,001,4,
125,./greyInner/KaleyCuoco(Penny)7_1_cut.png,0,13,13,124,,,1.ja,1.892,None,act,1.027,None,None,None,None,None,,['return'],[1.04995667921321],2017_Jan_25_1425,59.9932452199,famFaceGrey,001,4,
10,./greyInner/AngelaMerkel6_1_cut.png,0,14,14,9,,,1.ja,2.011,None,None,None,None,None,polit,0.956,None,Angela Merkel,"['lshift', 'a', 'n', 'g', 'e', 'l', 'a', 'space', 'lshift', 'm', 'e', 'r', 'k', 'e', 'l', 'return']","[1.066883062099805, 1.183389196459757, 1.366909911044786, 1.6333553706390376, 2.066471506597736, 2.216520857971773, 2.3831485503651493, 2.6996709801387624, 2.966170650863205, 3.0994472710153786, 3.3159498447603255, 3.532657073541486, 3.6491789259198413, 3.799163480558491, 3.899160882276192, 4.915487414196832]",2017_Jan_25_1425,59.9932452199,famFaceGrey,001,4,
107,./greyInner/JoachimLoew12_1_cut.png,0,15,15,106,,,1.ja,2.247,None,None,None,None,None,sport,5.029,None,Jogi Löw,"['lshift', 'j', 'o', 'w', 'i', 'backspace', 'backspace', 'g', 'i', 'space', 'lshift', 'l', u'\xf6', 'w', 'return']","[1.1332515996291477, 1.3332146462453238, 1.549732938008674, 1.782733017240389, 1.9496670506377995, 2.6993357693063444, 2.8326739784351957, 3.5154994112162967, 3.615652710028371, 3.915468809194863, 4.198382583665079, 4.3653586387044925, 4.598289751113043, 4.8152247307989455, 5.864581879817706]",2017_Jan_25_1425,59.9932452199,famFaceGrey,001,4,
53,./greyInner/DannFlorek(DonaldDonCragen)2_1_cut.png,0,16,16,52,,,1.ja,3.277,None,None,None,None,None,polit,2.961,None,,['return'],[1.4499931193568045],2017_Jan_25_1425,59.9932452199,famFaceGrey,001,4,
119,./greyInner/JudithRakers7_1_cut.png,0,17,17,118,,,2.nein,3.628,None,None,None,host,7.943,None,None,None,,['return'],[1.4166272914226283],2017_Jan_25_1425,59.9932452199,famFaceGrey,001,4,
87,./greyInner/Ice-T(OdafinFinTutuola)12_1_cut.png,0,18,18,86,,,1.ja,1.38,None,None,None,music,1.745,None,None,None,Ice Cube,"['lshift', 'i', 'c', 'e', 'space', 'lshift', 'c', 'u', 'b', 'e', 'return']","[1.0499287717066181, 1.2165708990178246, 1.5330458539574465, 1.6829893492795236, 1.8830043615889736, 2.6992286301501736, 2.8825491805619095, 3.2323890011066396, 3.4820899577571254, 3.5989646636444377, 4.9649651749641635]",2017_Jan_25_1425,59.9932452199,famFaceGrey,001,4,
72,./greyInner/GuentherJauch3_1_cut.png,0,19,19,71,,,1.ja,1.55,None,None,None,host,1.867,None,None,None,Günther Jauch,"['lshift', 'g', u'\xfc', 'n', 't', 'h', 'e', 'r', 'space', 'lshift', 'j', 'a', 'u', 'c', 'h', 'return']","[0.8832709263770084, 1.0333837913858588, 1.6164273838694498, 1.9996484295952541, 2.2828772060165647, 2.3995860707545944, 2.5659430282721587, 2.7493193936934404, 2.898980285433936, 3.4489775427973655, 3.715439361963945, 3.8988834111041797, 3.998903267136484, 4.148855102630478, 4.28196042844138, 5.581508038161701]",2017_Jan_25_1425,59.9932452199,famFaceGrey,001,4,
199,./greyInner/UrsulavonderLeyen7_1_cut.png,0,20,20,198,,,1.ja,3.946,None,None,None,None,None,polit,2.312,None,,['return'],[4.5153929136104125],2017_Jan_25_1425,59.9932452199,famFaceGrey,001,4,
64,./greyInner/EmilyDeschanel6_12_cut.png,0,21,21,63,,,1.ja,2.295,None,act,1.178,None,None,None,None,None,,['return'],[1.1834475776777253],2017_Jan_25_1425,59.9932452199,famFaceGrey,001,4,
212,./greyInner/notfamousface11_1_cut.png,0,22,22,211,,,2.nein,2.884,None,act,4.466,None,None,None,None,None,,['return'],[1.4664707367373921],2017_Jan_25_1425,59.9932452199,famFaceGrey,001,4,
12,./greyInner/BarackObama11_2_cut.png,0,23,23,11,,,1.ja,1.218,None,None,None,None,None,polit,1.348,None,Obama,"['lshift', 'o', 'b', 'a', 'm', 'a', 'return']","[0.9668375439978263, 1.1001427132068784, 1.4334115705823933, 1.5499975781422108, 1.7331266253313515, 1.8665431037843518, 2.7993421527462488]",2017_Jan_25_1425,59.9932452199,famFaceGrey,001,4,
129,./greyInner/KatjaBurkard5_3_cut.png,0,24,24,128,,,1.ja,3.385,None,None,None,host,2.284,None,None,None,Burkardt,"['lshift', 'b', 'u', 'r', 'k', 'a', 'r', 'd', 'backspace', 'k', 't', 'backspace', 'backspace', 'd', 't', 'return']","[3.8992221504740883, 4.015767740271258, 4.265716656704171, 4.432230152870034, 4.615597536569112, 5.398534246516647, 5.681772966992867, 6.181575529415568, 7.1478860385796, 7.481104854909063, 7.614386607474444, 11.396174939636694, 11.546041769513977, 13.428670181729103, 13.578279749319336, 19.576012505127437]",2017_Jan_25_1425,59.9932452199,famFaceGrey,001,4,
171,./greyInner/SahraWagenknecht12_1_cut.png,0,25,25,170,,,1.ja,2.296,None,None,None,None,None,polit,1.21,None,,['return'],[2.4825817072378413],2017_Jan_25_1425,59.9932452199,famFaceGrey,001,4,
137,./greyInner/LisaEdelstein(DrLisaCuddy)10_1_cut.png,0,26,26,136,,,1.ja,3.197,None,act,1.362,None,None,None,None,None,,['return'],[1.3668467181887536],2017_Jan_25_1425,59.9932452199,famFaceGrey,001,4,
160,./greyInner/NicoleKidman8_2_cut.png,0,27,27,159,,,1.ja,1.909,None,dummy,0.842,None,None,None,None,None,Nicole Kidmann,"['lshift', 'n', 'i', 'c', 'o', 'l', 'e', 'space', 'lshift', 'k', 'i', 'd', 'm', 'a', 'n', 'n', 'return']","[1.149874849274056, 1.2832236440081033, 1.49991836252957, 1.6998169331818644, 1.8495897757165949, 2.0328859471592295, 2.149497937571141, 2.2994234694415354, 2.5826538497422007, 2.715980510936788, 2.8826438094583864, 2.999085147079313, 3.399073791613773, 3.548992907963111, 4.082190809705935, 6.1480239722259284, 10.280354624192114]",2017_Jan_25_1425,59.9932452199,famFaceGrey,001,4,
127,./greyInner/KatjaBurkard10_1_cut.png,0,28,28,126,,,1.ja,1.695,None,None,None,host,1.062,None,None,None,Burkardt,"['lshift', 'b', 'u', 'r', 'k', 'a', 'd', 'r', 'backspace', 'backspace', 'r', 'd', 't', 'return']","[1.1002402290832833, 1.2333301576509257, 1.4832630352902925, 1.6831446048199723, 1.7831041549761721, 2.4661355258976982, 2.7162300746022083, 2.9493286320393963, 3.7824407903790416, 3.948814428244077, 4.21550496063719, 4.4487196389600285, 4.598561769089429, 5.4979863291700894]",2017_Jan_25_1425,59.9932452199,famFaceGrey,001,4,
97,./greyInner/JasonSegel(Marshall)14_1_cut.png,0,29,29,96,,,1.ja,1.538,None,act,1.621,None,None,None,None,None,,['return'],[1.1999162133288337],2017_Jan_25_1425,59.9932452199,famFaceGrey,001,4,
131,./greyInner/LeonardoDiCaprio1_1_cut.png,0,30,30,130,,,1.ja,1.771,None,act,1.118,None,None,None,None,None,Leonardo Di Caprio,"['lshift', 'd', 'i', 'k', 'a', 'p', 'backspace', 'backspace', 'backspace', 'backspace', 'backspace', 'backspace', 'lshift', 'l', 'e', 'o', 'n', 'a', 'r', 'd', 'o', 'space', 'lshift', 'd', 'i', 'space', 'lshift', 'c', 's', 'p', 'backspace', 'backspace', 'a', 'p', 'r', 'i', 'o', 'return']","[1.8497119913445204, 2.0329388751888473, 2.149495050591213, 2.9658553281369677, 3.0658312378654955, 3.9154421847924823, 5.19836494098854, 5.364925591216888, 5.481456746096228, 5.631465679703979, 5.748136051333859, 5.84800642578557, 7.047261519946915, 7.16411665850319, 7.364124613748572, 7.497417593469436, 7.880362771902583, 7.980415667851048, 8.213733636021061, 8.430257060201257, 8.596910735443089, 8.863464296518941, 9.129881848606601, 9.263176432210457, 9.396571097899141, 9.66325136546584, 9.979729528164171, 10.029686848927668, 10.296210898621212, 10.46289280214478, 11.478816118735267, 11.678868341055932, 12.01208651583147, 12.312002055532503, 12.828606219012727, 12.94512582596144, 13.11171181748432, 14.862305653903604]",2017_Jan_25_1425,59.9932452199,famFaceGrey,001,4,
83,./greyInner/HughLaurie(DrHouse)5_3_cut.png,0,31,31,82,,,1.ja,1.41,None,act,0.794,None,None,None,None,None,,['return'],[1.3001676695712376],2017_Jan_25_1425,59.9932452199,famFaceGrey,001,4,
73,./greyInner/GuentherJauch4_1_cut.png,0,32,32,72,,,1.ja,1.395,None,None,None,host,2.295,None,None,None,Günther Jauch,"['lshift', 'g', u'\xfc', 'n', 't', 'h', 'e', 'r', 'space', 'lshift', 'j', 'a', 'u', 'c', 'h', 'return']","[1.68320523147122, 1.8330293981525756, 2.232804726696486, 2.53286942719933, 2.866066109992971, 2.9991133753610484, 3.149254468647996, 3.3491260941264045, 3.46568226952877, 3.6490127639954153, 3.8156487965607084, 3.9486505117492925, 4.082255606441322, 4.232049620186444, 4.348768428979383, 6.331401620751421]",2017_Jan_25_1425,59.9932452199,famFaceGrey,001,4,
8,./greyInner/AngelaMerkel4_1_cut.png,0,33,33,7,,,1.ja,1.342,None,None,None,None,None,polit,1.478,None,Angela Merkel,"['lshift', 'a', 'n', 'g', 'e', 'l', 'a', 'space', 'lshift', 'm', 'e', 'r', 'k', 'e', 'l', 'return']","[0.8500298802755424, 1.0000189257771126, 1.1165805543714669, 1.349804855970433, 1.4830914201738779, 1.6830952053278452, 1.8159901021354017, 2.032812810248288, 2.4826776192385296, 2.6493919211279717, 2.8491464633953, 3.0490953958687896, 3.1658209409579285, 3.282261957803712, 3.398906346581498, 5.064900346147624]",2017_Jan_25_1425,59.9932452199,famFaceGrey,001,4,
70,./greyInner/EmmaWatson(HermioneGranger)9_1_cut.png,0,34,34,69,,,1.ja,1.645,None,act,5.377,None,None,None,None,None,Emma Watson,"['lshift', 'e', 'm', 'm', 'a', 'space', 'lshift', 'w', 'a', 't', 's', 'o', 'n', 'return']","[0.883680236449436, 1.0502408866741462, 1.2667915768070088, 1.3998507108881313, 1.5500367128042853, 1.7165909475115768, 1.8332247506841668, 1.9831127517718414, 2.183092799510632, 2.4497150066345057, 2.6995051389894797, 2.849558981226437, 3.032691236177925, 3.9823890812986065]",2017_Jan_25_1425,59.9932452199,famFaceGrey,001,4,
14,./greyInner/BarackObama4_1_cut.png,0,35,35,13,,,1.ja,1.43,None,None,None,None,None,polit,1.446,None,Obama,"['lshift', 'o', 'b', 'a', 'm', 'a', 'return']","[1.083306789128983, 1.2000262394722085, 1.4832165227853693, 1.6163459067902295, 1.7329595010778576, 1.8495856056324556, 2.7328087363966915]",2017_Jan_25_1425,59.9932452199,famFaceGrey,001,4,
49,./greyInner/CristinMilioti(Tracy_Mutter)8_1_cut.png,0,36,36,48,,,1.ja,2.303,None,act,1.47,None,None,None,None,None,,['return'],[1.1167364514658402],2017_Jan_25_1425,59.9932452199,famFaceGrey,001,4,
183,./greyInner/SigmarGabriel3_3_cut.png,0,37,37,182,,,1.ja,1.557,None,None,None,None,None,polit,2.404,None,,['return'],[11.312735349281866],2017_Jan_25_1425,59.9932452199,famFaceGrey,001,4,
213,./greyInner/notfamousface12_2_cut.png,0,38,38,212,,,2.nein,2.951,None,None,None,music,3.751,None,None,None,,['return'],[1.4165153406283935],2017_Jan_25_1425,59.9932452199,famFaceGrey,001,4,
159,./greyInner/NicoleKidman7_1_cut.png,0,39,39,158,,,1.ja,1.413,None,act,1.062,None,None,None,None,None,Nicole Kidmann,"['lshift', 'n', 'i', 'c', 'o', 'l', 'w', 'e', 'space', 'backspace', 'backspace', 'backspace', 'e', 'space', 'lshift', 'k', 'i', 'd', 'm', 'a', 'n', 'n', 'return']","[0.9667916730431898, 1.1167823224241147, 1.3500653260161926, 1.549892363640538, 1.6666333059729368, 1.8497305963464896, 1.9832131546354503, 2.1330366797665192, 2.9661324785301986, 3.1159104534781363, 3.3325400544890726, 3.6658608775614994, 3.965569516793039, 4.198819801240461, 4.4154824421711965, 4.615558722685819, 4.7318675798524055, 4.932047791764489, 5.064914781065454, 5.215023155211384, 5.348487750048662, 6.181275283157447]",2017_Jan_25_1425,59.9932452199,famFaceGrey,001,4,
220,./greyInner/notfamousface5_1_cut.png,0,40,40,219,,,1.ja,2.874,None,None,None,None,None,polit,1.343,None,,['return'],[1.0169080986597692],2017_Jan_25_1425,59.9932452199,famFaceGrey,001,4,
178,./greyInner/Shakira3_1_cut.png,0,41,41,177,,,1.ja,1.297,None,None,None,music,1.447,None,None,None,Shakira,"['lshift', 's', 'j', 'backspace', 'h', 'a', 'k', 'i', 'r', 'a', 'return']","[0.900087603902648, 1.0332734444709786, 1.1999649712706741, 1.6164562537014717, 1.9162357844143116, 2.116213586719823, 2.299411279956985, 2.482729264163936, 2.782708959046431, 3.032637987376802, 3.915457261260599]",2017_Jan_25_1425,59.9932452199,famFaceGrey,001,4,
154,./greyInner/NeilPatrickHarris(Barney)2_2_cut.png,0,42,42,153,,,1.ja,1.297,None,dummy,0.713,None,None,None,None,None,,['return'],[1.6497402837776463],2017_Jan_25_1425,59.9932452199,famFaceGrey,001,4,
108,./greyInner/JoachimLoew15_1_cut.png,0,43,43,107,,,1.ja,1.395,None,None,None,None,None,sport,1.678,None,Jogi Löw,"['lshift', 'j', 'o', 'g', 'i', 'space', 'lshift', 'l', u'\xf6', 'w', 'return']","[1.3999719641833508, 1.5500553178062546, 1.7831490636053786, 2.1162427773269883, 2.216342506562796, 2.4828912560005847, 2.682641948955279, 2.816172944410937, 3.6324469332357694, 3.815787371757324, 6.148168321389676]",2017_Jan_25_1425,59.9932452199,famFaceGrey,001,4,
102,./greyInner/JimParsons(SheldonCooper)10_1_cut.png,0,44,44,101,,,1.ja,1.662,None,act,0.763,None,None,None,None,None,,['return'],[1.3830523175929557],2017_Jan_25_1425,59.9932452199,famFaceGrey,001,4,
96,./greyInner/JasonSegel(Marshall)11_1_cut.png,0,45,45,95,,,1.ja,2.146,None,act,1.68,None,None,None,None,None,,['return'],[1.0500670261280902],2017_Jan_25_1425,59.9932452199,famFaceGrey,001,4,
34,./greyInner/BritneySpears7_1_cut.png,0,46,46,33,,,1.ja,1.681,None,None,None,music,1.913,None,None,None,Britney Spears,"['lshift', 'b', 'r', 'i', 't', 'n', 'e', 'y', 'space', 'lshift', 's', 'p', 'a', 'e', 'r', 's', 'backspace', 'backspace', 'backspace', 'backspace', 'e', 'a', 'r', 's', 'return']","[0.9332978555175941, 1.0332452161892434, 1.3496807156880095, 1.5164854763897893, 1.6663478154041513, 1.9162537478659942, 2.132800588686223, 2.432675069070683, 2.6324972950569645, 2.799150970298797, 2.932417646396061, 3.132257835834025, 3.249132862496481, 3.4821865113081003, 3.715555162070814, 3.932186687736248, 4.698511375194357, 4.848416698183428, 4.981634937117633, 5.08163715046976, 5.698165257977962, 5.9312217937731475, 6.0812685789387615, 6.215760619044886, 8.330316435818531]",2017_Jan_25_1425,59.9932452199,famFaceGrey,001,4,
45,./greyInner/CobieSmulders(Robin)5_1_cut.png,0,47,47,44,,,1.ja,1.63,None,dummy,0.747,None,None,None,None,None,,['return'],[1.0666966912940552],2017_Jan_25_1425,59.9932452199,famFaceGrey,001,4,
36,./greyInner/CarenMiosga1_1_cut.png,0,48,48,35,,,2.nein,4.027,None,None,None,host,7.774,None,None,None,,['return'],[1.633024329894397],2017_Jan_25_1425,59.9932452199,famFaceGrey,001,4,
9,./greyInner/AngelaMerkel5_1_cut.png,0,49,49,8,,,1.ja,1.812,None,None,None,None,None,polit,1.561,None,Angela Merkel,"['lshift', 'a', 'n', 'g', 'e', 'l', 'a', 'space', 'lshift', 'm', 'e', 'r', 'k', 'e', 'l', 'return']","[0.8836327616154449, 1.0336291849635018, 1.1833494202473958, 1.4834311218728544, 1.6332334757898934, 1.800014819848002, 1.9165254450708744, 2.083253861099365, 2.2663845121678605, 2.383046864400967, 2.566231085049367, 2.76622235994364, 2.882857766995585, 2.9661421018063265, 3.0828397393888736, 4.5834150509981555]",2017_Jan_25_1425,59.9932452199,famFaceGrey,001,4,
117,./greyInner/JudithRakers2_1_cut.png,0,50,50,116,,,2.nein,4.181,None,None,None,host,6.995,None,None,None,,['return'],[1.7664728859344905],2017_Jan_25_1425,59.9932452199,famFaceGrey,001,4,
141,./greyInner/MariskaHargitay(Liv)13_1_cut.png,0,51,51,140,,,1.ja,1.529,None,act,1.461,None,None,None,None,None,,['return'],[1.233480280781805],2017_Jan_25_1425,59.9932452199,famFaceGrey,001,4,
79,./greyInner/GeorgeClooney3_1_cut.png,0,52,52,78,,,1.ja,1.463,None,act,0.846,None,None,None,None,None,George Clooney,"['lshift', 'g', 'e', 'o', 'r', 'g', 'e', 'space', 'lshift', 'c', 'l', 'o', 'o', 'n', 'e', 'y', 'return']","[0.9500282443186734, 1.0334665515729284, 1.5331183493108256, 1.6664357080044283, 2.249351631675381, 2.5661804024530284, 2.732645782230975, 3.3490885633436847, 3.932160384109011, 4.148715565104794, 4.281959145337169, 4.481926041262341, 5.414938406211149, 5.731514405564667, 5.88114289893565, 6.131250920225284, 7.114326141218044]",2017_Jan_25_1425,59.9932452199,famFaceGrey,001,4,
85,./greyInner/HughLaurie(DrHouse)9_2_cut.png,0,53,53,84,,,1.ja,1.484,None,dummy,1.565,None,None,None,None,None,,['return'],[1.2335717019195727],2017_Jan_25_1425,59.9932452199,famFaceGrey,001,4,
134,./greyInner/LeonardoDiCaprio4_1_cut.png,0,54,54,133,,,1.ja,1.211,None,act,0.828,None,None,None,None,None,Leonardo Di Caprio,"['lshift', 'l', 'e', 'o', 'n', 'a', 'r', 'd', 'o', 'space', 'lshift', 'd', 'i', 'space', 'lshift', 'c', 'a', 'p', 'r', 'i', 'o', 'return']","[1.3330199352603813, 1.4497592737134255, 1.7164401828304108, 1.966341624429333, 2.2162536516334512, 2.3326500806288095, 2.5826208098260395, 3.2822074258983776, 3.3823167784103134, 4.182046749239817, 4.415227104538644, 4.581750865534559, 4.648503051059379, 4.931775132230541, 5.048286719782482, 5.181659572706849, 5.431221633385576, 5.614793992892373, 6.331094317421957, 6.4642381363446475, 6.6473848262103274, 7.5137909586737806]",2017_Jan_25_1425,59.9932452199,famFaceGrey,001,4,
111,./greyInner/JoshRadnor(Ted)1_2_cut.png,0,55,55,110,,,1.ja,1.38,None,act,1.205,None,None,None,None,None,,['return'],[1.3500178511785634],2017_Jan_25_1425,59.9932452199,famFaceGrey,001,4,
217,./greyInner/notfamousface2_cut.png,0,56,56,216,,,1.ja,6.4,None,act,3.315,None,None,None,None,None,,['return'],[1.3833509599717217],2017_Jan_25_1425,59.9932452199,famFaceGrey,001,4,
80,./greyInner/GeorgeClooney4_2_cut.png,0,57,57,79,,,1.ja,1.362,None,dummy,1.301,None,None,None,None,None,George Clooney,"['lshift', 'g', 'e', 'o', 'r', 'f', 'e', 'backspace', 'backspace', 'g', 'e', 'space', 'lshift', 'c', u'\xf6', 'l', 'backspace', 'backspace', 'l', 'o', 'o', 'n', 'e', 'y', 'return']","[2.2158530025117216, 2.7491416838347504, 3.0157324549181794, 3.198925336517277, 3.4323623125492304, 3.765419137042045, 3.9986697422646102, 4.498527798921714, 4.648158537722338, 5.431348660647927, 5.5313877632324875, 5.731369735625776, 5.864554934640182, 6.047975567140384, 6.264698193164804, 6.947450809813745, 7.097540899729211, 7.630471595130075, 7.797172424434393, 8.330269602534827, 8.980045813215838, 9.196604522745474, 9.413138211755722, 10.19623210190548]",2017_Jan_25_1425,59.9932452199,famFaceGrey,001,4,
61,./greyInner/EmilyDeschanel15_1_cut.png,0,58,58,60,,,1.ja,1.859,None,dummy,0.727,None,None,None,None,None,,['return'],[1.1499040398848592],2017_Jan_25_1425,59.9932452199,famFaceGrey,001,4,
51,./greyInner/DannFlorek(DonaldDonCragen)1_1_cut.png,0,59,59,50,,,1.ja,1.83,None,act,1.029,None,None,None,None,None,,['return'],[1.1167880963912467],2017_Jan_25_1425,59.9932452199,famFaceGrey,001,4,
32,./greyInner/BritneySpears14_2_cut.png,0,60,60,31,,,1.ja,1.179,None,None,None,music,1.111,None,None,None,Britney Spears,"['lshift', 'b', 'r', 'i', 't', 'n', 'e', 'y', 'space', 'lshift', 's', 'p', 'e', 'a', 'r', 's', 'return']","[1.250113795256766, 1.3667745436105179, 1.6499414102800074, 1.7666967875265982, 2.0165212429055828, 2.2664124196744524, 2.383014145256311, 2.6496992244610738, 2.8161010906078445, 2.9826017557352316, 3.1159900059064967, 3.2661006254820677, 3.598992891926173, 3.7991391015893896, 4.0322713405003014, 4.265667898765969, 5.165195427918661]",2017_Jan_25_1425,59.9932452199,famFaceGrey,001,4,
136,./greyInner/LisaEdelstein(DrLisaCuddy)1_1_cut.png,0,61,61,135,,,1.ja,2.462,None,dummy,1.196,None,None,None,None,None,,['return'],[1.1001362976858218],2017_Jan_25_1425,59.9932452199,famFaceGrey,001,4,
198,./greyInner/UrsulavonderLeyen5_1_cut.png,0,62,62,197,,,1.ja,2.308,None,None,None,None,None,polit,1.292,None,Von derLine,"['lshift', 'v', 'o', 'n', 'backspace', 'backspace', 'backspace', 'lshift', 'v', 'o', 'n', 'd', 'e', 'backspace', 'backspace', 'backspace', 'backspace', 'backspace', 'lshift', 'f', 'o', 'n', 'd', 'e', 'r', 'l', 'i', 'b', 'e', 'backspace', 'backspace', 'n', 'e', 'backspace', 'backspace', 'backspace', 'backspace', 'backspace', 'backspace', 'backspace', 'backspace', 'backspace', 'backspace', 'backspace', 'lshift', 'v', 'o', 'n', 'space', 'd', 'e', 'r', 'lshift', 'l', 'i', 'e', 'backspace', 'n', 'e', 'return']","[8.030350534299942, 8.18039026239785, 8.480232985963085, 8.730091122812155, 9.929661860478518, 12.262005920882075, 12.46199623344728, 13.511434538777394, 13.644390703782847, 13.977949221811286, 14.22794144299769, 15.077625206056837, 15.294155366533232, 15.677145774370729, 15.827185181689856, 15.977061314071761, 16.110301365766645, 16.260500198717637, 18.909263719826413, 19.042257736393367, 19.325717150699347, 19.559033194211224, 19.75885477864722, 19.875621703824436, 19.992339550288307, 20.941580610506207, 21.141667155847244, 21.424834022520372, 21.574761799820408, 22.291227323948988, 22.42455238126422, 23.140832817683986, 23.240846258195234, 29.23785213577139, 29.387862994037278, 29.521059099432023, 29.670984631302417, 29.804285630423692, 29.93765559636813, 30.070867099006136, 30.187471070021274, 30.304016339039663, 30.453983892555698, 30.570431324922538, 31.2374954329498, 31.370452239512815, 31.68685566142085, 31.903938839579496, 32.66967329934778, 32.869603306044155, 32.970360946685105, 33.06994166048389, 34.25276308356479, 34.302940456611395, 34.536269972712034, 34.919406654367776, 35.41879669895934, 35.75243573174157, 35.85240265974426, 39.450569232903945]",2017_Jan_25_1425,59.9932452199,famFaceGrey,001,4,
165,./greyInner/OmarEpps(DrEricForeman)9_1_cut.png,0,63,63,164,,,1.ja,1.595,None,dummy,0.729,None,None,None,None,None,,['return'],[1.3668787957831228],2017_Jan_25_1425,59.9932452199,famFaceGrey,001,4,
168,./greyInner/RobertSeanLeonard(Wilson)11_2_cut.png,0,64,64,167,,,1.ja,1.327,None,act,0.727,None,None,None,None,None,,['return'],[0.833570867900562],2017_Jan_25_1425,59.9932452199,famFaceGrey,001,4,
120,./greyInner/JudithRakers8_1_cut.png,0,65,65,119,,,1.ja,3.322,None,dummy,1.957,None,None,None,None,None,,['return'],[1.399994418497954],2017_Jan_25_1425,59.9932452199,famFaceGrey,001,4,
104,./greyInner/JimParsons(SheldonCooper)8_1_cut.png,0,66,66,103,,,1.ja,1.661,None,dummy,0.71,None,None,None,None,None,,['return'],[1.0832018954024534],2017_Jan_25_1425,59.9932452199,famFaceGrey,001,4,
47,./greyInner/CristinMilioti(Tracy_Mutter)2_1_cut.png,0,67,67,46,,,1.ja,1.23,None,act,0.579,None,None,None,None,None,,['return'],[0.7506024973699823],2017_Jan_25_1425,59.9932452199,famFaceGrey,001,4,
121,./greyInner/KaleyCuoco(Penny)10_1_cut.png,0,68,68,120,,,1.ja,1.258,None,act,0.558,None,None,None,None,None,,['return'],[0.89990796938946],2017_Jan_25_1425,59.9932452199,famFaceGrey,001,4,
82,./greyInner/HughLaurie(DrHouse)4_1_cut.png,0,69,69,81,,,1.ja,1.759,None,act,0.975,None,None,None,None,None,,['return'],[0.8169136160067865],2017_Jan_25_1425,59.9932452199,famFaceGrey,001,4,
156,./greyInner/NicoleKidman14_1_cut.png,0,70,70,155,,,1.ja,1.229,None,act,1.079,None,None,None,None,None,Nicole Kidmann,"['lshift', 'n', 'i', 'c', 'o', 'l', 'e', 'space', 'lshift', 'k', 'i', 'd', 'a', 'backspace', 'm', 'a', 'n', 'n', 'return']","[0.9500824554525025, 1.0335393677050888, 1.2334488447413605, 1.43308662457639, 1.5498795326057007, 1.7332170841400512, 1.8666162406916555, 2.016513865059096, 2.3662497542063647, 2.732850758042332, 2.882571955651656, 3.0162418470790726, 3.232665509949584, 4.015534856956947, 4.2321009443330695, 4.381997606371442, 4.515329399979237, 4.648617888840818, 5.531813432877243]",2017_Jan_25_1425,59.9932452199,famFaceGrey,001,4,
94,./greyInner/JanHofer7_1_cut.png,0,71,71,93,,,1.ja,3.223,None,None,None,None,None,polit,1.446,None,,['return'],[1.1333574556847452],2017_Jan_25_1425,59.9932452199,famFaceGrey,001,4,
16,./greyInner/BastianSchweinsteiger1_1_cut.png,0,72,72,15,,,1.ja,14.052,None,None,None,None,None,sport,1.273,None,,['return'],[2.4327838121062086],2017_Jan_25_1425,59.9932452199,famFaceGrey,001,4,
172,./greyInner/SahraWagenknecht2_2_cut.png,0,73,73,171,,,1.ja,1.924,None,None,None,None,None,polit,1.322,None,,['return'],[1.1836451756425959],2017_Jan_25_1425,59.9932452199,famFaceGrey,001,4,
75,./greyInner/GuentherJauch9_1_cut.png,0,74,74,74,,,1.ja,1.237,None,None,None,host,2.571,None,None,None,Günther Jauch,"['lshift', 'g', u'\xfc', 'n', 't', 'h', 'e', 'r', 'space', 'lshift', 'j', 'a', 'u', 'c', 'h', 'return']","[0.9998967101564631, 1.099813917891879, 1.4663530119760253, 1.749399266900582, 2.049275351164397, 2.166080127899477, 2.332686328307318, 2.532604787069431, 2.6327532742398034, 2.899251982638816, 3.0157594000993413, 3.1824749850929948, 3.2656470483343583, 3.415553333648859, 3.5323250704677776, 4.581874043487915]",2017_Jan_25_1425,59.9932452199,famFaceGrey,001,4,
21,./greyInner/BenedictCumberbatch16_1_cut.png,0,75,75,20,,,1.ja,1.543,None,dummy,1.029,None,None,None,None,None,,['return'],[1.116765321297862],2017_Jan_25_1425,59.9932452199,famFaceGrey,001,4,
149,./greyInner/MilaKunis5_2_cut.png,0,76,76,148,,,1.ja,1.177,None,act,0.911,None,None,None,None,None,Mila Kunis,"['lshift', 'm', 'i', 'l', 'a', 'space', 'lshift', 'k', 'u', 'n', 'i', 's', 'return']","[1.149899869797082, 1.2508377865051443, 1.4330503768942435, 1.6329059635754675, 1.7491179464159359, 1.8996051569229166, 2.249201508544502, 2.382597457337397, 2.6157101289172715, 2.832415433040296, 3.0155460841124295, 3.0990257714584004, 4.11544596994645]",2017_Jan_25_1425,59.9932452199,famFaceGrey,001,4,
5,./greyInner/AlysonHannigan(Lily)8_3_cut.png,0,77,77,4,,,1.ja,1.547,None,act,0.716,None,None,None,None,None,,['return'],[0.7835975083398807],2017_Jan_25_1425,59.9932452199,famFaceGrey,001,4,
144,./greyInner/MariskaHargitay(Liv)6_5_cut.png,0,78,78,143,,,1.ja,1.579,None,act,0.577,None,None,None,None,None,,['return'],[0.700386631215224],2017_Jan_25_1425,59.9932452199,famFaceGrey,001,4,
179,./greyInner/Shakira7_1_cut.png,0,79,79,178,,,1.ja,1.512,None,None,None,music,2.079,None,None,None,Shakira,"['lshift', 's', 'h', 'a', 'k', 'i', 'r', 'a', 'return']","[0.8334717481411644, 0.9833340871555265, 1.149980063775729, 1.5665207457022916, 1.8830351560791314, 2.066236698625289, 2.299515852904733, 2.5328941269435745, 3.4324473181695794]",2017_Jan_25_1425,59.9932452199,famFaceGrey,001,4,
1,./greyInner/AlysonHannigan(Lily)1_1_cut.png,0,80,80,0,,,1.ja,1.462,None,act,2.127,None,None,None,None,None,,['return'],[1.4665717811476497],2017_Jan_25_1425,59.9932452199,famFaceGrey,001,4,
76,./greyInner/GeorgeClooney11_1_cut.png,0,81,81,75,,,1.ja,1.397,None,act,0.697,None,None,None,None,None,George Clooney,"['lshift', 'g', 'e', 'o', 'r', 'g', 'e', 'space', 'lshift', 'c', 'backspace', 'lshift', 'c', 'l', 'o', 'o', 'n', 'e', 'y', 'return']","[1.2333558197242382, 1.3498805590861593, 1.7330643948043871, 1.8329373354608833, 2.066355385715724, 2.3995138961727207, 2.532848255988938, 2.765911207301542, 3.29913028025112, 3.832372769844369, 4.6153004980697006, 5.3481656910262245, 5.514864595672407, 5.698127406420099, 5.86469928380393, 6.164478172962845, 6.430966295753024, 6.631075616187445, 6.864318202013237, 8.113886036655458]",2017_Jan_25_1425,59.9932452199,famFaceGrey,001,4,
38,./greyInner/CarenMiosga2_11_cut.png,0,82,82,37,,,2.nein,4.255,None,dummy,9.956,None,None,None,None,None,,['return'],[1.3168114488798892],2017_Jan_25_1425,59.9932452199,famFaceGrey,001,4,
54,./greyInner/DannFlorek(DonaldDonCragen)5_1_cut.png,0,83,83,53,,,1.ja,2.894,None,None,None,None,None,polit,2.01,None,,['return'],[1.050295739354624],2017_Jan_25_1425,59.9932452199,famFaceGrey,001,4,
58,./greyInner/ElvisPresley4_10_cut.png,0,84,84,57,,,1.ja,1.332,None,None,None,music,1.398,None,None,None,Elvis Presley,"['lshift', 'e', 'l', 'v', 'i', 's', 'space', 'lshift', 'p', 'r', 'e', 's', 'l', 'e', 'x', 'backspace', 'y', 'return']","[0.7004527110548224, 0.916947265402996, 1.5835523430941976, 2.682939308233472, 2.899507961818017, 2.999587482168863, 3.149308679781825, 3.3160544177117117, 3.4493457935532206, 3.6658945590315852, 3.8657831856326084, 4.06566283050779, 4.265648331434932, 4.48231353857409, 4.715545538794686, 5.615165451406938, 5.748444637767534, 6.5146769417624455]",2017_Jan_25_1425,59.9932452199,famFaceGrey,001,4,
71,./greyInner/GuentherJauch2_1_cut.png,0,85,85,70,,,1.ja,1.328,None,None,None,host,1.063,None,None,None,Günther Jauch,"['lshift', 'g', u'\xfc', 'n', 't', 'h', 'e', 'r', 'space', 'lshift', 'j', 'a', 'u', 'c', 'h', 'return']","[0.8836218552351056, 0.9835320058991783, 1.3668855320756848, 1.7164812421469833, 1.9331599218712654, 2.049814575479104, 2.183091837181564, 2.3830433358634764, 2.5162586878141155, 2.6992809166222287, 2.8662091760525072, 2.9827602190380276, 3.0993593784151017, 3.2660018264978135, 3.3823469313465466, 4.965092843776802]",2017_Jan_25_1425,59.9932452199,famFaceGrey,001,4,
112,./greyInner/JoshRadnor(Ted)3_1_cut.png,0,86,86,111,,,1.ja,1.53,None,act,1.298,None,None,None,None,None,,['return'],[0.8501854565947724],2017_Jan_25_1425,59.9932452199,famFaceGrey,001,4,
202,./greyInner/Usher11_1_cut.png,0,87,87,201,,,1.ja,1.761,None,None,None,music,1.361,None,None,None,Usher,"['lshift', 'u', 's', 'h', 'e', 'r', 'return']","[0.6832296104403213, 0.8167442463236512, 0.9999929429286567, 1.1166931467196264, 1.2665567688381998, 1.4494538950384595, 2.7659124904057535]",2017_Jan_25_1425,59.9932452199,famFaceGrey,001,4,
216,./greyInner/notfamousface14_6_cut.png,0,88,88,215,,,1.ja,6.809,None,None,None,music,4.244,None,None,None,,['return'],[1.8501264338301553],2017_Jan_25_1425,59.9932452199,famFaceGrey,001,4,
105,./greyInner/JimParsons(SheldonCooper)9_3_cut.png,0,89,89,104,,,1.ja,1.211,None,act,0.622,None,None,None,None,None,,['return'],[0.7003308162056783],2017_Jan_25_1425,59.9932452199,famFaceGrey,001,4,
184,./greyInner/SigmarGabriel4_5_cut.png,0,90,90,183,,,1.ja,1.545,None,None,None,None,None,polit,1.002,None,,['return'],[13.145339077789686],2017_Jan_25_1425,59.9932452199,famFaceGrey,001,4,
57,./greyInner/ElvisPresley2_1_cut.png,0,91,91,56,,,1.ja,1.248,None,None,None,music,1.401,None,None,None,Elvis Presley,"['lshift', 'e', 'l', 'v', 'i', 's', 'space', 'lshift', 'p', 'r', 'e', 's', 'l', 'e', 'y', 'return']","[0.8837007661095413, 1.1168862538215762, 1.300134308876295, 1.6833219939035189, 1.9164779702296073, 2.0166505155975756, 2.183082213905436, 2.3164050257873896, 2.4330494145651755, 2.649556479176681, 3.399249576814327, 3.599325536553806, 4.232384831018862, 4.382165692950366, 4.632086381105182, 6.16489261544848]",2017_Jan_25_1425,59.9932452199,famFaceGrey,001,4,
187,./greyInner/TaylorSwift2_1_cut.png,0,92,92,186,,,1.ja,1.244,None,None,None,music,1.227,None,None,None,Taylor Swift,"['lshift', 't', 'a', 'y', 'l', 'o', 'r', 'space', 'lshift', 's', 'w', 'i', 'f', 't', 'return']","[0.9667159699238255, 1.09989892350859, 1.316368778108881, 1.5329124111740384, 1.6996530166870798, 1.8829713216691744, 2.0827768673079845, 2.266125966776599, 2.9990642966440646, 3.149055587578914, 3.41571885401936, 4.065390491752623, 4.2653516137106635, 4.3982923814764945, 5.314944853806082]",2017_Jan_25_1425,59.9932452199,famFaceGrey,001,4,
55,./greyInner/DannFlorek(DonaldDonCragen)8_1_cut.png,0,93,93,54,,,1.ja,2.065,None,None,None,None,None,polit,1.417,None,,['return'],[1.1665356297016842],2017_Jan_25_1425,59.9932452199,famFaceGrey,001,4,
203,./greyInner/Usher2_1_cut.png,0,94,94,202,,,1.ja,1.345,None,None,None,music,2.161,None,None,None,Usher,"['lshift', 'u', 'a', 'h', 'backspace', 'backspace', 's', 'h', 'e', 'r', 'return']","[0.866814800985594, 1.0169834810003522, 1.2168660128591, 1.3166664581622172, 1.9331891124784306, 2.049710323306499, 2.249853966761293, 2.8826787740326836, 2.966061266273755, 3.1494055541043053, 3.9158412300348573]",2017_Jan_25_1425,59.9932452199,famFaceGrey,001,4,
33,./greyInner/BritneySpears5_1_cut.png,0,95,95,32,,,1.ja,1.246,None,None,None,music,0.962,None,None,None,Britney Spears,"['lshift', 'b', 'r', 'i', 't', 'n', 'e', 'y', 'space', 'lshift', 's', 'p', 'e', 'a', 'r', 's', 'return']","[0.8334755974537984, 0.9001700433145743, 1.2002783693424135, 1.3832916164246853, 2.5827658005400735, 2.8660122196379234, 2.9826546837612113, 3.199104971030465, 3.382378367383353, 3.832261781375564, 3.998927646105585, 4.232119549335039, 4.648463916397304, 4.881927837606781, 5.115198972489452, 5.398233037929458, 6.264665474020148]",2017_Jan_25_1425,59.9932452199,famFaceGrey,001,4,
115,./greyInner/JoshRadnor(Ted)9_1_cut.png,0,96,96,114,,,1.ja,1.895,None,act,0.829,None,None,None,None,None,,['return'],[1.1001253913054825],2017_Jan_25_1425,59.9932452199,famFaceGrey,001,4,
44,./greyInner/CobieSmulders(Robin)4_7_cut.png,0,97,97,43,,,1.ja,1.433,None,dummy,0.857,None,None,None,None,None,,['return'],[1.1499313058375265],2017_Jan_25_1425,59.9932452199,famFaceGrey,001,4,
89,./greyInner/Ice-T(OdafinFinTutuola)6_1_cut.png,0,98,98,88,,,1.ja,1.337,None,None,None,music,1.87,None,None,None,Ice Cube,"['lshift', 'i', 'c', 'e', 'space', 'lshift', 'c', 'u', 'b', 'e', 'return']","[0.8502887464419473, 0.9167156651892583, 1.6498243270689272, 1.7997806534258416, 2.066324591225566, 2.3829256111021095, 2.499490126676392, 2.9159894285076007, 3.149366740221012, 3.2490911616296216, 4.3154860027825634]",2017_Jan_25_1425,59.9932452199,famFaceGrey,001,4,
192,./greyInner/TomCruise4_1_cut.png,0,99,99,191,,,1.ja,1.707,None,dummy,1.008,None,None,None,None,None,Tom Cruise,"['lshift', 't', 'o', 'm', 'space', 'lshift', 'c', 'r', 'i', 'u', 's', 'backspace', 'backspace', 'backspace', 'u', 'i', 's', 'e', 'return']","[2.4493775503688084, 2.5662759936749353, 2.9659528440170106, 3.2824739906864124, 3.582459138760896, 3.8489042775800044, 4.032398688541434, 4.765138137339818, 4.948429497144389, 5.131565922180016, 5.265014157444966, 5.664828941429732, 5.814968430837325, 5.9313850687176455, 6.564479648532142, 6.8810274196075625, 6.997612144063169, 7.214309108017915, 8.2804989733595]",2017_Jan_25_1425,59.9932452199,famFaceGrey,001,4,
142,./greyInner/MariskaHargitay(Liv)14_1_cut.png,0,100,100,141,,,1.ja,1.395,None,act,0.878,None,None,None,None,None,,['return'],[1.2168894295064092],2017_Jan_25_1425,59.9932452199,famFaceGrey,001,4,
210,./greyInner/WillSmith6_1_cut.png,0,101,101,209,,,1.ja,1.729,None,act,4.678,None,None,None,None,None,Will Smith,"['lshift', 'w', 'i', 'l', 'l', 'space', 'lshift', 's', 'm', 'i', 't', 'h', 'return']","[0.6002557867177529, 0.8336318153269531, 1.083276956967893, 1.316077834351745, 1.4493342456225946, 1.7164363335177768, 1.8330499278090429, 1.966357984001661, 2.1163948251160036, 2.3495466313579527, 2.5161236411549908, 2.6328257695968205, 3.7655974884546595]",2017_Jan_25_1425,59.9932452199,famFaceGrey,001,4,
196,./greyInner/UrsulavonderLeyen1_1_cut.png,0,102,102,195,,,1.ja,1.563,None,None,None,None,None,polit,1.331,None,Vonderline,"['lshift', 'v', 'o', 'n', 'd', 'e', 'r', 'l', 'i', 'b', 'e', 'backspace', 'backspace', 'n', 'e', 'return']","[1.016646987063723, 1.1165885737682402, 1.3998404460580787, 1.632996422387805, 1.8995557574307895, 2.04950630982421, 2.1162796665594215, 3.1657805231916427, 3.365577407879755, 3.648930324583489, 3.832112620573753, 4.232001183019747, 4.365291275760683, 5.1815813033827, 5.297910369434248, 6.980736122994131]",2017_Jan_25_1425,59.9932452199,famFaceGrey,001,4,
140,./greyInner/LisaEdelstein(DrLisaCuddy)9_1_cut.png,0,103,103,139,,,2.nein,6.045,None,dummy,3.412,None,None,None,None,None,,['return'],[1.083553145032056],2017_Jan_25_1425,59.9932452199,famFaceGrey,001,4,
46,./greyInner/CristinMilioti(Tracy_Mutter)10_1_cut.png,0,104,104,45,,,1.ja,1.359,None,act,0.728,None,None,None,None,None,,['return'],[0.8498229798096872],2017_Jan_25_1425,59.9932452199,famFaceGrey,001,4,
124,./greyInner/KaleyCuoco(Penny)5_2_cut.png,0,105,105,123,,,1.ja,1.417,None,act,0.669,None,None,None,None,None,,['return'],[1.0666341399883095],2017_Jan_25_1425,59.9932452199,famFaceGrey,001,4,
180,./greyInner/Shakira9_1_cut.png,0,106,106,179,,,1.ja,1.476,None,None,None,music,1.027,None,None,None,Shakira,"['lshift', 's', 'h', 'a', 'k', 'i', 'r', 'a', 'return']","[0.9500086769912741, 1.1666979423207522, 1.333184814084234, 1.5663504136900883, 1.8162733472745458, 1.9997340767658898, 2.199596720514819, 2.4328405894448224, 3.0824028425886354]",2017_Jan_25_1425,59.9932452199,famFaceGrey,001,4,
35,./greyInner/BritneySpears8_5_cut.png,0,107,107,34,,,1.ja,1.47,None,None,None,music,1.703,None,None,None,Britney Spears,"['lshift', 'b', 'r', 'i', 't', 'n', 'e', 'y', 'space', 'lshift', 's', 'p', 'e', 'a', 'r', 's', 'return']","[0.9500311313058774, 1.0830463190832234, 1.3499286754777131, 1.4665243063136586, 1.6998515769846563, 1.9329677770983835, 2.0326793674685177, 2.2660675855622685, 2.3994526279748243, 2.6326952138006163, 2.7657880293481867, 2.8826678676523443, 3.0658168029513035, 3.265663087127905, 3.482513702747383, 3.6989858027809532, 4.315351597673725]",2017_Jan_25_1425,59.9932452199,famFaceGrey,001,4,
39,./greyInner/CarenMiosga6_2_cut.png,0,108,108,38,,,2.nein,6.827,None,None,None,None,None,sport,6.876,None,,['return'],[1.466586536840623],2017_Jan_25_1425,59.9932452199,famFaceGrey,001,4,
99,./greyInner/JasonSegel(Marshall)7_1_cut.png,0,109,109,98,,,1.ja,1.394,None,act,0.861,None,None,None,None,None,,['return'],[0.7501566188402649],2017_Jan_25_1425,59.9932452199,famFaceGrey,001,4,
52,./greyInner/DannFlorek(DonaldDonCragen)10_1_cut.png,0,110,110,51,,,1.ja,1.42,None,None,None,None,None,polit,1.403,None,,['return'],[0.8673646109091351],2017_Jan_25_1425,59.9932452199,famFaceGrey,001,4,
41,./greyInner/CobieSmulders(Robin)12_1_cut.png,0,111,111,40,,,1.ja,1.362,None,dummy,0.595,None,None,None,None,None,,['return'],[0.9171705254375411],2017_Jan_25_1425,59.9932452199,famFaceGrey,001,4,
126,./greyInner/KatjaBurkard1_1_cut.png,0,112,112,125,,,1.ja,1.51,None,None,None,host,1.476,None,None,None,Burkardt,"['lshift', 'b', 'u', 'i', 'backspace', 'r', 'k', 'k', 'a', 'r', 'd', 't', 'left', 'left', 'backspace', 'backspace', 'backspace', 'backspace', 'backspace', 'a', 'r', 'd', 't', 'return']","[0.8665251403326693, 0.9332837413785455, 1.2334026530115807, 1.9662232581140415, 2.4157676119612006, 2.5329204305708117, 2.8491660307299753, 2.9658213258881005, 3.2154382392473053, 3.4323199701320846, 3.6154522250799346, 6.364460466134915, 6.547580210823071, 7.130724206170271, 7.280679249422974, 7.413933736035688, 7.54731075905147, 7.68073686077696, 8.396773507502076, 8.646720499280491, 8.86352588549562, 9.396489620816283, 13.71140624634063]",2017_Jan_25_1425,59.9932452199,famFaceGrey,001,4,
6,./greyInner/AngelaMerkel1_1_cut.png,0,113,113,5,,,1.ja,1.493,None,None,None,None,None,polit,1.143,None,Angela Merkel,"['lshift', 'a', 'n', 'g', 'e', 'l', 'a', 'space', 'lshift', 'm', 'e', 'r', 'k', 'e', 'l', 'return']","[0.6837867982103489, 0.8005068901074992, 0.9171586567317718, 1.1837083684986283, 1.3667135961841268, 1.5501143405781477, 1.7000110026165203, 1.8833466294963728, 2.0334152274263033, 2.1332506373037177, 2.3331437547676614, 2.516564387267863, 2.5996767861870467, 2.733118285159435, 2.832985451852437, 3.6325957732660754]",2017_Jan_25_1425,59.9932452199,famFaceGrey,001,4,
91,./greyInner/JanHofer1_3_cut.png,0,114,114,90,,,1.ja,1.996,None,None,None,None,None,polit,0.913,None,,['return'],[1.5499337437322538],2017_Jan_25_1425,59.9932452199,famFaceGrey,001,4,
153,./greyInner/NeilPatrickHarris(Barney)13_4_cut.png,0,115,115,152,,,1.ja,1.806,None,dummy,0.625,None,None,None,None,None,,['return'],[0.7837543677669601],2017_Jan_25_1425,59.9932452199,famFaceGrey,001,4,
207,./greyInner/WillSmith14_1_cut.png,0,116,116,206,,,1.ja,1.591,None,dummy,1.159,None,None,None,None,None,Will Smith,"['lshift', 'w', 'i', 'l', 'l', 'space', 'lshift', 's', 'm', 'i', 't', 'h', 'return']","[0.8667888181335002, 1.0500994244939648, 1.2832717603923811, 1.5162824252292921, 1.6331959450071736, 1.866488251100236, 1.9996327115732129, 2.099748158823786, 2.2496550856922113, 2.432768735638092, 2.566120096576924, 2.6826579877524637, 3.5489820015827718]",2017_Jan_25_1425,59.9932452199,famFaceGrey,001,4,
19,./greyInner/BastianSchweinsteiger3_1_cut.png,0,117,117,18,,,1.ja,1.629,None,None,None,None,None,sport,0.995,None,,['return'],[0.9334406007983489],2017_Jan_25_1425,59.9932452199,famFaceGrey,001,4,
23,./greyInner/BenedictCumberbatch3_9_cut.png,0,118,118,22,,,1.ja,1.896,None,dummy,1.189,None,None,None,None,None,,['return'],[1.016885644348804],2017_Jan_25_1425,59.9932452199,famFaceGrey,001,4,
101,./greyInner/JimParsons(SheldonCooper)1_1_cut.png,0,119,119,100,,,1.ja,1.73,None,dummy,1.013,None,None,None,None,None,,['return'],[0.9001171152885945],2017_Jan_25_1425,59.9932452199,famFaceGrey,001,4,
110,./greyInner/JoachimLoew8_1_cut.png,0,120,120,109,,,1.ja,1.324,None,None,None,None,None,sport,1.525,None,Jogi Löw,"['lshift', 'j', 'o', 'g', 'i', 'space', 'lshift', 'l', u'\xf6', 'w', 'return']","[0.9999977545667207, 1.1332291453145444, 1.3330045380171214, 1.5164501910367107, 1.6496687507460592, 1.8658730028873833, 2.065904374772799, 2.2329176398197887, 2.4826320690590364, 2.8157803146859806, 3.9822617332611117]",2017_Jan_25_1425,59.9932452199,famFaceGrey,001,4,
193,./greyInner/TomCruise5_1_cut.png,0,121,121,192,,,1.ja,1.695,None,act,1.011,None,None,None,None,None,Tom Cruise,"['lshift', 't', 'o', 'm', 'space', 'lshift', 'c', 'e', 'backspace', 'r', 'u', 'i', 's', 'e', 'return']","[1.1002309265859367, 1.1833840640465496, 1.500155095156515, 1.7501078609057004, 2.033212176269444, 2.216457344344235, 2.366318400254386, 2.699316843529232, 3.4826400884594477, 3.615853515755589, 3.799247844628553, 3.9656936570754624, 4.065764837250754, 4.248968625230191, 4.798715998156695]",2017_Jan_25_1425,59.9932452199,famFaceGrey,001,4,
135,./greyInner/LeonardoDiCaprio7_1_cut.png,0,122,122,134,,,1.ja,1.453,None,act,0.687,None,None,None,None,None,Leonardo Di Caprio,"['lshift', 'l', 'e', 'o', 'n', 'a', 'r', 'd', 'o', 'space', 'lshift', 'd', 'i', 'space', 'lshift', 'c', 'a', 'p', 'r', 'i', 'o', 'return']","[0.8831012359150918, 0.9667034596641315, 1.1832512628134282, 1.299859724687849, 1.5497974139689177, 1.916282617698016, 2.149372514184506, 2.332807260827394, 2.9824246874268283, 3.7152225174431805, 4.148796079858585, 4.348621834382357, 4.448640086531668, 4.698327249818249, 4.848303785056487, 4.931359085865552, 5.164862462512247, 5.33146770059102, 5.864722058893676, 6.314508598556131, 6.497789372755506, 8.780155903510604]",2017_Jan_25_1425,59.9932452199,famFaceGrey,001,4,
60,./greyInner/ElvisPresley6_1_cut.png,0,123,123,59,,,1.ja,1.794,None,None,None,music,0.595,None,None,None,Elvis Presley,"['lshift', 'e', 'l', 'v', 'i', 's', 'space', 'lshift', 'p', 'r', 'e', 's', 'l', 'e', 'y', 'return']","[0.9338467031120672, 1.150527949044772, 1.3170302180551516, 1.6835532733421132, 1.9335047559834493, 2.0501029530314554, 2.1666722802438017, 2.299955636688537, 2.451297073464957, 2.666517505866068, 2.882937319423945, 3.083043111320876, 3.316070135730115, 3.565998522506561, 3.849303964372666, 4.94880929583087]",2017_Jan_25_1425,59.9932452199,famFaceGrey,001,4,
50,./greyInner/CristinMilioti(Tracy_Mutter)9_1_cut.png,0,124,124,49,,,1.ja,1.785,None,act,1.269,None,None,None,None,None,,['return'],[1.333199248998426],2017_Jan_25_1425,59.9932452199,famFaceGrey,001,4,
3,./greyInner/AlysonHannigan(Lily)14_2_cut.png,0,125,125,2,,,1.ja,1.895,None,act,0.779,None,None,None,None,None,,['return'],[0.8833225713024149],2017_Jan_25_1425,59.9932452199,famFaceGrey,001,4,
90,./greyInner/Ice-T(OdafinFinTutuola)7_1_cut.png,0,126,126,89,,,1.ja,1.342,None,None,None,music,0.909,None,None,None,Ice Cube,"['lshift', 'i', 'c', 'e', 'space', 'lshift', 'c', 'u', 'b', 'e', 'return']","[0.9166563216458599, 1.0499098459295055, 1.383272049097286, 1.533026928176696, 1.6497588887832535, 2.0326094383199234, 2.266147458765772, 2.5493063060384884, 2.7992395044529985, 2.8990717065717035, 3.9322479559377825]",2017_Jan_25_1425,59.9932452199,famFaceGrey,001,4,
67,./greyInner/EmmaWatson(HermioneGranger)16_1_cut.png,0,127,127,66,,,1.ja,1.682,None,act,1.08,None,None,None,None,None,Emma Watson,"['lshift', 'e', 'm', 'm', 'a', 'space', 'lshift', 'w', 'a', 't', 's', 'o', 'n', 'return']","[0.8497828828185447, 1.033241046101466, 1.2332259054783208, 1.3998070853594982, 1.6163924192951526, 1.81621849459043, 2.016032701179938, 2.149537713783502, 2.365996020453167, 2.465974817165261, 2.6326111705056974, 2.8824760436509678, 3.1158052389764634, 4.098585987670958]",2017_Jan_25_1425,59.9932452199,famFaceGrey,001,4,
170,./greyInner/RobertSeanLeonard(Wilson)8_1_cut.png,0,128,128,169,,,1.ja,1.628,None,dummy,1.279,None,None,None,None,None,,['return'],[1.299903350212844],2017_Jan_25_1425,59.9932452199,famFaceGrey,001,4,
195,./greyInner/TomCruise7_1_cut.png,0,129,129,194,,,1.ja,2.13,None,act,0.814,None,None,None,None,None,Tom Cruise,"['lshift', 't', 'o', 'm', 'space', 'lshift', 'c', 'r', 'u', 'i', 's', 'e', 'return']","[0.9833119536160666, 1.0832718245510478, 1.516218590822973, 1.7495776183095586, 1.9329761172703002, 2.082853532752779, 2.249533832396992, 3.165868736570701, 3.2824518571469525, 3.532262519162032, 3.6322547884628875, 3.832180304292706, 4.448648747482366]",2017_Jan_25_1425,59.9932452199,famFaceGrey,001,4,
27,./greyInner/Beyonce11_2_cut.png,0,130,130,26,,,1.ja,1.559,None,None,None,music,0.993,None,None,None,Beyonce,"['lshift', 'b', 'e', 'y', 'o', 'n', 'c', 'e', 'return']","[0.850133811673004, 1.0166902918135747, 1.2667004764480225, 1.533184429150424, 1.8163503334944835, 2.1493924022943247, 2.3161544997965393, 2.4994185936484428, 3.115770915952453]",2017_Jan_25_1425,59.9932452199,famFaceGrey,001,4,
200,./greyInner/UrsulavonderLeyen8_2_cut.png,0,131,131,199,,,1.ja,1.591,None,None,None,None,None,polit,1.025,None,Vonderline,"['lshift', 'v', 'o', 'n', 'd', 'e', 'r', 'l', 'i', 'e', 'backspace', 'n', 'e', 'return']","[0.8334881077134924, 0.9330101195155294, 1.2165388214234554, 1.4330365835303382, 1.6165002000016102, 1.7496481890120776, 1.8497052550446824, 1.9495150028487842, 2.149453670492221, 2.449434327707422, 3.099209896834509, 3.932092700390058, 4.048649196567567, 5.298244297166093]",2017_Jan_25_1425,59.9932452199,famFaceGrey,001,4,
37,./greyInner/CarenMiosga13_1_cut.png,0,132,132,36,,,1.ja,8.241,None,act,5.725,None,None,None,None,None,,['return'],[1.399854239421984],2017_Jan_25_1425,59.9932452199,famFaceGrey,001,4,
215,./greyInner/notfamousface13_1_cut.png,0,133,133,214,,,2.nein,4.028,None,None,None,None,None,sport,30.336,None,,['return'],[1.5497441651677946],2017_Jan_25_1425,59.9932452199,famFaceGrey,001,4,
69,./greyInner/EmmaWatson(HermioneGranger)4_1_cut.png,0,134,134,68,,,1.ja,1.743,None,act,1.56,None,None,None,None,None,Emma Watson,"['lshift', 'e', 'm', 'm', 'a', 'space', 'lshift', 'w', 'a', 't', 's', 'o', 'n', 'return']","[0.9663852499543282, 1.1833365892089205, 1.3831674761458999, 1.5330525902500085, 1.6997312860112288, 1.8495958704588702, 2.0828070202442177, 2.249380501507403, 2.482699432002846, 2.616102758642228, 2.982204955922498, 3.08243427862908, 3.315793947662314, 4.731778404144279]",2017_Jan_25_1425,59.9932452199,famFaceGrey,001,4,
138,./greyInner/LisaEdelstein(DrLisaCuddy)2_2_cut.png,0,135,135,137,,,1.ja,2.623,None,act,0.725,None,None,None,None,None,,['return'],[1.100079520350846],2017_Jan_25_1425,59.9932452199,famFaceGrey,001,4,
4,./greyInner/AlysonHannigan(Lily)5_4_cut.png,0,136,136,3,,,1.ja,1.234,None,act,0.552,None,None,None,None,None,,['return'],[0.8163185766788956],2017_Jan_25_1425,59.9932452199,famFaceGrey,001,4,
133,./greyInner/LeonardoDiCaprio3_1_cut.png,0,137,137,132,,,1.ja,1.198,None,act,0.747,None,None,None,None,None,Leonardo Di Caprio,"['lshift', 'l', 'e', 'o', 'n', 'a', 'r', 'd', 'o', 'space', 'lshift', 'd', 'i', 'space', 'lshift', 'c', 'a', 'p', 'r', 'i', 'o', 'return']","[1.1666578453296097, 1.4162564744619885, 1.6329749304022698, 1.7831545167973673, 2.0330925268535793, 2.1495345060284308, 2.365962980537006, 2.5674513166413817, 2.7494788193289423, 3.0325930787475954, 3.232631828479498, 3.415791990930302, 3.5156597991772287, 3.7822813647471776, 3.948937926972576, 4.015641996113118, 4.265519379518082, 4.481936947646318, 5.098367539274477, 5.281706373913039, 5.448049217291555, 6.331093996646814]",2017_Jan_25_1425,59.9932452199,famFaceGrey,001,4,
100,./greyInner/JasonSegel(Marshall)9_1_cut.png,0,138,138,99,,,1.ja,1.445,None,act,0.562,None,None,None,None,None,,['return'],[0.833561244624434],2017_Jan_25_1425,59.9932452199,famFaceGrey,001,4,
173,./greyInner/SahraWagenknecht5_1_cut.png,0,139,139,172,,,1.ja,1.444,None,None,None,None,None,polit,0.795,None,,['return'],[0.8500192946703464],2017_Jan_25_1425,59.9932452199,famFaceGrey,001,4,
106,./greyInner/JoachimLoew1_1_cut.png,0,140,140,105,,,1.ja,3.402,None,None,None,None,None,sport,1.187,None,Jogi Löw,"['lshift', 'j', 'o', 'g', 'i', 'space', 'lshift', 'l', u'\xf6', 'w', 'return']","[0.9500269612144621, 1.0666556319738447, 1.2498998377195676, 1.51645243646999, 1.632696817676333, 1.8829443764916505, 2.06618152516603, 2.249291325802915, 2.4828078542632284, 2.749279617481079, 3.5656344418384833]",2017_Jan_25_1425,59.9932452199,famFaceGrey,001,4,
42,./greyInner/CobieSmulders(Robin)2_1_cut.png,0,141,141,41,,,1.ja,1.394,None,act,0.595,None,None,None,None,None,,['return'],[0.6337037332887121],2017_Jan_25_1425,59.9932452199,famFaceGrey,001,4,
219,./greyInner/notfamousface4_2_cut.png,0,142,142,218,,,2.nein,5.367,None,None,None,host,10.434,None,None,None,,['return'],[1.3001384789640724],2017_Jan_25_1425,59.9932452199,famFaceGrey,001,4,
221,./greyInner/notfamousface6_8_cut.png,0,143,143,220,,,2.nein,4.71,None,None,None,None,None,sport,4.598,None,,['return'],[0.9837244714508415],2017_Jan_25_1425,59.9932452199,famFaceGrey,001,4,
147,./greyInner/MilaKunis10_1_cut.png,0,144,144,146,,,1.ja,1.363,None,dummy,0.865,None,None,None,None,None,Mila Kunis,"['lshift', 'm', 'i', 'l', 'a', 'space', 'lshift', 'k', 'n', 'u', 'i', 's', 'backspace', 'backspace', 'backspace', 'backspace', 'u', 'n', 'i', 's', 'return']","[0.9000994726120553, 1.0502264517599542, 1.2499963912705425, 1.4499398705556814, 1.566267011949094, 1.7164899030976812, 1.8830803854834812, 1.9830354447767604, 2.1662770843140606, 2.366080063744448, 2.549345440700563, 2.6659612804214703, 3.149218862523412, 3.299104297402664, 3.565685445209965, 3.6990140310590505, 4.548592579620163, 4.764832758664852, 4.9313956543192035, 5.047959207568056, 5.747489367080561]",2017_Jan_25_1425,59.9932452199,famFaceGrey,001,4,
118,./greyInner/JudithRakers4_3_cut.png,0,145,145,117,,,1.ja,3.529,None,dummy,4.495,None,None,None,None,None,,['return'],[1.3833082967757946],2017_Jan_25_1425,59.9932452199,famFaceGrey,001,4,
169,./greyInner/RobertSeanLeonard(Wilson)2_6_cut.png,0,146,146,168,,,1.ja,1.314,None,act,0.75,None,None,None,None,None,,['return'],[0.5835273225711717],2017_Jan_25_1425,59.9932452199,famFaceGrey,001,4,
209,./greyInner/WillSmith5_1_cut.png,0,147,147,208,,,1.ja,0.997,None,act,1.929,None,None,None,None,None,Will Smith,"['lshift', 'w', 'i', 'l', 'l', 'space', 'lshift', 's', 'm', 'i', 't', 'h', 'return']","[0.8333562688130769, 1.016768881912867, 1.4496579085207486, 1.7498791476718907, 1.866369243234658, 2.1162514382776862, 2.232797990403924, 2.3494080561576993, 2.549404463468818, 2.7325652674735466, 2.899276040829136, 3.049190345544048, 3.9486251704511233]",2017_Jan_25_1425,59.9932452199,famFaceGrey,001,4,
81,./greyInner/HughLaurie(DrHouse)2_1_cut.png,0,148,148,80,,,1.ja,1.351,None,dummy,0.667,None,None,None,None,None,,['return'],[1.366435483461828],2017_Jan_25_1425,59.9932452199,famFaceGrey,001,4,
150,./greyInner/MilaKunis7_3_cut.png,0,149,149,149,,,1.ja,5.072,None,act,0.893,None,None,None,None,None,Mila Kunis,"['lshift', 'm', 'i', 'l', 'a', 'space', 'lshift', 'k', 'n', 'u', 'backspace', 'backspace', 'u', 'n', 'i', 's', 'return']","[0.7501922249684867, 0.8501113573620387, 1.0665789665326884, 1.2663800213049399, 1.3497833639848977, 1.4995167510787724, 1.666112686656561, 1.7662393610662548, 1.966484690488869, 2.182776514455327, 2.8656202314668917, 2.9824394431198016, 3.515524752514466, 3.715526292238792, 3.882172910409281, 3.998618097342842, 4.715059242502321]",2017_Jan_25_1425,59.9932452199,famFaceGrey,001,4,
103,./greyInner/JimParsons(SheldonCooper)6_1_cut.png,0,150,150,102,,,1.ja,1.346,None,act,0.812,None,None,None,None,None,,['return'],[0.8501575490918185],2017_Jan_25_1425,59.9932452199,famFaceGrey,001,4,
95,./greyInner/JanHofer9_2_cut.png,0,151,151,94,,,1.ja,5.077,None,None,None,None,None,polit,1.478,None,,['return'],[0.6670240110397572],2017_Jan_25_1425,59.9932452199,famFaceGrey,001,4,
128,./greyInner/KatjaBurkard4_1_cut.png,0,152,152,127,,,1.ja,1.201,None,None,None,host,1.218,None,None,None,Burkhardt,"['lshift', 'b', 'u', 'r', 'k', 'h', 'a', 'r', 'd', 'z', 'backspace', 'backspace', 'backspace', 'backspace', 'backspace', 'h', 'a', 'r', 'd', 't', 'return']","[1.4162266423008987, 1.5497409574054473, 1.782968787541904, 2.3660457407204376, 2.465999196134362, 3.7653302821127, 3.865237866571988, 4.265134769189899, 4.415162949353544, 4.56494637749347, 5.498086732033698, 6.331230326413788, 6.481048719124374, 6.614289091598039, 6.7475907322696, 8.980047417095193, 9.096513133688859, 9.329883067555784, 9.529750843721558, 9.646348719990783, 11.012330305529758]",2017_Jan_25_1425,59.9932452199,famFaceGrey,001,4,
66,./greyInner/EmmaWatson(HermioneGranger)11_2_cut.png,0,153,153,65,,,1.ja,1.611,None,dummy,0.629,None,None,None,None,None,Emma Watson,"['lshift', 'e', 'm', 'm', 'a', 'space', 'lshift', 'w', 't', 'backspace', 'a', 't', 's', 'o', 'n', 'return']","[0.9505742049332184, 1.183784392393136, 1.450377088131063, 1.6004145707993302, 1.7170005783591478, 1.850378242925217, 2.0001437076134607, 2.3334334154205862, 2.4999700074513385, 2.9831313567774487, 3.3495552923050127, 3.4995757738470274, 3.765893564625003, 3.9325619955598086, 4.649002819940506, 5.681525007210439]",2017_Jan_25_1425,59.9932452199,famFaceGrey,001,4,
181,./greyInner/SigmarGabriel1_2_cut.png,0,154,154,180,,,1.ja,2.188,None,None,None,None,None,polit,1.243,None,,['return'],[1.2169083552835218],2017_Jan_25_1425,59.9932452199,famFaceGrey,001,4,
146,./greyInner/MilaKunis1_3_cut.png,0,155,155,145,,,1.ja,1.835,None,act,0.832,None,None,None,None,None,Mila Kunis,"['lshift', 'm', 'i', 'l', 'a', 'space', 'lshift', 'k', 'n', 'backspace', 'u', 'n', 'i', 'o', 's', 'backspace', 'backspace', 's', 'return']","[0.816709281749354, 0.9002495957429346, 1.1167268281933502, 1.3000098478223663, 1.3998914494295605, 1.5498009425064083, 1.666124234590825, 1.7830377543650684, 1.9829206069989596, 2.4327838121098466, 2.6994226995811914, 2.882681981795031, 3.0994363646350394, 3.199176504062052, 4.398791188032192, 4.531993708944356, 4.815047662490542, 5.414783150670701]",2017_Jan_25_1425,59.9932452199,famFaceGrey,001,4,
56,./greyInner/ElvisPresley1_1_cut.png,0,156,156,55,,,1.ja,1.274,None,None,None,music,1.959,None,None,None,Elvis Presley,"['lshift', 'e', 'l', 'v', 'i', 's', 'space', 'lshift', 'p', 'r', 'e', 's', 'l', 'e', 'y', 'return']","[0.6998705027617689, 0.8666361287978361, 1.2664230052760104, 1.7993293217077735, 2.017193910003698, 2.1494530289419345, 2.2826391902817704, 2.432712599853403, 2.565859305756021, 2.8825337833150115, 3.0822084523788362, 3.2820043747415184, 3.5156046257143316, 3.7155644645717985, 4.048632836995239, 5.114835533371661]",2017_Jan_25_1425,59.9932452199,famFaceGrey,001,4,
223,./greyInner/notfamousface8_9_cut.png,0,157,157,222,,,2.nein,4.66,None,dummy,11.17,None,None,None,None,None,,['return'],[1.3165381477920164],2017_Jan_25_1425,59.9932452199,famFaceGrey,001,4,
48,./greyInner/CristinMilioti(Tracy_Mutter)4_2_cut.png,0,158,158,47,,,1.ja,1.427,None,dummy,1.662,None,None,None,None,None,,['return'],[1.2999424848785566],2017_Jan_25_1425,59.9932452199,famFaceGrey,001,4,
206,./greyInner/WillSmith1_1_cut.png,0,159,159,205,,,1.ja,2.179,None,dummy,1.547,None,None,None,None,None,Will Smith,"['lshift', 'w', 'i', 'l', 'l', 'space', 'lshift', 's', 'm', 'i', 't', 'h', 'return']","[0.9667429151013494, 1.133328265073942, 1.5830314029990404, 1.8661597765603801, 1.983031274688983, 2.2162055352455354, 2.3827292962414504, 2.4995170718539157, 2.6161701215823996, 2.8159824035174097, 2.9823582868120866, 3.099207972180011, 3.7822948373359395]",2017_Jan_25_1425,59.9932452199,famFaceGrey,001,4,
201,./greyInner/Usher1_1_cut.png,0,160,160,200,,,1.ja,1.734,None,None,None,music,1.334,None,None,None,Usher,"['lshift', 'u', 's', 'h', 'e', 'r', 'return']","[0.6668280169542413, 0.8499544979349594, 0.9999281461932696, 1.1332285037642578, 1.2664829903769714, 1.4831421027702163, 2.1995043370516214]",2017_Jan_25_1425,59.9932452199,famFaceGrey,001,4,
208,./greyInner/WillSmith4_1_cut.png,0,161,161,207,,,1.ja,1.941,None,act,1.175,None,None,None,None,None,Will Smith,"['lshift', 'w', 'i', 'l', 'l', 'space', 'lshift', 's', 'm', 'i', 't', 'h', 'return']","[0.5834801685123239, 0.7835817903214775, 0.9501899153838167, 1.183362251282233, 1.300003753080091, 1.5665383883788309, 1.733082679031213, 1.8497838451476127, 1.949648124857049, 2.1329869594992488, 2.2992611568297434, 2.399519990918634, 3.1824371335351316]",2017_Jan_25_1425,59.9932452199,famFaceGrey,001,4,
40,./greyInner/CarenMiosga9_1_cut.png,0,162,162,39,,,1.ja,9.159,None,act,2.778,None,None,None,None,None,,['return'],[1.3666718953172676],2017_Jan_25_1425,59.9932452199,famFaceGrey,001,4,
214,./greyInner/notfamousface1_2_cut.png,0,163,163,213,,,1.ja,8.133,None,act,4.387,None,None,None,None,None,,['return'],[1.4498073900977033],2017_Jan_25_1425,59.9932452199,famFaceGrey,001,4,
18,./greyInner/BastianSchweinsteiger14_1_cut.png,0,164,164,17,,,1.ja,1.48,None,None,None,None,None,sport,0.979,None,,['return'],[1.016724294058804],2017_Jan_25_1425,59.9932452199,famFaceGrey,001,4,
7,./greyInner/AngelaMerkel3_1_cut.png,0,165,165,6,,,1.ja,1.719,None,None,None,None,None,polit,1.322,None,Angela Merkel,"['lshift', 'a', 'n', 'g', 'e', 'l', 'a', 'space', 'lshift', 'm', 'comma', 'e', 'r', 'k', 'e', 'l', 'return']","[0.9001305878737185, 1.066444240641431, 1.1996416291440255, 1.4499321719304135, 1.866285199943377, 1.982878585349681, 2.199656705612142, 2.3661102166806813, 3.0823922569798015, 3.2325994301063474, 4.182072090537986, 4.381955584722164, 4.481712083725142, 4.6152270403836155, 4.715167985534208, 5.414880987322249]",2017_Jan_25_1425,59.9932452199,famFaceGrey,001,4,
114,./greyInner/JoshRadnor(Ted)7_1_cut.png,0,166,166,113,,,1.ja,1.591,None,dummy,1.159,None,None,None,None,None,,['return'],[0.8668164048685867],2017_Jan_25_1425,59.9932452199,famFaceGrey,001,4,
68,./greyInner/EmmaWatson(HermioneGranger)3_1_cut.png,0,167,167,67,,,1.ja,1.143,None,act,0.943,None,None,None,None,None,Emma Watson,"['lshift', 'e', 'm', 'm', 'a', 'space', 'lshift', 'w', 'a', 't', 's', 'o', 'n', 'return']","[0.8833389308747428, 1.21636175311869, 1.3831007547560148, 1.8162188153692114, 1.966274903039448, 2.416170827291353, 2.599271325423615, 2.782245117072307, 2.9991076013975544, 3.0657789513934404, 3.315718244550226, 3.4823084061608824, 3.765534295598627, 4.531881116596196]",2017_Jan_25_1425,59.9932452199,famFaceGrey,001,4,
109,./greyInner/JoachimLoew4_1_cut.png,0,168,168,108,,,1.ja,2.041,None,None,None,None,None,sport,1.659,None,Jogi Löw,"['lshift', 'j', 'o', 'g', 'i', 'space', 'lshift', 'l', u'\xf6', 'w', 'return']","[0.8334281226161693, 1.0331464172049891, 1.3663674789677316, 1.6330830318838707, 1.7165024133573752, 1.9829440236389928, 2.165972988743306, 2.2994228278876108, 2.5326391100898036, 2.7325315860034607, 3.715231499169022]",2017_Jan_25_1425,59.9932452199,famFaceGrey,001,4,
143,./greyInner/MariskaHargitay(Liv)4_4_cut.png,0,169,169,142,,,1.ja,1.595,None,act,0.795,None,None,None,None,None,,['return'],[0.8004193182787276],2017_Jan_25_1425,59.9932452199,famFaceGrey,001,4,
26,./greyInner/Beyonce1_1_cut.png,0,170,170,25,,,1.ja,1.408,None,None,None,music,0.776,None,None,None,Beyonce,"['lshift', 'b', 'e', 'y', 'o', 'n', 'c', 'e', 'return']","[0.8335416772933968, 0.9668048248531704, 1.2165885416907258, 1.4665765927893517, 1.6664636155110202, 1.9997674374571943, 2.1829035417176783, 2.3828678714380658, 2.9659765814321872]",2017_Jan_25_1425,59.9932452199,famFaceGrey,001,4,
62,./greyInner/EmilyDeschanel3_1_cut.png,0,171,171,61,,,1.ja,1.719,None,dummy,0.901,None,None,None,None,None,,['return'],[0.9167188729479676],2017_Jan_25_1425,59.9932452199,famFaceGrey,001,4,
177,./greyInner/Shakira2_1_cut.png,0,172,172,176,,,1.ja,2.995,None,None,None,music,0.695,None,None,None,Shakira,"['lshift', 's', 'k', 'a', 'h', 'backspace', 'backspace', 'backspace', 'h', 'a', 'k', 'i', 'r', 'a', 'return']","[0.7835240506574337, 0.9501065136428224, 1.100148166395229, 1.2832999886777543, 1.533267510116275, 2.332899002740305, 2.8325334785804444, 2.982471841489314, 3.598994175030384, 3.715639526137238, 3.848878936281835, 4.032164201344131, 4.182160624692187, 4.4486567668791395, 5.464756831002887]",2017_Jan_25_1425,59.9932452199,famFaceGrey,001,4,
93,./greyInner/JanHofer5_1_cut.png,0,173,173,92,,,1.ja,1.379,None,None,None,None,None,polit,1.013,None,,['return'],[1.8165190616273321],2017_Jan_25_1425,59.9932452199,famFaceGrey,001,4,
98,./greyInner/JasonSegel(Marshall)6_1_cut.png,0,174,174,97,,,1.ja,1.629,None,act,0.771,None,None,None,None,None,,['return'],[0.7670384138800728],2017_Jan_25_1425,59.9932452199,famFaceGrey,001,4,
218,./greyInner/notfamousface3_3_cut.png,0,175,175,217,,,1.ja,4.752,None,act,5.032,None,None,None,None,None,,['return'],[1.2832451359936385],2017_Jan_25_1425,59.9932452199,famFaceGrey,001,4,
157,./greyInner/NicoleKidman3_1_cut.png,0,176,176,156,,,1.ja,1.768,None,act,0.931,None,None,None,None,None,Nicole Kidmann,"['lshift', 'n', 'i', 'c', 'o', 'l', 'e', 'space', 'lshift', 'l', 'backspace', 'lshift', 'k', 'i', 'd', 'm', 'a', 'n', 'n', 'return']","[1.2665012746037974, 1.3833214485857752, 1.599836532594054, 1.9995910107063537, 2.1329288990564237, 2.3494911371235503, 2.482696224244137, 2.699323579821794, 3.0490751869874657, 3.1658510938941617, 3.748939274231816, 3.9320452255560667, 4.0161905229324475, 4.232099661228858, 4.348686631117744, 5.198221874929004, 5.281527060174994, 5.448280817505292, 5.5815144536827574, 6.197928685738589]",2017_Jan_25_1425,59.9932452199,famFaceGrey,001,4,
182,./greyInner/SigmarGabriel11_3_cut.png,0,177,177,181,,,1.ja,1.357,None,None,None,None,None,polit,0.863,None,,['return'],[0.9002107818560035],2017_Jan_25_1425,59.9932452199,famFaceGrey,001,4,
204,./greyInner/Usher4_1_cut.png,0,178,178,203,,,1.ja,1.594,None,None,None,music,1.56,None,None,None,Usher,"['lshift', 'u', 's', 'h', 'e', 'r', 'return']","[0.6338352514139842, 0.8504135282782954, 1.016930232202867, 1.1503354834967467, 1.3833698857488343, 1.583385539615847, 2.099571090519021]",2017_Jan_25_1425,59.9932452199,famFaceGrey,001,4,
43,./greyInner/CobieSmulders(Robin)3_4_cut.png,0,179,179,42,,,1.ja,1.376,None,act,0.56,None,None,None,None,None,,['return'],[0.7167907909097266],2017_Jan_25_1425,59.9932452199,famFaceGrey,001,4,
29,./greyInner/Beyonce5_3_cut.png,0,180,180,28,,,1.ja,1.643,None,None,None,music,1.159,None,None,None,Beyonce,"['lshift', 'b', 'e', 'y', 'o', 'n', 'c', 'e', 'return']","[0.6667157453848631, 0.8333809685573215, 1.1165597039398563, 1.349778873121977, 1.566281446866924, 1.8329665260716865, 2.0327861858495453, 2.249207282511634, 2.9324606303707696]",2017_Jan_25_1425,59.9932452199,famFaceGrey,001,4,
11,./greyInner/BarackObama1_3_cut.png,0,181,181,10,,,1.ja,1.286,None,None,None,None,None,polit,0.798,None,Obama,"['lshift', 'o', 'b', 'a', 'm', 'a', 'return']","[1.0334363986366952, 1.150176378640026, 1.4333596048818436, 1.599976711670024, 1.7164263894665055, 1.8331596331736364, 2.5495170558169775]",2017_Jan_25_1425,59.9932452199,famFaceGrey,001,4,
116,./greyInner/JudithRakers1_1_cut.png,0,182,182,115,,,1.ja,5.276,None,None,None,music,2.477,None,None,None,,['return'],[1.466992318379198],2017_Jan_25_1425,59.9932452199,famFaceGrey,001,4,
155,./greyInner/NeilPatrickHarris(Barney)3_7_cut.png,0,183,183,154,,,1.ja,1.613,None,dummy,0.879,None,None,None,None,None,,['return'],[0.8003609370643971],2017_Jan_25_1425,59.9932452199,famFaceGrey,001,4,
13,./greyInner/BarackObama2_1_cut.png,0,184,184,12,,,1.ja,1.184,None,None,None,None,None,polit,1.012,None,Obama,"['lshift', 'o', 'b', 'a', 'm', 'a', 'return']","[0.9334826224439894, 1.0501812223519664, 1.2999344654781453, 1.4666615984060627, 1.5831552225026826, 1.7000167765800143, 2.3163293226716632]",2017_Jan_25_1425,59.9932452199,famFaceGrey,001,4,
167,./greyInner/RobertSeanLeonard(Wilson)10_1_cut.png,0,185,185,166,,,1.ja,1.421,None,act,0.721,None,None,None,None,None,,['return'],[0.7167452407302335],2017_Jan_25_1425,59.9932452199,famFaceGrey,001,4,
190,./greyInner/TaylorSwift8_1_cut.png,0,186,186,189,,,1.ja,1.595,None,None,None,music,0.612,None,None,None,Taylor Swift,"['lshift', 't', 'a', 'y', 'l', 'o', 'r', 'space', 'lshift', 's', 'w', 'i', 'f', 't', 'return']","[1.2667373656768177, 1.3666301944431325, 1.8998813449870795, 2.5660354117353563, 2.7995872255487484, 3.016024681779527, 3.3323331540195795, 3.4826872425146576, 3.782243192410533, 3.8824320973508293, 4.165751653359621, 4.34879216639456, 4.498902785970131, 4.615347972903692, 5.915106653181283]",2017_Jan_25_1425,59.9932452199,famFaceGrey,001,4,
145,./greyInner/MariskaHargitay(Liv)8_8_cut.png,0,187,187,144,,,1.ja,1.248,None,act,0.483,None,None,None,None,None,,['return'],[0.6500597765916609],2017_Jan_25_1425,59.9932452199,famFaceGrey,001,4,
130,./greyInner/KatjaBurkard7_1_cut.png,0,188,188,129,,,1.ja,2.693,None,None,None,host,0.993,None,None,None,Burkardt,"['lshift', 'b', 'u', 'r', 'k', 'a', 'r', 'd', 't', 'return']","[0.9171958667393483, 0.9672728369223478, 1.4503363495896338, 1.6168145604060555, 1.7501367307377222, 2.349837575115089, 2.649852234575519, 2.8329713377097505, 2.999618276659021, 4.082600119778363]",2017_Jan_25_1425,59.9932452199,famFaceGrey,001,4,
77,./greyInner/GeorgeClooney15_1_cut.png,0,189,189,76,,,1.ja,1.642,None,act,0.959,None,None,None,None,None,George Clooney,"['lshift', 'g', 'e', 'o', 'r', 'g', 'e', 'space', 'lshift', 'c', 'o', 'backspace', 'l', 'o', 'o', 'n', 'e', 'y', 'return']","[0.9665902257656853, 1.0831101534895424, 1.5996472748011001, 1.749870807499974, 2.1162700432832935, 2.332807260827394, 2.4494298368445016, 2.8158457529752923, 3.065774781302025, 3.2490969355967536, 3.5156575537439494, 3.93223769110773, 4.198841293225996, 4.831620229539112, 4.998477918266872, 5.28156074164508, 5.481542393263226, 5.681447379436577, 6.914394209867169]",2017_Jan_25_1425,59.9932452199,famFaceGrey,001,4,
158,./greyInner/NicoleKidman5_1_cut.png,0,190,190,157,,,1.ja,1.626,None,act,0.876,None,None,None,None,None,Nicole Kidmann,"['lshift', 'n', 'i', 'o', 'backspace', 'c', 'o', 'l', 'e', 'space', 'lshift', 'k', 'i', 'd', 'm', 'a', 'n', 'n', 'return']","[0.7500193267478608, 0.8832343579233566, 1.0999415867045172, 1.4164438075968064, 1.9996253337267262, 2.149552148701332, 2.266115381171403, 2.4661262233967136, 2.6158397223880456, 2.7826486531739647, 3.2156829912710236, 3.4656254921901564, 3.6488449981879967, 3.765502218004258, 3.9989045502370573, 4.131827033772424, 4.2487248355282645, 4.781745668962685, 5.431448421957612]",2017_Jan_25_1425,59.9932452199,famFaceGrey,001,4,
122,./greyInner/KaleyCuoco(Penny)14_2_cut.png,0,191,191,121,,,1.ja,1.31,None,act,0.96,None,None,None,None,None,,['return'],[0.9499868642233196],2017_Jan_25_1425,59.9932452199,famFaceGrey,001,4,
151,./greyInner/NeilPatrickHarris(Barney)1_1_cut.png,0,192,192,150,,,1.ja,1.944,None,dummy,0.628,None,None,None,None,None,,['return'],[2.4160088354510663],2017_Jan_25_1425,59.9932452199,famFaceGrey,001,4,
74,./greyInner/GuentherJauch7_1_cut.png,0,193,193,73,,,1.ja,1.562,None,None,None,host,2.628,None,None,None,Günther Jauch,"['lshift', 'g', u'\xfc', 'n', 't', 'h', 'e', 'r', 'space', 'lshift', 'j', 'a', 'u', 'c', 'h', 'return']","[1.1167945119086653, 1.2334786769024504, 1.6832504608755698, 1.9998716896334372, 2.3496787910335115, 2.466284045152861, 2.6162891294516157, 2.7996026227920083, 2.932796161981969, 3.099402362386172, 3.2493481031415286, 3.3825121309455426, 3.4826019161228032, 3.6324401969432074, 3.7490226759728102, 4.931838645865355]",2017_Jan_25_1425,59.9932452199,famFaceGrey,001,4,
22,./greyInner/BenedictCumberbatch2_2_cut.png,0,194,194,21,,,1.ja,2.055,None,dummy,0.876,None,None,None,None,None,Liam Nison,"['lshift', 'l', 'i', 'a', 'm', 'space', 'lshift', 'n', 'i', 's', 'o', 'm', 'n', 'backspace', 'backspace', 'n', 'return']","[0.9333876727760071, 1.016251791133982, 1.2334042568909354, 1.3498972394372686, 1.5167270206584362, 1.933077482462977, 2.232989493626519, 2.332743105645932, 2.5161541148663673, 2.666044040612178, 3.2991046181814454, 3.549218092663068, 4.598667625145026, 4.765245597271132, 5.415127984782885, 7.8307403411963605]",2017_Jan_25_1425,59.9932452199,famFaceGrey,001,4,
205,./greyInner/Usher7_1_cut.png,0,195,195,204,,,1.ja,1.626,None,act,0.827,None,None,None,None,None,Usher,"['lshift', 'u', 's', 'h', 'backspace', 'backspace', 'backspace', 'lshift', 'u', 's', 'h', 'e', 'r', 'return']","[0.9497886247081624, 1.0999303595453966, 1.316458595367294, 1.4498154094944766, 3.7818791117460933, 3.9319137074271566, 4.065378302268073, 4.633021442907193, 4.931630783066794, 5.14818532251229, 5.281499473443546, 5.498084165825276, 5.6814172265003435, 6.364380913702917]",2017_Jan_25_1425,59.9932452199,famFaceGrey,001,4,
113,./greyInner/JoshRadnor(Ted)6_2_cut.png,0,196,196,112,,,1.ja,1.313,None,act,2.529,None,None,None,None,None,,['return'],[0.8501816072857764],2017_Jan_25_1425,59.9932452199,famFaceGrey,001,4,
132,./greyInner/LeonardoDiCaprio2_1_cut.png,0,197,197,131,,,1.ja,1.142,None,dummy,0.643,None,None,None,None,None,Leonardo Di Caprio,"['lshift', 'l', 'e', 'o', 'n', 'a', 'r', 'd', 'o', 'space', 'lshift', 'd', 'i', 'space', 'c', 'lshift', 'a', 'p', 'r', 'i', 'o', 'backspace', 'backspace', 'backspace', 'backspace', 'backspace', 'backspace', 'lshift', 'c', 'a', 'p', 'r', 'i', 'o', 'return']","[1.6163128668667923, 1.7329485946975183, 1.9995220438831893, 2.099720251320832, 2.38281975505015, 2.5158994187877397, 2.73264514067705, 2.915715165097936, 3.032494921313628, 3.299072540587076, 3.4821268469895585, 3.748655387542385, 3.865404028496414, 4.115463612622989, 4.282043509403593, 4.49855281944474, 4.665148113468604, 4.865119179481553, 5.198229894325777, 5.3149875170056475, 5.49827021585952, 6.664384987558151, 6.830873463204625, 6.9474437527460395, 7.080624460897525, 7.197480241004087, 7.314122063577088, 7.913853381669469, 8.013865539076505, 8.197060666105244, 8.530191910609574, 8.980026887438726, 9.213474769851018, 9.379848407716054, 10.212970830882114]",2017_Jan_25_1425,59.9932452199,famFaceGrey,001,4,
86,./greyInner/Ice-T(OdafinFinTutuola)10_1_cut.png,0,198,198,85,,,1.ja,1.279,None,None,None,music,1.23,None,None,None,Ice Cube,"['lshift', 'i', 'c', 'e', 'space', 'lshift', 'c', 'u', 'b', 'e', 'return']","[0.9835980857387767, 1.2002100440731738, 1.4501079571382434, 1.6833893568473286, 1.8331160076486412, 2.116326499846764, 2.232923734565702, 2.7329447453885223, 2.999639447869413, 3.13273964126347, 3.749205197469564]",2017_Jan_25_1425,59.9932452199,famFaceGrey,001,4,
175,./greyInner/SahraWagenknecht9_1_cut.png,0,199,199,174,,,1.ja,1.625,None,None,None,None,None,polit,1.108,None,,['return'],[1.4165682686543732],2017_Jan_25_1425,59.9932452199,famFaceGrey,001,4,
166,./greyInner/RobertSeanLeonard(Wilson)1_1_cut.png,0,200,200,165,,,1.ja,1.281,None,dummy,0.876,None,None,None,None,None,,['return'],[0.8003112167971267],2017_Jan_25_1425,59.9932452199,famFaceGrey,001,4,
84,./greyInner/HughLaurie(DrHouse)8_1_cut.png,0,201,201,83,,,1.ja,1.525,None,dummy,1.06,None,None,None,None,None,,['return'],[0.9499121234366612],2017_Jan_25_1425,59.9932452199,famFaceGrey,001,4,
30,./greyInner/Beyonce8_3_cut.png,0,202,202,29,,,1.ja,1.68,None,None,None,music,1.096,None,None,None,Beyonce,"['lshift', 'b', 'e', 'y', 'o', 'n', 'c', 'e', 'return']","[1.0166726491370355, 1.1001292406144785, 1.3667357297199487, 1.5999866557212954, 1.783051868504117, 2.1327576047151524, 2.2663116960357, 2.4660283867415274, 3.1826793193504272]",2017_Jan_25_1425,59.9932452199,famFaceGrey,001,4,
31,./greyInner/BritneySpears1_1_cut.png,0,203,203,30,,,1.ja,1.594,None,None,None,music,1.276,None,None,None,Britney Spears,"['lshift', 'b', 'r', 'i', 't', 'n', 'e', 'y', 'space', 'lshift', 's', 'p', 'e', 'a', 'r', 's', 'return']","[0.8667968375339115, 0.9667823705385672, 1.2500178832560778, 1.4165878359854105, 1.6830868651559285, 1.933174998339382, 2.033001426490955, 2.2495809864558396, 2.416226963076042, 2.582820332445408, 2.7494608558736218, 2.882535066419223, 3.032570624432992, 3.2492290952723124, 3.5324043021173566, 3.6988930985389743, 4.398705540857918]",2017_Jan_25_1425,59.9932452199,famFaceGrey,001,4,
197,./greyInner/UrsulavonderLeyen4_1_cut.png,0,204,204,196,,,1.ja,1.263,None,None,None,None,None,polit,1.096,None,Vonderline,"['lshift', 'v', 'o', 'n', 'd', 'e', 'r', 'l', 'i', 'b', 'e', 'backspace', 'backspace', 'n', 'e', 'return']","[0.9169421329861507, 1.0501985442533623, 1.3667556178297673, 1.5833242714143125, 1.7832205966369656, 1.9166540762125805, 1.9997664751317643, 2.866142133883841, 3.1160650674682984, 3.365994095798669, 3.465788446355873, 3.9657180360409257, 4.099131306735217, 4.731965737282735, 4.848694490126945, 5.448368389330426]",2017_Jan_25_1425,59.9932452199,famFaceGrey,001,4,
164,./greyInner/OmarEpps(DrEricForeman)5_2_cut.png,0,205,205,163,,,1.ja,1.217,None,act,0.586,None,None,None,None,None,,['return'],[0.7500100242468761],2017_Jan_25_1425,59.9932452199,famFaceGrey,001,4,
65,./greyInner/EmilyDeschanel8_3_cut.png,0,206,206,64,,,1.ja,1.834,None,dummy,1.439,None,None,None,None,None,,['return'],[1.0335371222754475],2017_Jan_25_1425,59.9932452199,famFaceGrey,001,4,
63,./greyInner/EmilyDeschanel5_1_cut.png,0,207,207,62,,,1.ja,1.843,None,act,0.545,None,None,None,None,None,,['return'],[0.7501630343613215],2017_Jan_25_1425,59.9932452199,famFaceGrey,001,4,
123,./greyInner/KaleyCuoco(Penny)3_1_cut.png,0,208,208,122,,,1.ja,1.38,None,act,0.563,None,None,None,None,None,,['return'],[0.7334849320322974],2017_Jan_25_1425,59.9932452199,famFaceGrey,001,4,
139,./greyInner/LisaEdelstein(DrLisaCuddy)6_3_cut.png,0,209,209,138,,,1.ja,1.776,None,act,0.626,None,None,None,None,None,,['return'],[1.2999463341875526],2017_Jan_25_1425,59.9932452199,famFaceGrey,001,4,
222,./greyInner/notfamousface7_cut.png,0,210,210,221,,,1.ja,8.673,None,None,None,music,7.714,None,None,None,,['return'],[1.133309018518048],2017_Jan_25_1425,59.9932452199,famFaceGrey,001,4,
191,./greyInner/TomCruise1_1_cut.png,0,211,211,190,,,1.ja,1.313,None,dummy,0.78,None,None,None,None,None,Tom Cruise,"['lshift', 't', 'o', 'm', 'space', 'lshift', 'c', 'u', 'r', 'i', 'backspace', 'backspace', 'backspace', 'r', 'u', 'i', 's', 'e', 'return']","[0.7834990301307698, 0.883067554445006, 1.199896325222653, 1.766406806094892, 1.9662675251893234, 2.132877895681304, 2.282770387631899, 2.9492477965068247, 3.115806522077037, 3.2657920390447543, 3.6823032095853705, 3.8153684384051303, 3.9322123498059227, 4.265280722233001, 4.531985689543944, 4.715123397683783, 4.815036756106565, 5.0315582556322624, 5.6148433923845005]",2017_Jan_25_1425,59.9932452199,famFaceGrey,001,4,
152,./greyInner/NeilPatrickHarris(Barney)11_2_cut.png,0,212,212,151,,,1.ja,1.929,None,dummy,1.264,None,None,None,None,None,,['return'],[1.000020208881324],2017_Jan_25_1425,59.9932452199,famFaceGrey,001,4,
194,./greyInner/TomCruise6_1_cut.png,0,213,213,193,,,1.ja,1.245,None,act,1.129,None,None,None,None,None,Tom Cruise,"['lshift', 't', 'o', 'm', 'space', 'lshift', 'c', 'r', 'u', 'i', 's', 'e', 'return']","[0.7169319323147647, 0.8835394158231793, 1.249730147261289, 1.5665432000168948, 2.7160600633687864, 2.865933629538631, 3.0158370278732036, 3.349139245940023, 3.5155940401127737, 3.698919081391068, 3.8154720490310865, 3.998753464784386, 4.531858983060374]",2017_Jan_25_1425,59.9932452199,famFaceGrey,001,4,
224,./greyInner/notfamousface9_1_cut.png,0,214,214,223,,,2.nein,4.942,None,None,None,None,None,sport,5.375,None,,['return'],[1.400060177562409],2017_Jan_25_1425,59.9932452199,famFaceGrey,001,4,
163,./greyInner/OmarEpps(DrEricForeman)3_1_cut.png,0,215,215,162,,,1.ja,1.393,None,act,2.491,None,None,None,None,None,,['return'],[1.183287831270718],2017_Jan_25_1425,59.9932452199,famFaceGrey,001,4,
17,./greyInner/BastianSchweinsteiger12_1_cut.png,0,216,216,16,,,1.ja,1.33,None,None,None,None,None,sport,1.013,None,Sebastian Schweinsteiger,"['lshift', 's', 'e', 'b', 'a', 's', 't', 'i', 'a', 'n', 'space', 'lshift', 's', 'c', 'h', 'w', 'e', 'n', 'i', 'g', 'backspace', 'backspace', 'backspace', 'i', 'n', 's', 't', 'e', 'g', 'e', 'r', 'backspace', 'backspace', 'backspace', 'i', 'h', 'r', 'backspace', 'backspace', 'g', 'r', 't', 'backspace', 'backspace', 'r', 't', 'backspace', 'backspace', 'e', 'r', 'return']","[2.749218670058326, 2.949310027037427, 3.1991142735350877, 3.3990709046302072, 3.4990009434040985, 3.7822592312113557, 3.898923508095322, 4.648468086485082, 4.765001166022557, 4.89859984519353, 5.114935294684983, 5.264838693019556, 5.431533106802817, 5.681482985564799, 5.781483595037571, 5.914699588542135, 6.131396231718099, 6.397880505195644, 6.614517163277924, 6.847577227603324, 7.797407873957127, 7.930449044586567, 8.063862636052363, 8.913209584399738, 9.13002427311585, 9.313342257319164, 9.529599437486468, 9.646414479055238, 9.763154138283426, 9.896130832948984, 10.079683625128382, 17.543228243936028, 17.676504864084563, 17.942967324805068, 19.309237287892756, 19.5424853269069, 19.609006553771906, 20.00870425454923, 20.14227181845854, 20.775254768253944, 20.858621542476612, 20.958559600647277, 21.624635398071405, 21.774971202343295, 21.941473150574893, 22.02458715337343, 22.874321599028917, 23.02443991722612, 23.108488981830305, 23.20760232511384, 23.907204017654294]",2017_Jan_25_1425,59.9932452199,famFaceGrey,001,4,
25,./greyInner/BenedictCumberbatch6_5_cut.png,0,217,217,24,,,1.ja,1.391,None,dummy,0.543,None,None,None,None,None,Liam Nison,"['lshift', 'l', 'i', 'a', 'm', 'space', 'lshift', 'n', 'i', 's', 'o', 'm', 'backspace', 'n', 'return']","[2.71598628490392, 2.8327637956899707, 3.032597569610516, 3.166029124527995, 3.265734620159492, 3.549102934106486, 3.7823006113030715, 3.9322101043762814, 4.165621097559779, 4.332053437417926, 4.448717393530387, 4.6816529968018585, 5.648337209910096, 5.764987051879871, 6.1980627700722835]",2017_Jan_25_1425,59.9932452199,famFaceGrey,001,4,
174,./greyInner/SahraWagenknecht6_2_cut.png,0,218,218,173,,,1.ja,1.204,None,None,None,None,None,polit,0.744,None,,['return'],[0.8003734473240911],2017_Jan_25_1425,59.9932452199,famFaceGrey,001,4,
185,./greyInner/SigmarGabriel8_2_cut.png,0,219,219,184,,,1.ja,1.101,None,None,None,None,None,polit,0.63,None,,['return'],[0.9501709896030661],2017_Jan_25_1425,59.9932452199,famFaceGrey,001,4,
78,./greyInner/GeorgeClooney16_1_cut.png,0,220,220,77,,,1.ja,1.509,None,act,0.642,None,None,None,None,None,George Clooney,"['lshift', 'g', 'e', 'o', 'r', 'g', 'e', 'space', 'lshift', 'c', 'l', 'o', 'o', 'n', 'e', 'y', 'return']","[0.9665998490454513, 1.1332406932488084, 1.7328039247586275, 1.849576303131471, 2.0995332389611576, 2.332659383129794, 2.465865753354592, 2.699226063941751, 3.099118154925236, 3.298982402557158, 3.732095972307434, 3.9154194097027357, 4.231893081538146, 4.531812470551813, 4.748394275946339, 4.964907756075263, 5.564841162995435]",2017_Jan_25_1425,59.9932452199,famFaceGrey,001,4,
20,./greyInner/BastianSchweinsteiger6_2_cut.png,0,221,221,19,,,1.ja,1.409,None,None,None,None,None,sport,0.844,None,Sebastian Schweinsteiger,"['lshift', 's', 'e', 'b', 's', 't', 'backspace', 'backspace', 'backspace', 'a', 'backspace', 'b', 'e', 'a', 'backspace', 's', 't', 'i', 'a', 'n', 'backspace', 'backspace', 'backspace', 'backspace', 'backspace', 'backspace', 'a', 's', 't', 'i', 'a', 'n', 'space', 'lshift', 's', 'c', 'h', 'w', 'e', 'i', 'n', 's', 't', 'e', 'i', 'g', 'e', 'r', 'return']","[0.650279187320848, 0.8169174653194204, 1.0668721557194658, 1.2333465172232536, 1.4830962318119418, 1.649905162597861, 2.416080047703872, 2.566113360284362, 2.6826714603412256, 2.9660340003210877, 3.365873163274955, 4.081906923016504, 4.19878772364973, 4.432038649647438, 4.881886136736284, 4.981863971122948, 5.215098216773185, 5.964829807522619, 6.081359358526242, 6.21467928342463, 6.6477752105020045, 6.780989279348432, 6.914426929008187, 7.03082945274582, 7.147629097071331, 7.280755273313844, 7.8806293366906175, 8.197225865700602, 8.347005765306676, 8.680032116084476, 8.813553488260368, 8.963614066793525, 9.163359306559869, 9.24663145188606, 9.380085781896923, 9.579884912014677, 9.663180153209396, 9.829829016813164, 9.99636143875614, 10.262940661908942, 10.762666879661992, 11.2958936512332, 11.479112515680754, 11.629146790586674, 11.778991166152991, 11.97881852455248, 12.112290497236245, 12.195644119648932, 13.79493789938715]",2017_Jan_25_1425,59.9932452199,famFaceGrey,001,4,
186,./greyInner/TaylorSwift1_2_cut.png,0,222,222,185,,,1.ja,1.515,None,None,None,music,0.683,None,None,None,Taylor Swift,"['lshift', 't', 'y', 'backspace', 'a', 'y', 'l', 'o', 'r', 'space', 'lshift', 's', 'w', 'i', 'f', 't', 'return']","[0.7833351136396232, 0.9167663477819588, 1.1332313907441858, 1.6831051493827545, 1.8163079910736997, 1.9829080967356276, 2.1161269772201194, 2.2828095222976117, 2.5493480069053476, 2.6825816430828127, 2.932477310718241, 3.082503887002531, 3.3160794382310996, 3.748831172746577, 3.882002899172221, 3.9988237147044856, 4.6985434527850884]",2017_Jan_25_1425,59.9932452199,famFaceGrey,001,4,
211,./greyInner/notfamousface10_4_cut.png,0,223,223,210,,,1.ja,5.246,None,None,None,None,None,sport,10.094,None,,['return'],[1.4498705829537357],2017_Jan_25_1425,59.9932452199,famFaceGrey,001,4,
