num,pic,trials.thisRepN,trials.thisTrialN,trials.thisN,trials.thisIndex,key_resp_2.keys,key_resp_2.rt,ratingBekannt.response,ratingBekannt.rt,key_resp_5.keys,ratingK1.response,ratingK1.rt,ratingK2.response,ratingK2.rt,ratingK3.response,ratingK3.rt,key_resp_6.keys,inputText,key_resp_4.keys,key_resp_4.rt,key_resp_5.rt,key_resp_6.rt,date,frameRate,expName,session,participant,
,,,,,,space,27.703676509,,,,,,,,,,,,,,,,2017_Jan_26_1027,60.0309066331,famFaceGrey,001,5,
18,./greyInner/BastianSchweinsteiger14_1_cut.png,0,0,0,17,,,1.ja,3.523,None,None,None,None,None,sport,2.976,None,Bastian Schweinsteiger,"['lshift', 'b', 'a', 's', 't', 'i', 'a', 'n', 'space', 'lshift', 's', 'c', 'h', 'w', 'e', 'i', 'n', 's', 't', 'e', 'i', 'g', 'e', 'r', 'return']","[3.4156521326308393, 3.582291372956661, 3.7653450378052185, 3.865563133352225, 4.115568185573011, 4.348749503198633, 4.448600951870503, 4.548561464355316, 4.748480243892573, 4.931554117624273, 5.214941357350654, 5.431509048607495, 5.564808123072908, 5.7313950769239455, 5.797921436203978, 5.94786428997395, 6.031409736383466, 6.214514083827453, 6.331392959802997, 6.514444699996147, 6.664182577954307, 6.864231271738845, 6.94732506565515, 7.030920553107535, 9.146719697341723]",,,2017_Jan_26_1027,60.0309066331,famFaceGrey,001,5,
213,./greyInner/notfamousface12_2_cut.png,0,1,1,212,,,2.nein,7.47,None,None,None,music,10.499,None,None,None,,['return'],[2.6825761898940073],,,2017_Jan_26_1027,60.0309066331,famFaceGrey,001,5,
128,./greyInner/KatjaBurkard4_1_cut.png,0,2,2,127,,,1.ja,10.181,None,None,None,host,2.651,None,None,None,Katja Burkhard,"['lshift', 'k', 'a', 't', 'j', 'a', 'space', 'lshift', 'b', 'u', 'r', 'k', 'h', 'a', 'r', 'd', 'return']","[10.779314508277821, 10.87915857910366, 11.595620574695658, 11.729041223234162, 12.062077518066872, 12.178840593936002, 12.311998206221233, 12.461657814855243, 12.728676180238836, 12.978381948527385, 13.161689988679882, 13.578146948089852, 13.777971098731086, 13.894809236165202, 14.077938924906448, 14.244519463239158, 16.260432194225814]",,,2017_Jan_26_1027,60.0309066331,famFaceGrey,001,5,
154,./greyInner/NeilPatrickHarris(Barney)2_2_cut.png,0,3,3,153,,,1.ja,3.769,None,act,2.178,None,None,None,None,None,Neil Patrick Harris,"['lshift', 'n', 'e', 'i', 'l', 'space', 'lshift', 'p', 'a', 't', 'r', 'i', 'c', 'k', 'space', 'lshift', 'h', 'a', 'r', 'r', 'i', 's', 'return']","[1.5332681516665616, 1.6667651448733523, 2.266092606082566, 2.3831296245862177, 2.566371584899116, 2.699554538481607, 2.816133809749317, 3.032672951949735, 3.1825943137332615, 3.365947262514055, 3.532370941422414, 3.7155067249063904, 3.8491378024473306, 3.9489048870527768, 4.0990164689560515, 4.215507847622121, 4.681652355248843, 4.848812856441782, 5.09861838604138, 5.165163350324747, 5.93151402063404, 6.081554390283145, 7.1476191530164215]",,,2017_Jan_26_1027,60.0309066331,famFaceGrey,001,5,
101,./greyInner/JimParsons(SheldonCooper)1_1_cut.png,0,4,4,100,,,1.ja,2.999,None,act,1.428,None,None,None,None,None,Jim Parson,"['lshift', 'j', 'i', 'm', 'space', 'lshift', 'p', 'a', 'r', 's', 'o', 'n', 'return']","[4.0157857037229405, 4.315335238100943, 4.482278894773117, 4.6322448444093425, 4.732187714218071, 4.8653709885770695, 5.0154450396976245, 5.181931590685963, 5.531684801733263, 5.748339102488444, 5.848320786183194, 6.014549112557688, 7.19765121456976]",,,2017_Jan_26_1027,60.0309066331,famFaceGrey,001,5,
104,./greyInner/JimParsons(SheldonCooper)8_1_cut.png,0,5,5,103,,,1.ja,3.269,None,act,2.625,None,None,None,None,None,Jim Parson,"['lshift', 'j', 'i', 'm', 'space', 'lshift', 'p', 'a', 'r', 's', 'o', 'n', 'return']","[1.0833269980089426, 1.1831944854770882, 1.3830163906873167, 1.4831472351843331, 1.6162095770218912, 1.832933165374925, 2.149405874882632, 2.316050247623025, 2.5494416734750303, 2.7492440113542216, 2.7992026152219296, 2.999120432431482, 3.6821530864576744]",,,2017_Jan_26_1027,60.0309066331,famFaceGrey,001,5,
28,./greyInner/Beyonce3_2_cut.png,0,6,6,27,,,1.ja,3.243,None,None,None,music,3.093,None,None,None,Beyonce Knowles,"['lshift', 'b', 'e', 'y', 'o', 'n', 'c', 'e', 'space', 'lshift', 'k', 'n', 'w', 'o', 'backspace', 'backspace', 'o', 'w', 'l', 'e', 's', 'return']","[1.1831656156441568, 1.4331790080386781, 1.7164680903342742, 2.0327823365382756, 2.149555356460496, 2.2661314199690423, 2.6160074881927358, 2.7491862716888136, 2.9159134046158215, 3.8321142244549264, 3.9651358277510553, 4.132068257265928, 4.4485015113355075, 4.631827194163179, 5.981063314429775, 6.131252203329495, 6.697594597620082, 7.630584508255197, 7.963782474150776, 8.163356740351901, 8.39654607737566, 10.529510582558032]",,,2017_Jan_26_1027,60.0309066331,famFaceGrey,001,5,
138,./greyInner/LisaEdelstein(DrLisaCuddy)2_2_cut.png,0,7,7,137,,,1.ja,8.724,None,act,4.155,None,None,None,None,None,,['return'],[1.299765416570608],,,2017_Jan_26_1027,60.0309066331,famFaceGrey,001,5,
58,./greyInner/ElvisPresley4_10_cut.png,0,8,8,57,,,1.ja,2.219,None,None,None,music,1.434,None,None,None,Elvis Presley,"['lshift', 'e', 'l', 'v', 'i', 's', 'space', 'lshift', 'p', 'r', 'e', 's', 'l', 'e', 'y', 'return']","[1.016932156855546, 1.3168630938002934, 1.5499825016736395, 1.7667141094252656, 1.9331682620459105, 1.98317722773254, 2.1332371647131367, 2.266319715433383, 2.6662111648624887, 2.8994040304210102, 2.9660898153324524, 3.282897414899253, 3.5159680648325775, 3.7158637485040344, 4.0491351720852435, 5.631585970672859]",,,2017_Jan_26_1027,60.0309066331,famFaceGrey,001,5,
61,./greyInner/EmilyDeschanel15_1_cut.png,0,9,9,60,,,1.ja,7.916,None,act,1.126,None,None,None,None,None,,['return'],[1.233430239738027],,,2017_Jan_26_1027,60.0309066331,famFaceGrey,001,5,
152,./greyInner/NeilPatrickHarris(Barney)11_2_cut.png,0,10,10,151,,,1.ja,6.924,None,act,0.979,None,None,None,None,None,Neil Patrick Harris,"['lshift', 'n', 'e', 'i', 'l', 'space', 'lshift', 'p', 'a', 't', 'r', 'i', 'c', 'k', 'space', 'lshift', 'h', 'a', 'r', 'r', 'i', 's', 'return']","[1.616677589086521, 1.849998765012515, 2.066532774798361, 2.182884295164058, 2.34974487087311, 2.4996434575664352, 2.6327705961393804, 3.0160468153208058, 3.1826235043422457, 3.4324996046439082, 3.5991292216917827, 3.748768621443105, 3.8655923239607546, 3.9656295018894525, 4.115494407111328, 4.18223600703277, 4.365445248201922, 4.498815855697103, 4.715376489883965, 4.865200656563957, 4.965339199683513, 5.031825141197714, 6.331196965716572]",,,2017_Jan_26_1027,60.0309066331,famFaceGrey,001,5,
45,./greyInner/CobieSmulders(Robin)5_1_cut.png,0,11,11,44,,,1.ja,7.599,None,act,1.113,None,None,None,None,None,,['return'],[1.3005279009289552],,,2017_Jan_26_1027,60.0309066331,famFaceGrey,001,5,
219,./greyInner/notfamousface4_2_cut.png,0,12,12,218,,,2.nein,5.179,None,None,None,host,7.216,None,None,None,,['return'],[1.2830930882091707],,,2017_Jan_26_1027,60.0309066331,famFaceGrey,001,5,
158,./greyInner/NicoleKidman5_1_cut.png,0,13,13,157,,,1.ja,3.331,None,act,1.258,None,None,None,None,None,Nicole Kidman,"['lshift', 'n', 'i', 'c', 'o', 'l', 'e', 'space', 'lshift', 'k', 'i', 'd', 'm', 'a', 'n', 'return']","[1.4664822846684729, 1.649615181169338, 1.8161492069939413, 2.0496387902771858, 2.182827517826354, 2.349493061777139, 2.4494455548638143, 2.565999805609863, 2.799269336612724, 3.19903664576168, 3.4154378543171333, 3.6321428376672884, 3.8152564876127144, 3.89878140436349, 4.0320846489153155, 4.9149247732352705]",,,2017_Jan_26_1027,60.0309066331,famFaceGrey,001,5,
191,./greyInner/TomCruise1_1_cut.png,0,14,14,190,,,1.ja,2.04,None,act,0.963,None,None,None,None,None,Tom Cruise,"['lshift', 't', 'o', 'm', 'space', 'lshift', 'c', 'r', 'u', 'i', 's', 'e', 'return']","[1.0337260592900748, 1.2170777249671119, 1.7668238147889497, 1.9001049258026796, 2.0166245327495744, 2.199915892554145, 2.6162936203122626, 2.9329536629561517, 3.033002388818204, 3.1827534185890727, 3.3827732425406793, 3.5828524100375034, 4.199046910590823]",,,2017_Jan_26_1027,60.0309066331,famFaceGrey,001,5,
156,./greyInner/NicoleKidman14_1_cut.png,0,15,15,155,,,1.ja,2.578,None,act,0.745,None,None,None,None,None,Nicole Kidman,"['lshift', 'n', 'i', 'c', 'o', 'l', 'e', 'space', 'lshift', 'k', 'i', 'r', 'd', 'm', 'n', 'backspace', 'backspace', 'backspace', 'backspace', 'd', 'm', 'a', 'n', 'return']","[1.0500795363891484, 1.249905290910192, 1.4495257488433708, 1.5497249186109912, 2.0662155274148972, 2.2328400120482, 2.256669813478311, 2.4326256695794655, 2.5827866509744126, 2.915835776843778, 3.0825580981322673, 3.165693272142107, 3.349219119143072, 3.449095588336604, 3.61572648848869, 4.132083654510097, 4.281779510823071, 4.448627255495921, 4.598558882108591, 5.264982400629378, 5.431495896794786, 5.514836688168089, 5.598217897307222, 6.314504749248044]",,,2017_Jan_26_1027,60.0309066331,famFaceGrey,001,5,
55,./greyInner/DannFlorek(DonaldDonCragen)8_1_cut.png,0,16,16,54,,,2.nein,9.713,None,act,7.08,None,None,None,None,None,,['return'],[1.0166229288702198],,,2017_Jan_26_1027,60.0309066331,famFaceGrey,001,5,
161,./greyInner/OmarEpps(DrEricForeman)1_5_cut.png,0,17,17,160,,,1.ja,2.17,None,act,0.714,None,None,None,None,None,,['return'],[0.9168847140972503],,,2017_Jan_26_1027,60.0309066331,famFaceGrey,001,5,
130,./greyInner/KatjaBurkard7_1_cut.png,0,18,18,129,,,2.nein,4.675,None,None,None,host,3.592,None,None,None,,['return'],[0.9499262375775288],,,2017_Jan_26_1027,60.0309066331,famFaceGrey,001,5,
117,./greyInner/JudithRakers2_1_cut.png,0,19,19,116,,,2.nein,7.54,None,None,None,host,1.616,None,None,None,,['return'],[1.333421546711179],,,2017_Jan_26_1027,60.0309066331,famFaceGrey,001,5,
83,./greyInner/HughLaurie(DrHouse)5_3_cut.png,0,20,20,82,,,1.ja,1.694,None,dummy,0.676,None,None,None,None,None,,['return'],[0.9666437953437708],,,2017_Jan_26_1027,60.0309066331,famFaceGrey,001,5,
72,./greyInner/GuentherJauch3_1_cut.png,0,21,21,71,,,1.ja,1.819,None,None,None,host,1.068,None,None,None,Günther Jauch,"['lshift', 'g', u'\xfc', 'n', 't', 'h', 'e', 'r', 'space', 'lshift', 'j', 'a', 'u', 'c', 'h', 'return']","[1.2167264753365998, 1.333022822244402, 1.7497954251580268, 2.0330110497679925, 2.332845112385712, 2.4329996943006336, 2.5327427207125766, 2.5992216051563446, 2.732729825520437, 2.8993616880002264, 3.015793723121078, 3.1493041889166307, 3.265893083461833, 3.34889545624128, 3.4489887699560313, 4.598680456182137]",,,2017_Jan_26_1027,60.0309066331,famFaceGrey,001,5,
178,./greyInner/Shakira3_1_cut.png,0,22,22,177,,,1.ja,2.975,None,None,None,music,0.93,None,None,None,Shakira,"['lshift', 's', 'h', 'a', 'k', 'i', 'r', 'a', 'return']","[0.9669963280780394, 1.2166449982532868, 1.4334814997300782, 1.533566794046692, 1.9499076325741953, 2.08310373796985, 2.183201221771469, 2.4829688837735375, 3.016186352845125]",,,2017_Jan_26_1027,60.0309066331,famFaceGrey,001,5,
118,./greyInner/JudithRakers4_3_cut.png,0,23,23,117,,,2.nein,5.985,None,None,None,None,None,polit,1.628,None,,['return'],[1.200294087362181],,,2017_Jan_26_1027,60.0309066331,famFaceGrey,001,5,
193,./greyInner/TomCruise5_1_cut.png,0,24,24,192,,,1.ja,1.11,None,act,1.227,None,None,None,None,None,Tom Cruise,"['lshift', 'z', 'backspace', 'lshift', 't', 'o', 'm', 'space', 'lshift', 'c', 'r', 'u', 'i', 's', 'e', 'return']","[0.5502205174052506, 0.8501171313268969, 1.4998910965759933, 1.8162682148599743, 2.0991935372635453, 2.5327738359765135, 2.615964183444248, 2.732712182845262, 2.832349353203881, 3.1491851810510525, 3.43242197687141, 3.9155037737687053, 4.065061054884609, 4.182077864505118, 4.348671554650082, 4.981749454119836]",,,2017_Jan_26_1027,60.0309066331,famFaceGrey,001,5,
171,./greyInner/SahraWagenknecht12_1_cut.png,0,25,25,170,,,1.ja,6.498,None,None,None,None,None,polit,1.479,None,Sarah Wagenknecht,"['lshift', 's', 'a', 'r', 'a', 'h', 'space', 'lshift', 'w', 'a', 'g', 'e', 'n', 'k', 'n', 'e', 'c', 'h', 't', 'return']","[0.917247511660662, 1.117285940616057, 1.3001702357796603, 1.4339485494670043, 1.8670505712857448, 1.9837517374021445, 2.1168349296744964, 2.2335447567411393, 2.650038284605671, 2.8666111082775387, 3.099843108498135, 3.1997609577852018, 3.31625169489962, 4.0660933117897, 4.182845160501529, 4.399302184066983, 4.5324472860911555, 4.665879482562559, 4.782443998138206, 5.615488793532677]",,,2017_Jan_26_1027,60.0309066331,famFaceGrey,001,5,
64,./greyInner/EmilyDeschanel6_12_cut.png,0,26,26,63,,,1.ja,2.859,None,act,0.941,None,None,None,None,None,,['return'],[0.7501104271100303],,,2017_Jan_26_1027,60.0309066331,famFaceGrey,001,5,
187,./greyInner/TaylorSwift2_1_cut.png,0,27,27,186,,,1.ja,3.169,None,None,None,music,0.643,None,None,None,Taylor Swift,"['lshift', 't', 'a', 'y', 'l', 'o', 'r', 'space', 'lshift', 's', 'w', 'i', 'f', 't', 'return']","[0.9332901568950547, 1.0660304397101754, 1.2828730359292422, 1.4997951845762145, 1.6994820431245898, 1.8164901917953102, 2.032824999735567, 2.149484144206781, 2.2827360646119814, 2.4991783324849166, 2.71598083171466, 2.932641868763767, 3.165918456837062, 3.315711829029169, 3.965585876364912]",,,2017_Jan_26_1027,60.0309066331,famFaceGrey,001,5,
49,./greyInner/CristinMilioti(Tracy_Mutter)8_1_cut.png,0,28,28,48,,,1.ja,2.82,None,act,0.771,None,None,None,None,None,,['return'],[1.1167553772470455],,,2017_Jan_26_1027,60.0309066331,famFaceGrey,001,5,
79,./greyInner/GeorgeClooney3_1_cut.png,0,29,29,78,,,1.ja,1.829,None,act,0.612,None,None,None,None,None,George Clooney,"['lshift', 'g', 'e', 'o', 'r', 'g', 'e', 'space', 'lshift', 'c', 'l', 'o', 'o', 'n', 'e', 'y', 'return']","[1.0167069721605912, 1.2499922211836747, 1.5334006321209017, 1.8666008434479409, 2.066482092202932, 2.232813387647184, 2.3164374241564474, 2.449549486261276, 2.616245503924347, 2.9657565291531682, 3.1839977083768645, 3.332547432332831, 3.4657884463567825, 3.6658230260009077, 3.732416748223841, 4.365657281083713, 5.631712677160522]",,,2017_Jan_26_1027,60.0309066331,famFaceGrey,001,5,
23,./greyInner/BenedictCumberbatch3_9_cut.png,0,30,30,22,,,1.ja,2.371,None,act,0.82,None,None,None,None,None,Benedict Cumberbatch,"['lshift', 'b', 'e', 'n', 'e', 'd', 'i', 'c', 't', 'space', 'lshift', 'c', 'u', 'm', 'b', 'e', 'r', 'b', 'a', 't', 'c', 'h', 'return']","[0.8669601124765904, 1.1506681281216515, 1.3499809619493135, 1.466593593912421, 1.6000472823702694, 1.7998602058546567, 1.8997225609082307, 2.0164567669444295, 2.233014514147726, 2.3996393195570818, 2.5162647825573004, 2.9327220627428687, 3.165908833559115, 3.3658410856851333, 3.5658650797240625, 3.6324299321140643, 3.71573960822343, 4.115531937894048, 4.232148098392372, 4.565411181799391, 4.68200360487981, 4.765187857604815, 5.898172571669875]",,,2017_Jan_26_1027,60.0309066331,famFaceGrey,001,5,
173,./greyInner/SahraWagenknecht5_1_cut.png,0,31,31,172,,,1.ja,2.244,None,None,None,None,None,polit,0.71,None,Sarah Wagenknecht,"['lshift', 's', 'a', 'r', 'a', 'h', 'space', 'lshift', 'w', 'a', 'g', 'e', 'n', 'k', 'n', 'e', 'c', 'h', 't', 'return']","[0.967011404546156, 1.0838415225821336, 1.2171608059302343, 1.316884585787193, 1.4336778145921016, 1.716951820419581, 1.8333787231258611, 1.9167987461510165, 2.100171903814953, 2.268050622289593, 2.399899789603296, 2.5164001499947517, 2.5999000462238655, 3.1663595237250775, 3.282840316785496, 3.449470575385476, 3.6162458247003997, 3.732736241038765, 3.8160949958637502, 4.432568892242216]",,,2017_Jan_26_1027,60.0309066331,famFaceGrey,001,5,
73,./greyInner/GuentherJauch4_1_cut.png,0,32,32,72,,,1.ja,2.214,None,None,None,host,1.544,None,None,None,Günther Jauch,"['lshift', 'g', u'\xfc', 'n', 't', 'h', 'e', 'r', 'space', 'lshift', 'h', 'backspace', 'lshift', 'j', 'a', 'u', 'c', 'h', 'return']","[0.8832808704319177, 1.3998612964928725, 1.7664844338673902, 1.999458851025338, 2.249483470577161, 2.332349834367051, 2.4493634362283956, 2.565904535161735, 2.6659972073248355, 2.882442362180882, 3.3990583943686943, 3.7820866537649636, 3.948876337996353, 4.0986004225901524, 4.2153272507803194, 4.315265629726127, 4.381866409019494, 4.481889472807779, 5.431649869235571]",,,2017_Jan_26_1027,60.0309066331,famFaceGrey,001,5,
139,./greyInner/LisaEdelstein(DrLisaCuddy)6_3_cut.png,0,33,33,138,,,1.ja,3.005,None,dummy,1.091,None,None,None,None,None,,['return'],[0.7167721859054836],,,2017_Jan_26_1027,60.0309066331,famFaceGrey,001,5,
174,./greyInner/SahraWagenknecht6_2_cut.png,0,34,34,173,,,1.ja,1.334,None,None,None,None,None,polit,1.124,None,Sarah Wagenknecht,"['lshift', 's', 'a', 'r', 'a', 'h', 'space', 'lshift', 'w', 'a', 'g', 'e', 'n', 'k', 'n', 'e', 'c', 'h', 't', 'return']","[0.7668947062670668, 0.9335875161709737, 1.0501350306226414, 1.133594509085924, 1.2833593322216075, 1.5332116951049102, 1.6833508637373598, 1.7831737633528064, 2.049795649701082, 2.216340902682532, 2.333029879314381, 2.4664014491372654, 2.566194516592077, 2.8494476719847626, 2.966037528857669, 3.1327470191095017, 3.299275270967428, 3.4158368995595083, 3.5158105638565758, 4.315626823410639]",,,2017_Jan_26_1027,60.0309066331,famFaceGrey,001,5,
82,./greyInner/HughLaurie(DrHouse)4_1_cut.png,0,35,35,81,,,1.ja,1.899,None,dummy,0.891,None,None,None,None,None,,['return'],[0.7168613616104267],,,2017_Jan_26_1027,60.0309066331,famFaceGrey,001,5,
203,./greyInner/Usher2_1_cut.png,0,36,36,202,,,1.ja,1.417,None,None,None,music,0.662,None,None,None,Usher,"['lshift', 'u', 's', 'h', 'e', 'r', 'return']","[0.6002432764566947, 0.9004334003434451, 1.1336682875471524, 1.2335097921659326, 1.3335168171583973, 1.416673483154682, 1.9999188436927398]",,,2017_Jan_26_1027,60.0309066331,famFaceGrey,001,5,
218,./greyInner/notfamousface3_3_cut.png,0,37,37,217,,,2.nein,5.863,None,None,None,host,7.18,None,None,None,,['return'],[1.1001051824237038],,,2017_Jan_26_1027,60.0309066331,famFaceGrey,001,5,
124,./greyInner/KaleyCuoco(Penny)5_2_cut.png,0,38,38,123,,,1.ja,1.634,None,dummy,2.701,None,None,None,None,None,Kaley Cucoa,"['lshift', 'k', 'a', 'l', 'e', 'y', 'space', 'lshift', 'c', 'u', 'c', 'o', 'a', 'return']","[1.1998389063337527, 1.3839597926635179, 1.8496417414157804, 2.033035749514056, 2.5494339748534003, 2.8492635466077445, 3.0656176011029856, 4.2153609322517696, 4.582014864114626, 5.2316970874508115, 5.997988093439744, 6.181222034354505, 6.297624237315176, 9.130101580110022]",,,2017_Jan_26_1027,60.0309066331,famFaceGrey,001,5,
60,./greyInner/ElvisPresley6_1_cut.png,0,39,39,59,,,1.ja,1.46,None,None,None,music,0.628,None,None,None,Elvis Presley,"['lshift', 'e', 'l', 'v', 'i', 's', 'space', 'lshift', 'p', 'r', 'e', 's', 'l', 'e', 'y', 'return']","[0.9000484692410282, 1.200246933301969, 1.4167912079169582, 1.4834936731763264, 1.7834727265085348, 1.9332619286137742, 2.0666678214597596, 2.3497637966524962, 2.699601050990168, 2.916252143986185, 2.9828243742222185, 3.182766570401782, 3.4493737010579935, 3.5658933080048882, 4.115705798441468, 4.832034672027476]",,,2017_Jan_26_1027,60.0309066331,famFaceGrey,001,5,
208,./greyInner/WillSmith4_1_cut.png,0,40,40,207,,,1.ja,1.847,None,act,0.807,None,None,None,None,None,Will Smith,"['lshift', 'w', 'i', 'l', 'l', 'space', 'lshift', 's', 'm', 'i', 't', 'h', 'return']","[0.7000283245138235, 0.8999179134425503, 1.0667136924166698, 1.2332541337591465, 1.3498301972676927, 1.4498012953577017, 1.5161521902100503, 1.6497178294634978, 1.7665155491317819, 1.8995079618189266, 2.0495778428526137, 2.1327203947084854, 2.8326579396371017]",,,2017_Jan_26_1027,60.0309066331,famFaceGrey,001,5,
110,./greyInner/JoachimLoew8_1_cut.png,0,41,41,109,,,1.ja,1.714,None,None,None,None,None,sport,0.856,None,Joachim Löw,"['lshift', 'j', 'o', 'a', 'c', 'h', 'i', 'm', 'space', 'lshift', 'l', u'\xf6', 'w', 'return']","[0.9333841442389712, 1.6164411772347194, 1.8162467228730748, 1.8830932165196828, 2.049576559748857, 2.13292344586489, 2.2494375996207054, 2.3827395610692292, 2.5159914814748845, 2.666040512073778, 2.9990995819966884, 3.248736704239036, 3.648650287206692, 4.06517813809478]",,,2017_Jan_26_1027,60.0309066331,famFaceGrey,001,5,
103,./greyInner/JimParsons(SheldonCooper)6_1_cut.png,0,42,42,102,,,1.ja,1.585,None,act,0.728,None,None,None,None,None,Jim Parson,"['lshift', 'j', 'i', 'm', 'space', 'lshift', 'p', 'a', 'r', 's', 'o', 'o', 'n', 'backspace', 'backspace', 'n', 'return']","[0.6173720689498623, 0.9671567160371524, 1.1504599445506756, 1.2336509335700612, 1.3504342183218796, 1.4668912739648476, 1.66691943809019, 1.7501672044472798, 1.9667140452697822, 2.1333086977429048, 2.2333263083405654, 2.3165557904703746, 2.3666093440101577, 3.232939452582741, 3.3827758087481925, 3.949305215399363, 4.515767900659284]",,,2017_Jan_26_1027,60.0309066331,famFaceGrey,001,5,
94,./greyInner/JanHofer7_1_cut.png,0,43,43,93,,,2.nein,12.686,None,None,None,None,None,polit,0.891,None,,['return'],[0.9499390686141851],,,2017_Jan_26_1027,60.0309066331,famFaceGrey,001,5,
206,./greyInner/WillSmith1_1_cut.png,0,44,44,205,,,1.ja,1.03,None,act,0.763,None,None,None,None,None,Will Smith,"['lshift', 'w', 'i', 'l', 'l', 'space', 'lshift', 's', 'm', 'i', 't', 'h', 'return']","[0.8672077514861485, 1.1837208787592317, 1.367118736168777, 1.5501553998938107, 1.6668661892881573, 1.7667840385752243, 1.8334117630456603, 1.9998136291915216, 2.1334026850868213, 2.2833750502418297, 2.449573223679181, 2.533282265807429, 3.4996004735935458]",,,2017_Jan_26_1027,60.0309066331,famFaceGrey,001,5,
141,./greyInner/MariskaHargitay(Liv)13_1_cut.png,0,45,45,140,,,1.ja,4.544,None,act,0.746,None,None,None,None,None,,['return'],[0.8174316691156491],,,2017_Jan_26_1027,60.0309066331,famFaceGrey,001,5,
159,./greyInner/NicoleKidman7_1_cut.png,0,46,46,158,,,1.ja,1.717,None,dummy,1.163,None,None,None,None,None,Nicole Kidman,"['lshift', 'n', 'i', 'c', 'o', 'l', 'e', 'space', 'lshift', 'k', 'i', 'd', 'm', 'a', 'n', 'return']","[0.8336988574924362, 1.0333886030239228, 1.2336666515902834, 1.3502228269917396, 1.4499193408951214, 1.6000626796144388, 1.6834942505729487, 1.8333023784571196, 1.9998575754921148, 2.3330417480233336, 2.4997438604291347, 2.6494320181200237, 2.766267268570573, 2.8828997886407706, 2.9496365769232398, 3.832475738915491]",,,2017_Jan_26_1027,60.0309066331,famFaceGrey,001,5,
25,./greyInner/BenedictCumberbatch6_5_cut.png,0,47,47,24,,,1.ja,1.715,None,act,0.548,None,None,None,None,None,Benedict Cumberbatch,"['lshift', 'b', 'e', 'n', 'e', 'd', 'i', 'c', 't', 'space', 'lshift', 'c', 'u', 'm', 'b', 'e', 'r', 'b', 'a', 't', 'c', 'h', 'return']","[0.6169085477476983, 0.7836286236047272, 0.9669081147003453, 1.0669125734857516, 1.250208744928841, 1.4167126178167564, 1.5166859613382258, 1.6165797524313348, 1.833110875233615, 1.983248119210657, 2.0830546592542305, 2.316346644571695, 2.4828816327235472, 2.632921040045403, 2.8493963478376827, 2.916189913457856, 2.982617794530597, 3.2492178681168298, 3.3326119082926198, 3.59911510755137, 3.7157514769323825, 3.8156577782865497, 5.6482945467132595]",,,2017_Jan_26_1027,60.0309066331,famFaceGrey,001,5,
216,./greyInner/notfamousface14_6_cut.png,0,48,48,215,,,2.nein,9.27,None,None,None,None,None,sport,9.122,None,,['return'],[1.1501904927795294],,,2017_Jan_26_1027,60.0309066331,famFaceGrey,001,5,
87,./greyInner/Ice-T(OdafinFinTutuola)12_1_cut.png,0,49,49,86,,,1.ja,1.619,None,dummy,0.596,None,None,None,None,None,,['return'],[0.7843003283783219],,,2017_Jan_26_1027,60.0309066331,famFaceGrey,001,5,
119,./greyInner/JudithRakers7_1_cut.png,0,50,50,118,,,1.ja,7.219,None,None,None,host,0.694,None,None,None,,['return'],[0.6836013897295743],,,2017_Jan_26_1027,60.0309066331,famFaceGrey,001,5,
15,./greyInner/BarackObama5_2_cut.png,0,51,51,14,,,1.ja,1.71,None,None,None,None,None,polit,0.86,None,Barack Obama,"['lshift', 'b', 'a', 'r', 'a', 'c', 'k', 'space', 'lshift', 'o', 'b', 'a', 'm', 'a', 'return']","[0.933364576907934, 1.0833478484437364, 1.4998468294988925, 1.7660853886250152, 1.9328933570836853, 2.0994081363528494, 2.1994507674726265, 2.3328553772148553, 2.4495504485889796, 3.015865897702497, 3.265760923783546, 3.4655773758026953, 3.582316072701815, 3.698939931822224, 4.498514326333861]",,,2017_Jan_26_1027,60.0309066331,famFaceGrey,001,5,
53,./greyInner/DannFlorek(DonaldDonCragen)2_1_cut.png,0,52,52,52,,,2.nein,4.21,None,act,13.623,None,None,None,None,None,,['return'],[1.1175807336849175],,,2017_Jan_26_1027,60.0309066331,famFaceGrey,001,5,
10,./greyInner/AngelaMerkel6_1_cut.png,0,53,53,9,,,1.ja,1.661,None,None,None,None,None,polit,1.078,None,Angela Merkel,"['lshift', 'a', 'n', 'g', 'e', 'l', 'a', 'space', 'lshift', 'm', 'e', 'r', 'k', 'e', 'l', 'return']","[0.41739490819554703, 0.6503016416349965, 0.9003378091197192, 1.1000618776747615, 1.2169407536503059, 1.3834333993809196, 1.516508251479081, 1.6499375609673734, 1.7333842083939999, 1.883245905856711, 2.083861410688769, 2.1499768560174743, 2.366253924292323, 2.4664348098326627, 2.5665300482028215, 3.749386435861652]",,,2017_Jan_26_1027,60.0309066331,famFaceGrey,001,5,
165,./greyInner/OmarEpps(DrEricForeman)9_1_cut.png,0,54,54,164,,,1.ja,3.294,None,act,0.979,None,None,None,None,None,,['return'],[1.183157917022072],,,2017_Jan_26_1027,60.0309066331,famFaceGrey,001,5,
69,./greyInner/EmmaWatson(HermioneGranger)4_1_cut.png,0,55,55,68,,,1.ja,6.274,None,act,0.876,None,None,None,None,None,,['return'],[0.7334069834842012],,,2017_Jan_26_1027,60.0309066331,famFaceGrey,001,5,
95,./greyInner/JanHofer9_2_cut.png,0,56,56,94,,,2.nein,12.839,None,None,None,host,1.128,None,None,None,,['return'],[0.9501876699509921],,,2017_Jan_26_1027,60.0309066331,famFaceGrey,001,5,
149,./greyInner/MilaKunis5_2_cut.png,0,57,57,148,,,1.ja,6.712,None,act,1.377,None,None,None,None,None,,['return'],[24.706788997770673],,,2017_Jan_26_1027,60.0309066331,famFaceGrey,001,5,
75,./greyInner/GuentherJauch9_1_cut.png,0,58,58,74,,,1.ja,2.25,None,None,None,host,1.089,None,None,None,Günther Jauch,"['lshift', 'g', u'\xfc', 'n', 't', 'h', 'e', 'r', 'space', 'lshift', 'j', 'a', 'c', 'backspace', 'u', 'c', 'h', 'return']","[1.099167875189778, 1.366417199235002, 2.0823829544810906, 2.3822683412454353, 2.5492966827600867, 2.6161954628810236, 2.7326489899887747, 2.7992051814294427, 2.8827121347285356, 3.032408953369213, 3.1992634343359896, 3.3324345192099827, 3.5156402318439177, 4.09884966547861, 4.348695292067987, 4.4486959015421235, 4.53191960970571, 5.164987565121464]",,,2017_Jan_26_1027,60.0309066331,famFaceGrey,001,5,
214,./greyInner/notfamousface1_2_cut.png,0,59,59,213,,,2.nein,5.096,None,None,None,None,None,sport,5.902,None,,['return'],[1.1332535242845552],,,2017_Jan_26_1027,60.0309066331,famFaceGrey,001,5,
17,./greyInner/BastianSchweinsteiger12_1_cut.png,0,60,60,16,,,1.ja,1.726,None,None,None,None,None,sport,0.746,None,Bastian Schweinsteiger,"['lshift', 'b', 'a', 's', 't', 'i', 'a', 'n', 'space', 'lshift', 's', 'c', 'h', 'w', 'e', 'i', 'n', 's', 't', 'e', 'i', 'g', 'e', 'r', 'return']","[0.9837854188740494, 1.2003534309069437, 1.4840104431809777, 1.5504501929626713, 1.8668196126245675, 1.9834344900191354, 2.133243259455412, 2.249905290910192, 2.3830548837972856, 2.533170956563481, 2.83297679089992, 3.049453702572009, 3.1162761380246593, 3.24992549979288, 3.3661846366940154, 3.499187955762409, 3.5992126234305033, 3.7492170661771524, 3.8825312171106816, 4.015820347522094, 4.165895360970808, 4.365651186341438, 4.499005755040798, 4.615658483993684, 5.148801533052392]",,,2017_Jan_26_1027,60.0309066331,famFaceGrey,001,5,
209,./greyInner/WillSmith5_1_cut.png,0,61,61,208,,,1.ja,1.612,None,act,0.713,None,None,None,None,None,Will Smith,"['lshift', 'w', 'i', 'l', 'l', 'space', 'lshift', 's', 'm', 'i', 't', 'h', 'return']","[2.5992485503334137, 2.8656721971642583, 2.998692517356176, 3.1817481068605957, 3.2817708498732827, 3.4483783333830615, 3.5819394817735883, 3.815595226982623, 3.9989966129269305, 4.165466804343396, 4.34872929431549, 4.415163270130961, 5.048270680984842]",,,2017_Jan_26_1027,60.0309066331,famFaceGrey,001,5,
44,./greyInner/CobieSmulders(Robin)4_7_cut.png,0,62,62,43,,,None,None,1,None,None,None,None,None,None,1,,['return'],[0.5171283113295431],1.74970881566,1.69959784323,2017_Jan_26_1027,60.0309066331,famFaceGrey,001,5,
41,./greyInner/CobieSmulders(Robin)12_1_cut.png,0,63,63,40,,,None,None,1,None,None,None,None,None,None,1,,['return'],[0.6328106931291586],1.11666716387,0.799916983192,2017_Jan_26_1027,60.0309066331,famFaceGrey,001,5,
170,./greyInner/RobertSeanLeonard(Wilson)8_1_cut.png,0,64,64,169,,,None,None,1,None,None,None,None,None,None,1,,['return'],[0.36711039599504147],2.96620337001,0.833197484732,2017_Jan_26_1027,60.0309066331,famFaceGrey,001,5,
66,./greyInner/EmmaWatson(HermioneGranger)11_2_cut.png,0,65,65,65,,,None,None,1,None,None,None,None,None,None,1,,['return'],[0.6834531912550119],3.5155475276,0.350353062015,2017_Jan_26_1027,60.0309066331,famFaceGrey,001,5,
77,./greyInner/GeorgeClooney15_1_cut.png,0,66,66,76,,,None,None,1,None,None,None,None,None,None,1,George Clooney,"['lshift', 'g', 'e', 'o', 'r', 'g', 'e', 'space', 'lshift', 'c', 'l', 'o', 'o', 'n', 'e', 'y', 'return']","[0.666721198572759, 0.91661365844584, 1.199620778708777, 1.4330856622464125, 1.849644628398437, 1.949585573551758, 2.065943509435783, 2.399392642875682, 2.5159202692207145, 2.8990704234656732, 3.0156859424123468, 3.1989542063506633, 3.315586405644808, 3.4989361466664377, 3.6319352956475086, 4.248632131289469, 5.098308516504403]",1.24985140056,1.23295709526,2017_Jan_26_1027,60.0309066331,famFaceGrey,001,5,
164,./greyInner/OmarEpps(DrEricForeman)5_2_cut.png,0,67,67,163,,,None,None,1,None,None,None,None,None,None,1,,['return'],[0.6171144858876687],3.43218267804,0.633327463134,2017_Jan_26_1027,60.0309066331,famFaceGrey,001,5,
39,./greyInner/CarenMiosga6_2_cut.png,0,68,68,38,,,None,None,2,None,None,None,None,None,None,4,,['return'],[0.5673602162801217],22.2910804086,7.46397702475,2017_Jan_26_1027,60.0309066331,famFaceGrey,001,5,
133,./greyInner/LeonardoDiCaprio3_1_cut.png,0,69,69,132,,,None,None,1,None,None,None,None,None,None,1,Leonardo DiCaprio,"['lshift', 'l', 'e', 'o', 'n', 'a', 'r', 'd', 'o', 'space', 'lshift', 'd', 'i', 'lshift', 'c', 'a', 'p', 'r', 'i', 'o', 'return']","[0.5168402545550634, 0.8668722198749492, 1.0666796901687121, 1.1834183870678316, 1.3666510448792906, 1.499797750783273, 1.7165152443944862, 1.8832398111144357, 1.999761342716738, 2.165973630294957, 2.2827873887590613, 2.7327352787110613, 3.065905337101867, 3.3657852706755875, 3.599093936340523, 3.782319537082003, 4.048806697544478, 4.28200180853446, 4.4486686355890015, 4.615293120222759, 5.614806503154341]",2.366169881,0.533497185672,2017_Jan_26_1027,60.0309066331,famFaceGrey,001,5,
20,./greyInner/BastianSchweinsteiger6_2_cut.png,0,70,70,19,,,None,None,1,None,None,None,None,None,None,5,Bastian Schweinsteiger,"['lshift', 'b', 's', 't', 'i', 'backspace', 'backspace', 'backspace', 'a', 's', 't', 'i', 'a', 'n', 'space', 'lshift', 's', 'c', 'h', 'w', 'e', 'i', 'n', 's', 't', 'e', 'i', 'g', 'e', 'r', 'return']","[0.9166075637040194, 1.4497656892303894, 1.7163548564353732, 1.8659037973775412, 2.1160701998851437, 2.815976629549823, 2.9491980762427374, 3.082312704555079, 3.2824316482656286, 3.548975586065808, 3.7654544223933044, 4.081993853291806, 4.198453795917885, 4.281887612307855, 4.448672805676324, 4.5817922456271845, 4.798292894717179, 5.031400754657625, 5.1817102553027325, 5.298170197928357, 5.4148065673098245, 5.464787625491681, 5.581404106766058, 5.814665939146835, 5.897937442922284, 6.0644865452145496, 6.147871603664953, 6.2976367475762345, 6.447853543980727, 6.530964980572207, 8.246711966642124]",1.58342210807,1.09992939722,2017_Jan_26_1027,60.0309066331,famFaceGrey,001,5,
92,./greyInner/JanHofer3_1_cut.png,0,71,71,91,,,None,None,2,None,None,None,None,None,None,4,,['return'],[0.617628048133156],9.86308417705,5.26479602982,2017_Jan_26_1027,60.0309066331,famFaceGrey,001,5,
47,./greyInner/CristinMilioti(Tracy_Mutter)2_1_cut.png,0,72,72,46,,,None,None,1,None,None,None,None,None,None,1,,['return'],[0.7500924636588024],2.31624399628,0.350269660276,2017_Jan_26_1027,60.0309066331,famFaceGrey,001,5,
186,./greyInner/TaylorSwift1_2_cut.png,0,73,73,185,,,None,None,1,None,None,None,None,None,None,2,Taylor Swift,"['lshift', 't', 'a', 'y', 'l', 'o', 'r', 'space', 'lshift', 's', 'w', 'i', 'f', 't', 'return']","[0.6169197749049999, 0.8500998094268652, 1.1000435934474808, 1.3499767918624457, 1.5165005528574511, 1.666407479724512, 1.8330268319432435, 1.9828712075063777, 2.149524561972612, 2.3329637994752375, 2.5661791193483623, 2.715684434765535, 2.9324978403760724, 3.1155354664292645, 3.89869639874496]",1.19996048041,1.61629682807,2017_Jan_26_1027,60.0309066331,famFaceGrey,001,5,
221,./greyInner/notfamousface6_8_cut.png,0,74,74,220,,,None,None,2,None,None,None,None,None,None,1,,['return'],[0.9336734841172074],10.4962307226,2.81604848336,2017_Jan_26_1027,60.0309066331,famFaceGrey,001,5,
205,./greyInner/Usher7_1_cut.png,0,75,75,204,,,None,None,1,None,None,None,None,None,None,2,Usher,"['lshift', 'u', 's', 'h', 'e', 'r', 'return']","[0.5168829177519001, 0.7667128263215091, 0.9833453143137376, 1.083488989847865, 1.2163078627631876, 1.31665298557391, 1.8497690894550942]",1.46639246741,0.683681904485,2017_Jan_26_1027,60.0309066331,famFaceGrey,001,5,
19,./greyInner/BastianSchweinsteiger3_1_cut.png,0,76,76,18,,,None,None,1,None,None,None,None,None,None,5,Bastian Schweinsteiger,"['lshift', 'b', 'a', 's', 't', 'i', 'a', 'n', 'space', 'lshift', 's', 'c', 'h', 'w', 'e', 'i', 'n', 's', 't', 'e', 'i', 'g', 'e', 'r', 'return']","[0.8843612437253796, 1.1509199372176226, 1.36742315251513, 1.434057934055545, 1.600702948347589, 1.8338268470838557, 1.9339692395142265, 2.050581229925683, 2.200522479815845, 2.300354361157133, 2.616908547748153, 2.850278160837661, 2.95022552150931, 3.0333728850041553, 3.1334873699292984, 3.2335232647546945, 3.316561564437052, 3.449787181216834, 3.5831067853409877, 3.6998964856111343, 3.799823958176148, 3.916452628935076, 4.066248246558644, 4.132996261998414, 4.99894913809112]",1.28301161113,1.36679539404,2017_Jan_26_1027,60.0309066331,famFaceGrey,001,5,
125,./greyInner/KaleyCuoco(Penny)7_1_cut.png,0,77,77,124,,,None,None,1,None,None,None,None,None,None,1,Kaley Cucoa,"['lshift', 'k', 'a', 'l', 'e', 'y', 'space', 'lshift', 'c', 'u', 'c', 'o', 'a', 'return']","[0.28356911967239284, 0.5002006453373724, 0.600256107493351, 0.7501405800462635, 0.9165790146471409, 1.2998953308178898, 1.483069286636237, 1.5997213740374718, 1.783072718938456, 1.9161138895651675, 2.316253940331535, 2.4993983847653, 2.5993816723398595, 4.531904854013646]",2.1327005066,1.19978822374,2017_Jan_26_1027,60.0309066331,famFaceGrey,001,5,
2,./greyInner/AlysonHannigan(Lily)12_2_cut.png,0,78,78,1,,,None,None,1,None,None,None,None,None,None,1,,['return'],[0.6837120574214168],2.06632844054,1.01658860585,2017_Jan_26_1027,60.0309066331,famFaceGrey,001,5,
106,./greyInner/JoachimLoew1_1_cut.png,0,79,79,105,,,None,None,1,None,None,None,None,None,None,5,Joachim Löw,"['lshift', 'j', 'o', 'a', 'c', 'h', 'i', 'm', 'space', 'lshift', 'l', u'\xf6', 'w', 'return']","[0.46673698074800996, 0.9333498212158702, 1.1333237742110214, 1.2165397837525234, 1.3833259394486959, 1.483195351572249, 1.5998002849132718, 1.766410013854511, 1.9159044228908897, 2.0662421518163683, 2.3993191851909614, 2.665845480315511, 2.9658819525375293, 4.431901357555944]",1.24996848377,0.983361673886,2017_Jan_26_1027,60.0309066331,famFaceGrey,001,5,
143,./greyInner/MariskaHargitay(Liv)4_4_cut.png,0,80,80,142,,,None,None,1,None,None,None,None,None,None,1,,['return'],[0.40080726467613204],1.432782529,0.466784455584,2017_Jan_26_1027,60.0309066331,famFaceGrey,001,5,
175,./greyInner/SahraWagenknecht9_1_cut.png,0,81,81,174,,,None,None,1,None,None,None,None,None,None,4,Sarah Wagenknecht,"['lshift', 's', 'a', 'r', 'a', 'h', 'space', 'lshift', 'w', 'a', 'g', 'e', 'n', 'k', 'n', 'e', 'c', 'h', 't', 'return']","[0.41698174881230443, 0.7167449199519069, 0.8835246601297513, 1.0000551734578949, 1.183246451175819, 1.6331099770609399, 1.8163702216015736, 1.8996885586607277, 2.0496570745040117, 2.249489244543838, 2.3662228090279314, 2.4827472276137996, 2.599473735027914, 2.816018009642903, 2.9325969601345605, 3.548934847523924, 3.7156164302705292, 3.8323108600930027, 3.93179437878689, 4.781948078567893]",1.34998064117,0.999797590395,2017_Jan_26_1027,60.0309066331,famFaceGrey,001,5,
62,./greyInner/EmilyDeschanel3_1_cut.png,0,82,82,61,,,None,None,1,None,None,None,None,None,None,1,,['return'],[0.8334396705504332],1.28324160746,0.75001451511,2017_Jan_26_1027,60.0309066331,famFaceGrey,001,5,
54,./greyInner/DannFlorek(DonaldDonCragen)5_1_cut.png,0,83,83,53,,,None,None,1,None,None,None,None,None,None,1,,['return'],[0.4503132537233796],5.44815763955,0.816833101252,2017_Jan_26_1027,60.0309066331,famFaceGrey,001,5,
169,./greyInner/RobertSeanLeonard(Wilson)2_6_cut.png,0,84,84,168,,,None,None,1,None,None,None,None,None,None,1,,['return'],[0.21666071627305428],1.05015331485,0.483690950366,2017_Jan_26_1027,60.0309066331,famFaceGrey,001,5,
91,./greyInner/JanHofer1_3_cut.png,0,85,85,90,,,None,None,1,None,None,None,None,None,None,4,,['return'],[0.400510867727462],2.13240090189,5.96438424977,2017_Jan_26_1027,60.0309066331,famFaceGrey,001,5,
189,./greyInner/TaylorSwift7_1_cut.png,0,86,86,188,,,None,None,1,None,None,None,None,None,None,2,Taylor Swift,"['lshift', 't', 'a', 'y', 'l', 'o', 'r', 'space', 'lshift', 's', 'w', 'i', 'f', 't', 'return']","[2.6495956138387555, 2.9661135527508122, 3.1660932797126407, 3.41607940615404, 3.599213264982609, 3.732610176102753, 3.8989732283625926, 4.06567052912942, 4.215568795047147, 4.432260626584593, 4.648826072409975, 4.8320449368570735, 5.0485795881945705, 5.231742958407267, 5.631863762618195]",1.2665359184,0.533496864896,2017_Jan_26_1027,60.0309066331,famFaceGrey,001,5,
200,./greyInner/UrsulavonderLeyen8_2_cut.png,0,87,87,199,,,None,None,2,None,None,None,None,None,None,1,,['return'],[0.7168616823860248],6.48118601122,1.2664400064,2017_Jan_26_1027,60.0309066331,famFaceGrey,001,5,
27,./greyInner/Beyonce11_2_cut.png,0,88,88,26,,,None,None,1,None,None,None,None,None,None,2,Beyonce Knowles,"['lshift', 'b', 'e', 'y', 'o', 'n', 'c', 'e', 'space', 'lshift', 'k', 'n', 'o', 'w', 'l', 'e', 's', 'return']","[0.5668626928304548, 1.0500554781951905, 1.3165397516745543, 1.899509886474334, 2.0494822516288878, 2.232827822563195, 2.416082613913204, 2.549537264698756, 2.6993434679275197, 2.8492311482395962, 2.915794717526296, 3.0993067711624462, 3.4156614351322787, 3.632175236034982, 3.7823256318242784, 3.9821690290209517, 4.131798484718729, 4.748518416226489]",1.63304710498,1.58266764311,2017_Jan_26_1027,60.0309066331,famFaceGrey,001,5,
80,./greyInner/GeorgeClooney4_2_cut.png,0,89,89,79,,,None,None,1,None,None,None,None,None,None,1,George Clooney,"['lshift', 'g', 'e', 'o', 'r', 'g', 'e', 'space', 'lshift', 'c', 'l', 'o', 'o', 'n', 'e', 'y', 'return']","[0.35029692622902076, 0.6669515156822854, 0.933320630606886, 1.1501747747588524, 1.2833237260942951, 1.449921265550529, 1.566565654329679, 1.9330284037450838, 2.082960992685912, 2.3829599341252106, 2.549395802518575, 2.9159371420341813, 3.049267010987478, 3.23248234689936, 3.515775278505771, 4.015507591001551, 4.598597375219015]",1.34979394959,0.600154421527,2017_Jan_26_1027,60.0309066331,famFaceGrey,001,5,
31,./greyInner/BritneySpears1_1_cut.png,0,90,90,30,,,None,None,1,None,None,None,None,None,None,2,Britney Spears,"['lshift', 'b', 'r', 'i', 't', 'n', 'e', 'y', 'space', 'lshift', 's', 'p', 'e', 'a', 'r', 's', 'return']","[0.46683962904171494, 0.7002012227335399, 0.9832583840398001, 1.1666369948943611, 1.2997622088118987, 1.4997390487901612, 1.64982015698115, 2.049481930852835, 2.2160291084901473, 2.3493304283865655, 2.5323481663326675, 2.66598277240837, 3.2487562715700733, 3.4322542110662653, 3.6988943816418214, 3.9654893228130277, 4.665108337254878]",2.18300266148,1.11666267301,2017_Jan_26_1027,60.0309066331,famFaceGrey,001,5,
162,./greyInner/OmarEpps(DrEricForeman)2_2_cut.png,0,91,91,161,,,None,None,1,None,None,None,None,None,None,1,,['return'],[0.7335035370356309],2.79950574846,0.550113699024,2017_Jan_26_1027,60.0309066331,famFaceGrey,001,5,
81,./greyInner/HughLaurie(DrHouse)2_1_cut.png,0,92,92,80,,,None,None,1,None,None,None,None,None,None,1,,['return'],[0.5335170737794215],0.899956727329,0.600088662464,2017_Jan_26_1027,60.0309066331,famFaceGrey,001,5,
12,./greyInner/BarackObama11_2_cut.png,0,93,93,11,,,None,None,1,None,None,None,None,None,None,4,Barack Obama,"['lshift', 'b', 'a', 'r', 'a', 'c', 'k', 'space', 'lshift', 'o', 'b', 'a', 'm', 'a', 'return']","[0.5336190805214756, 0.8335112035802013, 1.000133122005991, 1.216845483202178, 1.4166186304728399, 1.5995183228806127, 1.7332822016519458, 1.8830261743523806, 2.0329972564036325, 2.399467383665069, 2.6327962582131477, 2.7324687139225716, 2.882714700935594, 3.032682575227227, 3.715804084183219]",1.649913182,0.983215079291,2017_Jan_26_1027,60.0309066331,famFaceGrey,001,5,
132,./greyInner/LeonardoDiCaprio2_1_cut.png,0,94,94,131,,,None,None,1,None,None,None,None,None,None,1,Leonardo DiCaprio,"['lshift', 'l', 'e', 'o', 'n', 'a', 'r', 'd', 'o', 'space', 'lshift', 'd', 'o', 'backspace', 'i', 'lshift', 'c', 'a', 'p', 'r', 'i', 'o', 'return']","[0.9331612049754767, 1.149916870920606, 1.3329304387798402, 1.4331434019118205, 1.6163244148006015, 1.699758231190117, 1.949622142006774, 2.1162453435363204, 2.216259746375272, 2.3828133395304576, 2.482429980230336, 2.8325081372831846, 3.1490331332652204, 3.565564191912472, 3.7984840771646304, 3.932165195748439, 4.082070839512198, 4.265056179090607, 4.8650922343035745, 5.031609259004199, 5.247995391091536, 5.531466674108742, 6.147930626433663]",1.3496419018,0.733807953382,2017_Jan_26_1027,60.0309066331,famFaceGrey,001,5,
52,./greyInner/DannFlorek(DonaldDonCragen)10_1_cut.png,0,95,95,51,,,None,None,2,None,None,None,None,None,None,1,,['return'],[0.8500818459756374],3.68233400408,1.15011767665,2017_Jan_26_1027,60.0309066331,famFaceGrey,001,5,
114,./greyInner/JoshRadnor(Ted)7_1_cut.png,0,96,96,113,,,None,None,1,None,None,None,None,None,None,1,,['return'],[0.7502012066947827],2.44941893046,0.933409485536,2017_Jan_26_1027,60.0309066331,famFaceGrey,001,5,
210,./greyInner/WillSmith6_1_cut.png,0,97,97,209,,,None,None,1,None,None,None,None,None,None,1,Will Smith,"['lshift', 'w', 'i', 'l', 'l', 'space', 'lshift', 's', 'm', 'i', 't', 'h', 'return']","[0.41680917136818607, 0.7499606247561132, 0.9831884548898415, 1.1664849471089838, 1.2998456105501646, 1.3998808638239097, 1.5329563574737222, 1.732784036650628, 1.866102678446623, 1.9994835507714015, 2.1659412319268085, 2.216228310335282, 3.1489927154993893]",1.38318287339,0.350248489065,2017_Jan_26_1027,60.0309066331,famFaceGrey,001,5,
198,./greyInner/UrsulavonderLeyen5_1_cut.png,0,98,98,197,,,None,None,1,None,None,None,None,None,None,4,Ursula Von der Leyen,"['lshift', 'u', 'r', 's', 'u', 'l', 'a', 'space', 'lshift', 'v', 'o', 'n', 'space', 'd', 'e', 'r', 'space', 'lshift', 'l', 'e', 'y', 'e', 'n', 'return']","[0.4007392601815809, 0.7340401951469175, 1.0171073005067228, 1.2505272754160615, 1.433540522498788, 1.633739660188894, 1.7502688904137358, 1.8667990829658265, 2.0502809836657434, 2.582933245568711, 2.683118301196373, 2.8830527987538517, 3.0164830705698478, 3.1997333710564817, 3.3165156934805964, 3.399580938340023, 3.516338240242476, 3.682862322013534, 3.7828404771735222, 3.9660830790380714, 4.265862930525145, 4.649086863231787, 4.749094529775903, 8.047629449923534]",8.41379291541,0.866111018621,2017_Jan_26_1027,60.0309066331,famFaceGrey,001,5,
43,./greyInner/CobieSmulders(Robin)3_4_cut.png,0,99,99,42,,,None,None,1,None,None,None,None,None,None,1,,['return'],[0.6334102233213343],1.53318218372,0.416891931556,2017_Jan_26_1027,60.0309066331,famFaceGrey,001,5,
9,./greyInner/AngelaMerkel5_1_cut.png,0,100,100,8,,,None,None,1,None,None,None,None,None,None,4,Angela Merkel,"['lshift', 'a', 'n', 'g', 'e', 'l', 'a', 'space', 'lshift', 'm', 'e', 'r', 'k', 'e', 'l', 'return']","[0.7333713773573436, 0.9332747596508852, 1.0997180058902813, 1.3165888303901738, 1.3998696366670629, 1.5662698989331147, 1.6995789174520723, 1.832919372010565, 1.9328664119066161, 2.182830725585518, 2.3826734812305403, 2.5661098317500546, 2.682580039205277, 2.7658181822848746, 2.882554312976481, 3.348967951598752]",1.03345372054,0.916848787194,2017_Jan_26_1027,60.0309066331,famFaceGrey,001,5,
122,./greyInner/KaleyCuoco(Penny)14_2_cut.png,0,101,101,121,,,None,None,1,None,None,None,None,None,None,1,Kaley Cucoa,"['lshift', 'k', 'a', 'l', 'e', 'y', 'space', 'lshift', 'c', 'u', 'c', 'o', 'a', 'return']","[0.6001958016208846, 0.8168847461747646, 0.9334819808941575, 1.0498748813529346, 1.2000095591224635, 1.5331234817276709, 1.716427351792845, 1.8163836941903355, 1.9996471464896786, 2.1496823837246666, 2.732691332410468, 2.8328010056966377, 2.9659932617810227, 4.032250169289455]",1.4664139594,0.400334761749,2017_Jan_26_1027,60.0309066331,famFaceGrey,001,5,
196,./greyInner/UrsulavonderLeyen1_1_cut.png,0,102,102,195,,,None,None,1,None,None,None,None,None,None,4,Ursula Von der Leyen,"['lshift', 'u', 'r', 's', 'u', 'l', 'a', 'space', 'lshift', 'v', 'o', 'n', 'space', 'd', 'e', 'r', 'space', 'lshift', 'l', 'e', 'y', 'e', 'n', 'return']","[0.36691760966732545, 0.8501658892660089, 1.0831775164306237, 1.283341047993872, 1.3999876822044826, 1.5998105497424149, 1.6998384251696734, 1.7999086430181706, 1.9996817902888324, 2.61578166194613, 2.682581322308579, 2.8326114271285405, 2.9493449916130885, 3.0657205701727435, 3.2159742558078506, 3.282295639275617, 3.4989707904655916, 3.649046766241554, 3.9155955156807067, 4.1321818119413365, 4.465419554050641, 4.865103461460876, 4.9651249213698065, 6.414506321049885]",1.51669750927,0.833505108837,2017_Jan_26_1027,60.0309066331,famFaceGrey,001,5,
183,./greyInner/SigmarGabriel3_3_cut.png,0,103,103,182,,,None,None,1,None,None,None,None,None,None,4,Sigmar Gabriel,"['lshift', 's', 'i', 'g', 'm', 'a', 'r', 'space', 'lshift', 'f', 'backspace', 'lshift', 'g', 'a', 'b', 'r', 'i', 'e', 'l', 'return']","[0.3005628655041619, 0.7502220571295766, 0.916950152384743, 1.1335002009659547, 1.3335293274194555, 1.4334083628205008, 1.6000469615946713, 1.7499028850907052, 1.8997600916904958, 2.2164249459733583, 2.5496341390262387, 2.682719255953998, 2.832857783034342, 2.9827634267976464, 3.0991357975981373, 3.34931823890156, 3.482599029139692, 3.5325557083519925, 3.665691828650324, 4.398367763816623]",1.61647934957,0.766673050107,2017_Jan_26_1027,60.0309066331,famFaceGrey,001,5,
65,./greyInner/EmilyDeschanel8_3_cut.png,0,104,104,64,,,None,None,1,None,None,None,None,None,None,1,,['return'],[0.36717936281729635],2.01662838206,0.916502990754,2017_Jan_26_1027,60.0309066331,famFaceGrey,001,5,
89,./greyInner/Ice-T(OdafinFinTutuola)6_1_cut.png,0,105,105,88,,,None,None,1,None,None,None,None,None,None,1,,['return'],[0.3170420867627399],1.13342898871,0.267094068501,2017_Jan_26_1027,60.0309066331,famFaceGrey,001,5,
36,./greyInner/CarenMiosga1_1_cut.png,0,106,106,35,,,None,None,2,None,None,None,None,None,None,4,,['return'],[0.3838494457472734],9.34651882746,3.63239560909,2017_Jan_26_1027,60.0309066331,famFaceGrey,001,5,
7,./greyInner/AngelaMerkel3_1_cut.png,0,107,107,6,,,None,None,1,None,None,None,None,None,None,4,Angela Merkel,"['lshift', 'a', 'n', 'g', 'e', 'l', 'a', 'space', 'lshift', 'm', 'e', 'r', 'k', 'e', 'l', 'return']","[1.1166642768862403, 1.2832743266035322, 1.5497990178482723, 1.7331667223215845, 1.8663115035701594, 2.033029654771326, 2.1328981045671753, 2.2497166746702533, 2.399587674634404, 2.5326580358700994, 2.8159541752356745, 2.8992757200539927, 3.0824349201798213, 3.232594618471012, 3.315682317644587, 3.8989289612859466]",1.1998459634,0.950050057082,2017_Jan_26_1027,60.0309066331,famFaceGrey,001,5,
116,./greyInner/JudithRakers1_1_cut.png,0,108,108,115,,,None,None,1,None,None,None,None,None,None,3,,['return'],[0.5334272565223728],4.1156025086,1.0502925316,2017_Jan_26_1027,60.0309066331,famFaceGrey,001,5,
46,./greyInner/CristinMilioti(Tracy_Mutter)10_1_cut.png,0,109,109,45,,,None,None,1,None,None,None,None,None,None,1,,['return'],[0.8000247639010922],1.73298388005,1.35005826895,2017_Jan_26_1027,60.0309066331,famFaceGrey,001,5,
153,./greyInner/NeilPatrickHarris(Barney)13_4_cut.png,0,110,110,152,,,None,None,1,None,None,None,None,None,None,1,Neil Patrick Harris,"['lshift', 'n', 'e', 'i', 'l', 'space', 'lshift', 'p', 'a', 't', 'r', 'i', 'c', 'k', 'space', 'lshift', 'h', 'a', 'r', 'r', 'i', 's', 'return']","[0.43366337967563595, 0.7332251035381887, 0.9168282575355988, 1.0332644627433183, 1.1831617663333418, 1.333173907701621, 1.416621517455951, 1.63311607180367, 1.7662428896005622, 2.032862530517832, 2.1995980036190304, 2.349213345176395, 2.51599372690589, 2.6493377100000544, 3.04932186366932, 3.165748445600002, 3.449117080323049, 3.5823590566747043, 3.8322576112905153, 4.465089796406573, 4.665239213829409, 4.76485232599407, 5.315070277191808]",1.31650767408,0.383923544985,2017_Jan_26_1027,60.0309066331,famFaceGrey,001,5,
211,./greyInner/notfamousface10_4_cut.png,0,111,111,210,,,None,None,2,None,None,None,None,None,None,1,,['return'],[0.48402391576928494],11.7624060888,7.18078000514,2017_Jan_26_1027,60.0309066331,famFaceGrey,001,5,
150,./greyInner/MilaKunis7_3_cut.png,0,112,112,149,,,None,None,1,None,None,None,None,None,None,1,Mila Kunis,"['lshift', 'm', 'i', 'l', 'a', 'space', 'lshift', 'k', 'u', 'n', 'i', 's', 'return']","[0.36698208562711443, 0.7667388091704197, 0.9498835743802374, 1.1167457539690986, 1.1998286415041548, 1.3165378270191468, 1.449238975172193, 1.8497267470338556, 2.0495916362169737, 2.132889443617387, 2.3162151264450586, 2.432565042930946, 2.9158409092583497]",2.39918606318,1.08350502864,2017_Jan_26_1027,60.0309066331,famFaceGrey,001,5,
84,./greyInner/HughLaurie(DrHouse)8_1_cut.png,0,113,113,83,,,None,None,1,None,None,None,None,None,None,1,,['return'],[0.5335032804146067],2.33247076689,0.650092495736,2017_Jan_26_1027,60.0309066331,famFaceGrey,001,5,
70,./greyInner/EmmaWatson(HermioneGranger)9_1_cut.png,0,114,114,69,,,None,None,1,None,None,None,None,None,None,1,,['return'],[2.8329716584853486],2.23272389117,0.916742931141,2017_Jan_26_1027,60.0309066331,famFaceGrey,001,5,
88,./greyInner/Ice-T(OdafinFinTutuola)5_1_cut.png,0,115,115,87,,,None,None,1,None,None,None,None,None,None,1,,['return'],[0.7168536629878872],0.716457504729,0.600095398758,2017_Jan_26_1027,60.0309066331,famFaceGrey,001,5,
222,./greyInner/notfamousface7_cut.png,0,116,116,221,,,None,None,2,None,None,None,None,None,None,1,,['return'],[0.7669360863606016],9.33022501468,4.59866473816,2017_Jan_26_1027,60.0309066331,famFaceGrey,001,5,
11,./greyInner/BarackObama1_3_cut.png,0,117,117,10,,,None,None,1,None,None,None,None,None,None,4,Barack Obama,"['lshift', 'b', 'a', 'r', 'a', 'c', 'k', 'space', 'lshift', 'o', 'b', 'a', 'm', 'a', 'return']","[0.48383626185705, 1.0338065740461388, 1.200229611402392, 1.483399365056357, 1.6498984263057537, 1.849933326725477, 1.9665722623140027, 2.1165471936760696, 2.249785641492508, 2.649622238239772, 2.8493719688681267, 2.982801278356419, 3.1161035605809957, 3.199466164716796, 3.6492456473115453]",0.983397280012,0.983205456013,2017_Jan_26_1027,60.0309066331,famFaceGrey,001,5,
34,./greyInner/BritneySpears7_1_cut.png,0,118,118,33,,,None,None,1,None,None,None,None,None,None,2,Britney Spears,"['lshift', 'b', 'r', 'i', 't', 'n', 'e', 'y', 'space', 'lshift', 's', 'p', 'e', 'a', 'r', 's', 'return']","[0.567430145430535, 1.0506594992498322, 1.3672069495464712, 1.5169839621667052, 1.6169576264637726, 1.833320662684855, 1.9501950477974788, 2.35011857481868, 2.5166477890043097, 2.649663297557254, 2.8331965224042506, 2.98311820496383, 3.0665812119623297, 3.216298881037801, 3.5161348683104734, 3.8327670034495895, 4.415758951011867]",1.79934664361,1.48311066673,2017_Jan_26_1027,60.0309066331,famFaceGrey,001,5,
63,./greyInner/EmilyDeschanel5_1_cut.png,0,119,119,62,,,None,None,1,None,None,None,None,None,None,1,,['return'],[0.5335180361071252],1.36603707977,0.949746923839,2017_Jan_26_1027,60.0309066331,famFaceGrey,001,5,
13,./greyInner/BarackObama2_1_cut.png,0,120,120,12,,,None,None,1,None,None,None,None,None,None,4,Barack Obama,"['lshift', 'b', 'a', 'r', 'a', 'c', 'k', 'space', 'lshift', 'o', 'b', 'a', 'm', 'a', 'return']","[0.4336338682915084, 1.1335069372607904, 1.3336098421750648, 1.5833656515073926, 1.7667186002881863, 1.9332090005873397, 2.0498569179017068, 2.1831489352966855, 2.3161400648805284, 2.749661020048279, 2.9661440264630983, 3.099350396687896, 3.232770724450347, 3.3490712414445625, 3.8657767701138255]",0.933694976104,0.983552535557,2017_Jan_26_1027,60.0309066331,famFaceGrey,001,5,
37,./greyInner/CarenMiosga13_1_cut.png,0,121,121,36,,,None,None,2,None,None,None,None,None,None,4,,['return'],[0.6500200003783903],9.19650283678,2.29982155236,2017_Jan_26_1027,60.0309066331,famFaceGrey,001,5,
107,./greyInner/JoachimLoew12_1_cut.png,0,122,122,106,,,None,None,1,None,None,None,None,None,None,5,Joachim Löw,"['lshift', 'j', 'o', 'a', 'c', 'h', 'i', 'm', 'space', 'lshift', 'l', u'\xf6', 'w', 'return']","[0.5666028643363461, 0.800227173505391, 1.01678299605328, 1.116767887507649, 1.2834074486090685, 1.4168011519705033, 1.533311456415504, 1.6499696385590141, 1.7996350211597019, 1.9497065060731984, 2.299635823099834, 2.7659420017889715, 2.9992516297820657, 3.482442811266992]",2.66596512973,1.33305906992,2017_Jan_26_1027,60.0309066331,famFaceGrey,001,5,
131,./greyInner/LeonardoDiCaprio1_1_cut.png,0,123,123,130,,,None,None,1,None,None,None,None,None,None,1,Leonardo DiCaprio,"['lshift', 'l', 'e', 'o', 'n', 'a', 'r', 'd', 'o', 'space', 'lshift', 'd', 'i', 'lshift', 'c', 'a', 'p', 'r', 'i', 'o', 'return']","[0.5335995131904383, 0.8503808091313658, 0.9832952732704143, 1.0835056701953363, 1.2667283839532502, 1.3501002905909445, 1.6499885643384005, 2.732930310469328, 2.832878633468681, 2.9493587849779033, 3.0494498532607395, 3.2659816176151253, 3.9156571046573845, 4.049088659576682, 4.265624273241883, 4.3989791627168415, 4.548718323778758, 4.715408246699553, 4.915257097086851, 5.0820666694253305, 6.131505937080874]",1.24984787202,0.616770934879,2017_Jan_26_1027,60.0309066331,famFaceGrey,001,5,
76,./greyInner/GeorgeClooney11_1_cut.png,0,124,124,75,,,None,None,1,None,None,None,None,None,None,1,George Clooney,"['lshift', 'g', 'e', 'o', 'r', 'g', 'e', 'space', 'lshift', 'c', 'l', 'o', 'o', 'n', 'e', 'y', 'return']","[0.7336113177439074, 1.1501362816488836, 2.8672286019204876, 3.0327585991199157, 3.232697908316368, 3.36613267099483, 3.4493268677738342, 3.59912890091573, 3.7825614021239744, 4.049088659576682, 4.248969908331674, 4.398831926570438, 4.515606871148066, 4.68213159447123, 4.798703167116855, 5.3152515155857145, 7.864112263872812]",1.23307257459,0.45015318654,2017_Jan_26_1027,60.0309066331,famFaceGrey,001,5,
157,./greyInner/NicoleKidman3_1_cut.png,0,125,125,156,,,None,None,1,None,None,None,None,None,None,1,Nicole Kidman,"['lshift', 'n', 'i', 'c', 'o', 'l', 'e', 'space', 'lshift', 'k', 'i', 'd', 'm', 'a', 'n', 'return']","[0.4337535177087375, 0.6837303416486975, 0.8837646005167699, 0.9834556612295273, 1.1002761559880128, 1.2664518751116702, 1.3501070268848707, 1.5167071325486177, 1.6665569613023763, 2.099712873475255, 2.2663764927706325, 2.3661509552225652, 2.532755551748778, 2.6327048370762896, 2.7161700895057947, 3.049417454893046]",1.94946015017,0.26704306513,2017_Jan_26_1027,60.0309066331,famFaceGrey,001,5,
57,./greyInner/ElvisPresley2_1_cut.png,0,126,126,56,,,None,None,1,None,None,None,None,None,None,2,Elvis Presley,"['lshift', 'e', 'l', 'v', 'i', 's', 'space', 'lshift', 'p', 'r', 'e', 's', 'l', 'e', 'y', 'return']","[0.5003982433026977, 0.8002249280739306, 1.0334524374320608, 1.183416783188477, 1.4666388233172256, 1.5665014991463977, 1.6832626503596657, 1.8496882539238868, 2.1830196626015095, 2.416263852307111, 2.4662266262616868, 2.699228950924862, 2.8158040521057046, 3.016059646357462, 3.4991093656626617, 4.115462971071793]",1.35014295379,0.333768947031,2017_Jan_26_1027,60.0309066331,famFaceGrey,001,5,
180,./greyInner/Shakira9_1_cut.png,0,127,127,179,,,None,None,1,None,None,None,None,None,None,2,Shakira,"['lshift', 's', 'h', 'a', 'k', 'i', 'r', 'a', 'return']","[0.41670973083364515, 0.7665684771582164, 0.9666287188756542, 1.0999268310129082, 1.533055156457067, 1.6663170209153577, 1.7664433745499082, 2.0494379845522417, 2.5327523439900688]",4.14859399103,0.433885035835,2017_Jan_26_1027,60.0309066331,famFaceGrey,001,5,
38,./greyInner/CarenMiosga2_11_cut.png,0,128,128,37,,,None,None,2,None,None,None,None,None,None,3,,['return'],[0.41691406509380613],8.48074751054,2.08278873602,2017_Jan_26_1027,60.0309066331,famFaceGrey,001,5,
202,./greyInner/Usher11_1_cut.png,0,129,129,201,,,None,None,1,None,None,None,None,None,None,2,Usher,"['lshift', 'u', 's', 'h', 'e', 'r', 'return']","[0.3834497589532475, 0.6500148679638187, 0.8166534667375345, 0.9334649797701786, 1.0330440896877917, 1.1165523260906411, 1.5830615559366379]",1.21656384195,0.483679081657,2017_Jan_26_1027,60.0309066331,famFaceGrey,001,5,
32,./greyInner/BritneySpears14_2_cut.png,0,130,130,31,,,None,None,1,None,None,None,None,None,None,2,Britney Spears,"['lshift', 'b', 'r', 'i', 't', 'n', 'e', 'y', 'space', 'lshift', 's', 'p', 'e', 'a', 'r', 's', 'return']","[0.33346388913241753, 1.049795008149431, 1.266472725546464, 1.4163604058585406, 1.549752505340166, 1.8492301859123472, 1.9660991178343465, 2.382561851210994, 2.5326885095823854, 2.6492212683415346, 2.832469964948814, 2.949152205286282, 3.2824050238641576, 3.482353635562049, 3.698768316706264, 3.8987085882299652, 4.298626020508436]",1.53325082977,0.367210478081,2017_Jan_26_1027,60.0309066331,famFaceGrey,001,5,
217,./greyInner/notfamousface2_cut.png,0,131,131,216,,,None,None,2,None,None,None,None,None,None,3,,['return'],[0.5169945477719011],9.04684098272,1.31653173228,2017_Jan_26_1027,60.0309066331,famFaceGrey,001,5,
144,./greyInner/MariskaHargitay(Liv)6_5_cut.png,0,132,132,143,,,None,None,1,None,None,None,None,None,None,1,,['return'],[0.45051598410373117],1.06655554989,1.38320211994,2017_Jan_26_1027,60.0309066331,famFaceGrey,001,5,
192,./greyInner/TomCruise4_1_cut.png,0,133,133,191,,,None,None,1,None,None,None,None,None,None,1,Tom Cruise,"['lshift', 't', 'o', 'm', 'space', 'lshift', 'c', 'r', 'u', 'i', 's', 'e', 'return']","[0.45035591692021626, 0.8667519289060692, 1.2999177851320383, 1.3998109346739511, 1.5330772899951626, 1.616405250331809, 1.8331285179096994, 2.18282655549865, 2.3828543988483943, 2.5326946043246608, 2.682630401024653, 2.8826409224748204, 3.165928400890607]",1.05041346412,0.300231503981,2017_Jan_26_1027,60.0309066331,famFaceGrey,001,5,
51,./greyInner/DannFlorek(DonaldDonCragen)1_1_cut.png,0,134,134,50,,,None,None,1,None,None,None,None,None,None,1,,['return'],[0.3339113715383064],4.41520946186,0.733360791752,2017_Jan_26_1027,60.0309066331,famFaceGrey,001,5,
142,./greyInner/MariskaHargitay(Liv)14_1_cut.png,0,135,135,141,,,None,None,1,None,None,None,None,None,None,1,,['return'],[0.33380776091644293],0.849911834739,0.599921217435,2017_Jan_26_1027,60.0309066331,famFaceGrey,001,5,
109,./greyInner/JoachimLoew4_1_cut.png,0,136,136,108,,,None,None,1,None,None,None,None,None,None,5,Joachim Löw,"['lshift', 'j', 'o', 'a', 'c', 'h', 'i', 'm', 'space', 'lshift', 'l', u'\xf6', 'w', 'return']","[0.9831162803084226, 1.1165334003117096, 1.3331261120902127, 1.4330907946614388, 1.5996277074691534, 1.7329765022018364, 1.88288150441349, 1.9662604681211633, 2.099623056218661, 2.1828284801545124, 2.416188149190475, 2.6160610577717307, 2.865915024534843, 3.1990886114608656]",1.00006062665,0.800035991058,2017_Jan_26_1027,60.0309066331,famFaceGrey,001,5,
86,./greyInner/Ice-T(OdafinFinTutuola)10_1_cut.png,0,137,137,85,,,None,None,1,None,None,None,None,None,None,1,,['return'],[0.3509426481527953],1.39954918152,1.54951288573,2017_Jan_26_1027,60.0309066331,famFaceGrey,001,5,
120,./greyInner/JudithRakers8_1_cut.png,0,138,138,119,,,None,None,1,None,None,None,None,None,None,3,,['return'],[0.5835359835200506],3.26590783915,0.41655447529,2017_Jan_26_1027,60.0309066331,famFaceGrey,001,5,
195,./greyInner/TomCruise7_1_cut.png,0,139,139,194,,,None,None,1,None,None,None,None,None,None,1,Tom Cruise,"['lshift', 't', 'o', 'm', 'space', 'lshift', 'c', 'r', 'u', 'i', 's', 'e', 'return']","[0.3837371741760762, 0.7003301746531179, 1.1168971602032798, 1.21629214474342, 1.333359957734956, 1.3999052427939205, 1.6166503231338538, 1.8999855971615034, 2.032838472324329, 2.166395129851935, 3.015981056257715, 3.1991883727714594, 3.6656411460558047]",0.883048949443,0.38327397375,2017_Jan_26_1027,60.0309066331,famFaceGrey,001,5,
155,./greyInner/NeilPatrickHarris(Barney)3_7_cut.png,0,140,140,154,,,None,None,1,None,None,None,None,None,None,1,Neil Patrick Harris,"['lshift', 'n', 'e', 'i', 'l', 'space', 'lshift', 'p', 'a', 't', 'r', 'i', 'c', 'k', 'space', 'lshift', 'h', 'a', 'r', 'r', 'i', 's', 'return']","[0.317078655217756, 0.8669755097207599, 1.0667913201887131, 1.1502107016622176, 1.316762049385943, 1.4499392290022115, 1.533236074074921, 1.7333277518323484, 1.8498255460167456, 2.133096664860659, 2.266183064892175, 2.4329618427423156, 2.5496312520431275, 2.6495725179725014, 2.7994310076760485, 2.882867390273077, 3.049335657034135, 3.2159328757143157, 3.4489910153874916, 3.5657300330622093, 3.7156751322640957, 3.8157389345942647, 4.415429834918996]",1.18334909947,0.733601373691,2017_Jan_26_1027,60.0309066331,famFaceGrey,001,5,
26,./greyInner/Beyonce1_1_cut.png,0,141,141,25,,,None,None,1,None,None,None,None,None,None,2,Beyonce Knowles,"['lshift', 'b', 'e', 'y', 'o', 'n', 'c', 'e', 'space', 'lshift', 'k', 'n', 'o', 'w', 'l', 'e', 's', 'return']","[0.3667206532536511, 0.8334569924500101, 1.083492197607029, 1.416665784533052, 1.549905515453247, 1.716642271658202, 1.816580329827957, 1.933091917377169, 2.049788913406701, 2.23308893416106, 2.366271566967953, 2.5162038351327283, 2.7328129064831046, 2.8659679525612773, 3.0827114290214013, 3.5656777465874256, 3.7490528289067697, 3.949022611815053]",1.400464676,0.233538341223,2017_Jan_26_1027,60.0309066331,famFaceGrey,001,5,
194,./greyInner/TomCruise6_1_cut.png,0,142,142,193,,,None,None,1,None,None,None,None,None,None,1,Tom Cruise,"['lshift', 't', 'o', 'm', 'space', 'lshift', 'c', 'r', 'u', 'i', 's', 'e', 'return']","[0.3335299689711064, 0.9167714801978946, 1.2499578981605737, 1.3833339588463787, 1.4995295821154286, 1.5490182492626445, 1.7490948505519555, 2.166072108501794, 2.382749825898827, 2.532555066799887, 2.699261028516503, 2.8824850253781733, 3.3990221466901858]",1.11657093109,0.217147012566,2017_Jan_26_1027,60.0309066331,famFaceGrey,001,5,
14,./greyInner/BarackObama4_1_cut.png,0,143,143,13,,,None,None,1,None,None,None,None,None,None,4,Barack Obama,"['lshift', 'b', 'a', 'r', 'a', 'c', 'k', 'space', 'lshift', 'o', 'b', 'a', 'm', 'a', 'return']","[0.40077197932532727, 0.7507025794552646, 0.883890344676729, 1.0838697508629593, 1.2506263951745495, 1.4337730850397747, 1.5338773051357748, 1.6503981951864262, 1.7504485249278332, 1.9335974602245187, 2.116767887507649, 2.2335534176909277, 2.3666927457488782, 2.4500762003194723, 2.949781888414236]",1.16652728953,1.24950624567,2017_Jan_26_1027,60.0309066331,famFaceGrey,001,5,
160,./greyInner/NicoleKidman8_2_cut.png,0,144,144,159,,,None,None,1,None,None,None,None,None,None,1,Nicole Kidman,"['lshift', 'n', 'i', 'c', 'o', 'l', 'e', 'space', 'lshift', 'k', 'i', 'd', 'm', 'a', 'n', 'return']","[0.3170212363279461, 0.6165014831071858, 0.8001809817728827, 0.8833722915683211, 1.0329456114804998, 1.1998084326214666, 1.283163979686833, 1.4328777994514894, 1.6163609832551629, 1.9830110658067497, 2.216108660917598, 2.3320807033715028, 2.4993486644975746, 2.61535887928585, 2.6824363315936353, 3.065446627538222]",2.63264613508,0.183938044056,2017_Jan_26_1027,60.0309066331,famFaceGrey,001,5,
199,./greyInner/UrsulavonderLeyen7_1_cut.png,0,145,145,198,,,None,None,1,None,None,None,None,None,None,4,Ursula Von der Leyen,"['lshift', 'u', 'r', 's', 'u', 'l', 'a', 'space', 'lshift', 'v', 'o', 'n', 'space', 'd', 'e', 'r', 'space', 'lshift', 'l', 'e', 'y', 'e', 'n', 'return']","[0.3676473748819262, 0.6675070995729584, 0.9175840055991102, 1.1174556310766093, 1.2672467578372562, 1.4668858207737685, 1.5505114611628414, 1.7168350579850085, 1.833771352849908, 2.2335412282059224, 2.333483777239053, 2.5000781089361226, 2.6500610596958722, 2.7165765125946564, 2.8334871453862434, 2.933249739128769, 3.033162456001264, 3.2330802732112716, 3.5830095902374524, 3.782916180290158, 4.1659441189103745, 4.4158632031849265, 4.615894254293835, 5.198948753160039]",3.16596272391,0.966929606687,2017_Jan_26_1027,60.0309066331,famFaceGrey,001,5,
188,./greyInner/TaylorSwift3_1_cut.png,0,146,146,187,,,None,None,1,None,None,None,None,None,None,2,Taylor Swift,"['lshift', 't', 'a', 'y', 'l', 'o', 'r', 'space', 'lshift', 's', 'w', 'i', 'f', 't', 'return']","[0.383574861561101, 0.6500940996156714, 0.8168183455595681, 1.1830700244204309, 1.3332422329722249, 1.4497586321599556, 1.633092013609712, 1.7662319832193134, 1.9328994518259606, 2.132926653623599, 2.31605024762257, 2.4660232543292295, 2.6489858188174367, 2.849241413069194, 3.5489662835639137]",1.34969579216,0.18382224395,2017_Jan_26_1027,60.0309066331,famFaceGrey,001,5,
96,./greyInner/JasonSegel(Marshall)11_1_cut.png,0,147,147,95,,,None,None,1,None,None,None,None,None,None,1,Jason Segal,"['lshift', 'j', 'a', 's', 'o', 'n', 'space', 'lshift', 's', 'e', 'g', 'a', 'l', 'return']","[0.41747734760656385, 0.7342679460493855, 0.8507939685146084, 1.0507406555570924, 1.1672429406044103, 1.3340781750162023, 1.5005435547941488, 1.6003667751851935, 1.8337825800072096, 2.0335865217657556, 2.2169346589080305, 2.316881698803627, 2.4500505382461597, 3.5497056720560067]",10.5460834704,0.633468925314,2017_Jan_26_1027,60.0309066331,famFaceGrey,001,5,
48,./greyInner/CristinMilioti(Tracy_Mutter)4_2_cut.png,0,148,148,47,,,None,None,1,None,None,None,None,None,None,1,,['return'],[0.4334106082519611],1.26656222203,0.250176988113,2017_Jan_26_1027,60.0309066331,famFaceGrey,001,5,
30,./greyInner/Beyonce8_3_cut.png,0,149,149,29,,,None,None,1,None,None,None,None,None,None,2,Beyonce Knowles,"['lshift', 'b', 'e', 'y', 'o', 'n', 'c', 'e', 'space', 'lshift', 'k', 'n', 'w', 'backspace', 'o', 'w', 'l', 'e', 's', 'return']","[0.6670897701033027, 1.0331201135804804, 1.2668688838057278, 1.533273284081588, 1.6668241676429716, 1.833014963234291, 1.9997523609908967, 2.099905980578569, 2.249756130107926, 2.4164630541527004, 2.6662698668556004, 2.849533319155398, 3.0491935533023025, 3.749252351528412, 4.015701981208622, 4.26531536603261, 4.348790241740062, 4.5655138300935505, 4.732037911864609, 5.481183124235486]",1.09991624541,0.216924714854,2017_Jan_26_1027,60.0309066331,famFaceGrey,001,5,
59,./greyInner/ElvisPresley5_2_cut.png,0,150,150,58,,,None,None,1,None,None,None,None,None,None,2,Elvis Presley,"['lshift', 'e', 'l', 'v', 'i', 's', 'space', 'lshift', 'p', 'r', 'e', 's', 'l', 'e', 'y', 'return']","[0.36748153373218884, 1.3167973347367479, 1.633701487854978, 1.8502457624699673, 1.983531685122216, 2.0667627711318346, 2.216648206012451, 2.333365090149073, 2.7498207664552865, 2.966398722541726, 2.999512741379931, 3.23305525268961, 3.3661198399581735, 3.499552677981683, 3.882619430487921, 4.482507287226781]",1.16709185515,0.216868258292,2017_Jan_26_1027,60.0309066331,famFaceGrey,001,5,
22,./greyInner/BenedictCumberbatch2_2_cut.png,0,151,151,21,,,None,None,1,None,None,None,None,None,None,1,Benedict Cumberbatch,"['lshift', 'b', 'e', 'n', 'd', 'e', 'c', 'i', 'backspace', 'backspace', 'backspace', 'backspace', 'e', 'd', 'i', 'c', 't', 'space', 'lshift', 'c', 'u', 'm', 'b', 'e', 'r', 'b', 'a', 't', 'c', 'h', 'return']","[0.3005003141997804, 0.6836273725789397, 0.8335272423760216, 0.9335801383249418, 1.033694302474487, 1.2168134056105373, 1.4667543026475869, 1.4919111540521044, 1.9165084439450766, 2.049512083789068, 2.1831928815972788, 2.782442715034449, 3.315815118874525, 3.599091049357412, 3.6990303906313784, 3.7990123951021815, 4.015614730158632, 4.115606037130874, 4.31551262718358, 4.582079981626066, 4.7485492107148275, 4.915351725982873, 5.098565778790999, 5.148432319970198, 5.214756269645477, 5.498447925718665, 5.631371050807502, 5.814923522209483, 5.93161281961693, 6.031179098497887, 6.947622104155471]",2.09968817373,1.23336929231,2017_Jan_26_1027,60.0309066331,famFaceGrey,001,5,
33,./greyInner/BritneySpears5_1_cut.png,0,152,152,32,,,None,None,1,None,None,None,None,None,None,2,Britney Spears,"['lshift', 'b', 'r', 'i', 't', 'n', 'e', 'y', 'space', 'lshift', 's', 'p', 'e', 'a', 'r', 's', 'return']","[0.41687877974300136, 1.083352339306657, 1.3164855405443632, 1.4831626324285025, 1.633118638011183, 1.81631023650516, 1.9162149339795178, 2.3326430235570115, 2.49931562457823, 2.599390012513595, 2.7655599576705754, 2.9822944524053128, 3.065567880835715, 3.182386450938793, 3.4489271809798083, 3.648881245868324, 4.181933515341825]",1.28321145452,0.2837885304,2017_Jan_26_1027,60.0309066331,famFaceGrey,001,5,
220,./greyInner/notfamousface5_1_cut.png,0,153,153,219,,,None,None,2,None,None,None,None,None,None,4,,['return'],[0.450421355207709],8.24748054574,0.900147909776,2017_Jan_26_1027,60.0309066331,famFaceGrey,001,5,
112,./greyInner/JoshRadnor(Ted)3_1_cut.png,0,154,154,111,,,None,None,1,None,None,None,None,None,None,1,,['return'],[0.30027384640152377],2.93262230143,0.850039503554,2017_Jan_26_1027,60.0309066331,famFaceGrey,001,5,
78,./greyInner/GeorgeClooney16_1_cut.png,0,155,155,77,,,None,None,1,None,None,None,None,None,None,1,George Clooney,"['lshift', 'g', 'e', 'o', 'r', 'g', 'e', 'space', 'lshift', 'c', 'l', 'o', 'o', 'n', 'e', 'y', 'return']","[0.46670875246718424, 0.9833228599995891, 1.2332073004749873, 1.4331065126816611, 1.5831956402703327, 1.7664565263626173, 1.8830624220317986, 2.01608370455142, 2.199490543686352, 2.516146416243373, 2.6659593557665175, 2.8158720566007105, 2.932547239867745, 3.0825805524468706, 3.2155456991808933, 3.682173936892468, 4.1487255091597035]",1.54993887615,0.249932877639,2017_Jan_26_1027,60.0309066331,famFaceGrey,001,5,
215,./greyInner/notfamousface13_1_cut.png,0,156,156,214,,,None,None,2,None,None,None,None,None,None,1,,['return'],[0.3843363835917444],11.2458083409,1.5663821705,2017_Jan_26_1027,60.0309066331,famFaceGrey,001,5,
40,./greyInner/CarenMiosga9_1_cut.png,0,157,157,39,,,None,None,2,None,None,None,None,None,None,4,,['return'],[0.2674315247663799],21.3912340282,1.49972044379,2017_Jan_26_1027,60.0309066331,famFaceGrey,001,5,
224,./greyInner/notfamousface9_1_cut.png,0,158,158,223,,,None,None,2,None,None,None,None,None,None,2,,['return'],[0.566837993084846],6.88078042215,1.29962363361,2017_Jan_26_1027,60.0309066331,famFaceGrey,001,5,
35,./greyInner/BritneySpears8_5_cut.png,0,159,159,34,,,None,None,1,None,None,None,None,None,None,1,Britney Spears,"['lshift', 'b', 'r', 'i', 't', 'n', 'e', 'y', 'space', 'lshift', 's', 'p', 'e', 'a', 'r', 's', 'return']","[0.41696346458502376, 0.7832821856131886, 1.0666565943029127, 1.199831207711668, 1.3331877010664357, 1.4830407375793584, 1.5663093543707873, 1.916313412186355, 2.0662219429332254, 2.199490222910299, 2.3661435773765334, 2.4827780221021385, 2.6327734831229463, 2.7491862716888136, 2.9824080070802665, 3.149068739392078, 3.6322823751916076]",1.45001044126,0.983201606703,2017_Jan_26_1027,60.0309066331,famFaceGrey,001,5,
42,./greyInner/CobieSmulders(Robin)2_1_cut.png,0,160,160,41,,,None,None,1,None,None,None,None,None,None,1,,['return'],[0.35018625853672347],1.36635978035,0.650065550559,2017_Jan_26_1027,60.0309066331,famFaceGrey,001,5,
4,./greyInner/AlysonHannigan(Lily)5_4_cut.png,0,161,161,3,,,None,None,1,None,None,None,None,None,None,1,,['return'],[0.26670657119120733],0.816681695019,0.25025429511,2017_Jan_26_1027,60.0309066331,famFaceGrey,001,5,
71,./greyInner/GuentherJauch2_1_cut.png,0,162,162,70,,,None,None,1,None,None,None,None,None,None,3,Günther Jauch,"['lshift', 'g', u'\xfc', 'n', 'r', 'backspace', 't', 'h', 'e', 'r', 'space', 'lshift', 'j', 'a', 'u', 'c', 'h', 'return']","[0.7669825988691628, 1.0000291906089842, 1.4168550423250963, 1.6331927372484643, 1.8166810534667093, 2.266452195887723, 2.449524465740069, 2.5995725340112585, 2.699631524702909, 2.7828776871801892, 2.999400790584332, 3.1326312190030876, 3.415878279653498, 3.5658859301588564, 3.6324209503886777, 3.78253445694736, 3.8990954439877896, 4.7154002273018705]",1.0500994245,0.916652472332,2017_Jan_26_1027,60.0309066331,famFaceGrey,001,5,
151,./greyInner/NeilPatrickHarris(Barney)1_1_cut.png,0,163,163,150,,,None,None,1,None,None,None,None,None,None,1,Neil Patrick Harris,"['lshift', 'n', 'e', 'i', 'l', 'space', 'lshift', 'p', 'a', 't', 'r', 'i', 'c', 'k', 'space', 'lshift', 'h', 'a', 'r', 'r', 'i', 's', 'return']","[0.4838907937632939, 0.7332629550965066, 0.9003804723165558, 0.9837581529209274, 1.1501603398428415, 1.283682032795241, 1.3832556895222297, 1.5667911598006867, 1.6834066787469055, 1.883141012131091, 2.0332631796400165, 2.2331088222676954, 2.366396990351859, 2.482997753606014, 2.5996556149739263, 2.6996097119399565, 2.916200499063052, 3.065885448994777, 3.2661888388583975, 3.5325810496492522, 3.766035989133343, 3.8825042719331577, 4.065910148740386]",1.23291988525,0.15035152229,2017_Jan_26_1027,60.0309066331,famFaceGrey,001,5,
212,./greyInner/notfamousface11_1_cut.png,0,164,164,211,,,None,None,2,None,None,None,None,None,None,5,,['return'],[0.2502822026144713],6.5976039322,0.600082246945,2017_Jan_26_1027,60.0309066331,famFaceGrey,001,5,
102,./greyInner/JimParsons(SheldonCooper)10_1_cut.png,0,165,165,101,,,None,None,1,None,None,None,None,None,None,1,Jim Parson,"['lshift', 'j', 'i', 'm', 'space', 'lshift', 'p', 'a', 'r', 's', 'o', 'n', 'return']","[0.5837258828637459, 0.767026545169756, 0.9334758861514274, 1.0502803421140925, 1.1998902304808325, 1.4666510128017762, 1.61651688035181, 1.8332642061232036, 2.033097659266332, 2.2163598284619184, 2.3165551489187237, 2.449702175598759, 2.799286658512756]",1.23321660298,1.01638715857,2017_Jan_26_1027,60.0309066331,famFaceGrey,001,5,
134,./greyInner/LeonardoDiCaprio4_1_cut.png,0,166,166,133,,,None,None,1,None,None,None,None,None,None,1,Leonardo DiCaprio,"['lshift', 'l', 'e', 'o', 'n', 'a', 'r', 'd', 'o', 'space', 'd', 'lshift', 'i', 'backspace', 'i', 'backspace', 'backspace', 'lshift', 's', 'backspace', 'lshift', 'd', 'i', 'c', 'backspace', 'lshift', 'c', 'a', 'p', 'r', 'i', 'o', 'return']","[0.30088075443927664, 1.0173732237435615, 1.183781505407751, 1.2502642391627887, 1.4004274659891962, 1.517083402701246, 1.7502012066947827, 1.9502473342722624, 2.116583441354578, 2.250116682240332, 2.4333169416840974, 3.432892555144008, 3.6327795778652217, 4.049312561167881, 4.698968480879103, 5.165615644370064, 5.298557374462234, 5.482161170010841, 5.84863161804833, 6.215165258941852, 6.298394741071206, 6.498019048315655, 6.964827562093433, 7.297407713570465, 7.764403881260478, 7.914514180059996, 8.28068534416525, 8.513789675570479, 8.714073818879115, 8.964019848330736, 9.130628294168218, 9.297219738882177, 9.896989550083163]",1.31644287735,0.183550546746,2017_Jan_26_1027,60.0309066331,famFaceGrey,001,5,
113,./greyInner/JoshRadnor(Ted)6_2_cut.png,0,167,167,112,,,None,None,1,None,None,None,None,None,None,1,,['return'],[0.3501897870719404],1.44977467096,1.16667067637,2017_Jan_26_1027,60.0309066331,famFaceGrey,001,5,
100,./greyInner/JasonSegel(Marshall)9_1_cut.png,0,168,168,99,,,None,None,1,None,None,None,None,None,None,1,Jason Segal,"['lshift', 'j', 'a', 's', 'o', 'n', 'space', 'lshift', 's', 'e', 'g', 'a', 'l', 'return']","[0.4332707499515891, 0.6165999613144777, 0.7499442651842401, 0.8499596303508952, 0.9499111611094122, 1.8495127894962025, 1.9994421706778667, 2.1660259167697404, 2.4160344975252883, 2.6158910465346707, 2.8157678044267413, 2.9321998395480477, 3.1824024897346135, 4.6149444367993055]",1.56610469934,0.250267767698,2017_Jan_26_1027,60.0309066331,famFaceGrey,001,5,
6,./greyInner/AngelaMerkel1_1_cut.png,0,169,169,5,,,None,None,1,None,None,None,None,None,None,4,Angela Merkel,"['lshift', 'a', 'n', 'g', 'e', 'l', 'a', 'space', 'lshift', 'm', 'e', 'r', 'k', 'e', 'l', 'return']","[0.5835006981687911, 0.8167843433125199, 0.966772747262894, 1.1668137424253473, 1.2665336729710361, 1.43324989951725, 1.5331440113864119, 1.6664774088749255, 1.7662512297747526, 1.8664677214419498, 2.082752809114936, 2.2327566103094796, 2.382923686446702, 2.499326851735077, 2.5994403743329713, 3.0325991734889612]",1.09971832667,1.08342675932,2017_Jan_26_1027,60.0309066331,famFaceGrey,001,5,
24,./greyInner/BenedictCumberbatch4_1_cut.png,0,170,170,23,,,None,None,1,None,None,None,None,None,None,1,Benedict Cumberbatch,"['lshift', 'b', 'e', 'n', 'e', 'd', 'i', 'c', 't', 'space', 'lshift', 'c', 'u', 'm', 'b', 'e', 'r', 'n', 'backspace', 'b', 'a', 't', 'c', 'h', 'return']","[0.2837853226410516, 0.8003474644747257, 0.983596161082005, 1.0669542743548845, 1.1500541630139196, 1.3500720623101188, 1.7998698291321489, 1.8829177520919984, 2.099740780980028, 2.24964674551984, 2.4163514241326993, 2.749358849132932, 2.982782673352631, 3.132627369691818, 3.332549998540344, 3.3992489352644952, 3.4991205928195086, 3.66581885591404, 4.132316858602735, 4.332224090207092, 4.465442649916895, 4.598822239137462, 4.815264507010397, 4.966350926929863, 6.048128898028608]",1.06653245402,0.799755953681,2017_Jan_26_1027,60.0309066331,famFaceGrey,001,5,
115,./greyInner/JoshRadnor(Ted)9_1_cut.png,0,171,171,114,,,None,None,1,None,None,None,None,None,None,1,,['return'],[0.2337805270408353],1.39973908087,0.233665689263,2017_Jan_26_1027,60.0309066331,famFaceGrey,001,5,
21,./greyInner/BenedictCumberbatch16_1_cut.png,0,172,172,20,,,None,None,1,None,None,None,None,None,None,1,Benedict Cumberbatch,"['lshift', 'b', 'e', 'n', 'e', 'd', 'i', 'c', 't', 'space', 'lshift', 'c', 'u', 'm', 'b', 'e', 'r', 'b', 'a', 't', 'backspace', 't', 'a', 'backspace', 'c', 'h', 'return']","[0.5002955950089927, 1.0833071099023073, 1.250163836300544, 1.6331914541447077, 1.8996705952094999, 2.116256249918024, 2.249486999112378, 2.33277037159678, 2.5494567499436016, 2.699523102442072, 2.849335721189618, 3.499026605475592, 3.7157200408928475, 3.8989331313728144, 4.0822466247159355, 4.198535593777251, 4.249545059553839, 4.548554728060935, 4.781619283251985, 4.881971463132686, 5.564897940329956, 6.697618335038442, 6.847787015055019, 7.347533120915614, 7.430763565373127, 7.564144116921852, 8.38033149624971]",1.20007788439,0.517024059156,2017_Jan_26_1027,60.0309066331,famFaceGrey,001,5,
68,./greyInner/EmmaWatson(HermioneGranger)3_1_cut.png,0,173,173,67,,,None,None,1,None,None,None,None,None,None,1,,['return'],[0.20019625070699476],1.81627013951,0.200596258277,2017_Jan_26_1027,60.0309066331,famFaceGrey,001,5,
146,./greyInner/MilaKunis1_3_cut.png,0,174,174,145,,,None,None,1,None,None,None,None,None,None,1,Mila Kunis,"['lshift', 'm', 'i', 'l', 'a', 'space', 'lshift', 'k', 'u', 'n', 'i', 's', 'return']","[0.43354918344903126, 0.7336228656777166, 0.950119665456441, 1.1334180823309907, 1.2334619965545244, 1.3834221722240727, 1.5166830743551145, 1.783263901385908, 1.9664051380605088, 2.0331958166971162, 2.1995585481813578, 2.28307480398189, 2.4993935731263264]",5.13188862275,0.900137965722,2017_Jan_26_1027,60.0309066331,famFaceGrey,001,5,
99,./greyInner/JasonSegel(Marshall)7_1_cut.png,0,175,175,98,,,None,None,1,None,None,None,None,None,None,1,Jason Segal,"['lshift', 'j', 'a', 's', 'o', 'n', 'space', 'lshift', 's', 'e', 'g', 'a', u'\xf6', 'backspace', 'l', 'return']","[0.7334271923673441, 0.899840285670507, 1.050003191720407, 1.1832714716974806, 1.2996075948190082, 1.4664598303547791, 1.5997457530074826, 1.6663128508289446, 1.7997312539355335, 1.9996564489915727, 2.115870998040009, 2.2329131489577776, 2.366185919797772, 3.2990638796372878, 3.5323205796039474, 3.815356248923763]",1.21661805308,0.167203485166,2017_Jan_26_1027,60.0309066331,famFaceGrey,001,5,
184,./greyInner/SigmarGabriel4_5_cut.png,0,176,176,183,,,None,None,1,None,None,None,None,None,None,4,Sigmar Gabriel,"['lshift', 's', 'i', 'g', 'm', 'a', 'r', 'space', 'lshift', 'g', 'a', 'b', 'r', 'i', 'e', 'l', 'return']","[0.8002053607428934, 1.0834306086303513, 1.333016085950021, 1.5665512194136682, 1.7495705612391248, 1.833188503006113, 2.0163987065029687, 2.149643890614243, 2.2495434556740292, 2.3996027511025204, 2.549255944218203, 2.6494288103608596, 2.8493524015370895, 2.9659188417676887, 3.0659040539981106, 3.1824021689585607, 3.8156507212165707]",1.46644218768,0.467048774941,2017_Jan_26_1027,60.0309066331,famFaceGrey,001,5,
85,./greyInner/HughLaurie(DrHouse)9_2_cut.png,0,177,177,84,,,None,None,1,None,None,None,None,None,None,1,,['return'],[0.15048849360755412],1.09994768145,0.0839505863946,2017_Jan_26_1027,60.0309066331,famFaceGrey,001,5,
197,./greyInner/UrsulavonderLeyen4_1_cut.png,0,178,178,196,,,None,None,1,None,None,None,None,None,None,4,,['return'],[0.5176790835816973],1.31671104601,0.433615584064,2017_Jan_26_1027,60.0309066331,famFaceGrey,001,5,
111,./greyInner/JoshRadnor(Ted)1_2_cut.png,0,179,179,110,,,None,None,1,None,None,None,None,None,None,1,,['return'],[0.8003051220534871],3.59933965069,0.283369276275,2017_Jan_26_1027,60.0309066331,famFaceGrey,001,5,
182,./greyInner/SigmarGabriel11_3_cut.png,0,180,180,181,,,None,None,1,None,None,None,None,None,None,4,Sigmar Gabriel,"['lshift', 's', 'i', 'g', 'm', 'a', 'r', 'space', 'lshift', 'g', 'a', 'b', 'r', 'i', 'e', 'l', 'return']","[0.41712866418311023, 0.7167741105604364, 0.9335406828872692, 1.1502010783847254, 1.3833625079032572, 1.4666362571097125, 1.6500241704657128, 2.1998119611566835, 2.332907663689639, 2.466211870569623, 2.64958117892229, 2.7825883473014983, 2.9990752030271324, 3.13278711609928, 3.282546806819937, 3.815754331838434, 4.465301187737168]",1.39994758522,0.800139280904,2017_Jan_26_1027,60.0309066331,famFaceGrey,001,5,
166,./greyInner/RobertSeanLeonard(Wilson)1_1_cut.png,0,181,181,165,,,None,None,1,None,None,None,None,None,None,1,,['return'],[0.56713150304995],1.2667024011,0.75024322834,2017_Jan_26_1027,60.0309066331,famFaceGrey,001,5,
176,./greyInner/Shakira1_1_cut.png,0,182,182,175,,,None,None,1,None,None,None,None,None,None,2,Shakira,"['lshift', 's', 'h', 'a', 'k', 'i', 'r', 'a', 'return']","[1.0666713499954312, 1.2999565990185147, 1.4330099591302314, 1.566470063106408, 2.0995608256903324, 2.2160044087445385, 2.299658277414437, 2.565713673490791, 3.4822898011543657]",1.26657216608,0.583716901138,2017_Jan_26_1027,60.0309066331,famFaceGrey,001,5,
148,./greyInner/MilaKunis4_1_cut.png,0,183,183,147,,,None,None,1,None,None,None,None,None,None,1,Mila Kunis,"['lshift', 'm', 'i', 'l', 'a', 'space', 'lshift', 'j', 'backspace', 'lshift', 'k', 'u', 'n', 'i', 's', 'return']","[0.3836515270054406, 0.6669377223174706, 0.833454426242497, 0.9835262319315916, 1.0833780013799696, 1.1999867840318075, 1.316527562189549, 1.4165256054561723, 1.7664321473926066, 1.8997267309950985, 2.03299918105904, 2.2495437764496273, 2.3495953892952457, 2.5160059163908954, 2.5993884086337857, 2.916027600842881]",1.39975030803,0.300211295098,2017_Jan_26_1027,60.0309066331,famFaceGrey,001,5,
56,./greyInner/ElvisPresley1_1_cut.png,0,184,184,55,,,None,None,1,None,None,None,None,None,None,2,Elvis Presley,"['lshift', 'e', 'l', 'v', 'i', 's', 'space', 'lshift', 'p', 'r', 'e', 's', 'l', 'e', 'y', 'return']","[0.7000283245138235, 1.0500234006035498, 1.1994876567032406, 1.3663514401719112, 1.5164312652591434, 1.6494939278722995, 1.7830268479820006, 1.9328320888830604, 2.0327348617024654, 2.3492884067413797, 2.399440117711947, 2.6159356343873696, 2.7493286961966987, 2.8824574386494533, 3.2489660590208587, 4.048305004008398]",1.25019302691,0.316775521975,2017_Jan_26_1027,60.0309066331,famFaceGrey,001,5,
147,./greyInner/MilaKunis10_1_cut.png,0,185,185,146,,,None,None,1,None,None,None,None,None,None,1,Mila Kunis,"['lshift', 'm', 'i', 'l', 'a', 'space', 'lshift', 'k', 'u', 'n', 'i', 's', 'return']","[0.38354919948778843, 0.7002573585195933, 0.8666249016423535, 1.050146257779943, 1.1500798250872322, 1.250191743805317, 1.399917753054524, 1.8997122960786328, 2.0829565018229914, 2.166429452875036, 2.316304622926509, 2.4496216608431496, 2.8994717141399633]",1.29997584557,0.699919581477,2017_Jan_26_1027,60.0309066331,famFaceGrey,001,5,
16,./greyInner/BastianSchweinsteiger1_1_cut.png,0,186,186,15,,,None,None,1,None,None,None,None,None,None,5,Bastian Schweinsteiger,"['lshift', 'b', 'a', 's', 't', 'i', 'a', 'n', 'space', 'lshift', 's', 'c', 'h', 'w', 'e', 'i', 'n', 's', 't', 'e', 'i', 'g', 'e', 'r', 'return']","[0.7831634985232085, 1.0166094562819126, 1.1498940958308594, 1.2164538158062896, 1.3831992329605782, 1.6164719717230582, 1.7662650231391126, 1.8663256177101175, 1.9993196342770716, 2.0493882642849712, 2.2158340767314257, 2.399290636134083, 2.482714829246106, 2.5994252978644, 2.6992443481690316, 2.7659282084250663, 2.8658152632237943, 2.999308727895823, 3.1490911937066812, 3.2489599642785834, 3.365712454542063, 3.465561657782928, 3.5821874415587445, 3.681990773843154, 4.082071481064304]",1.25004418688,0.533190523895,2017_Jan_26_1027,60.0309066331,famFaceGrey,001,5,
190,./greyInner/TaylorSwift8_1_cut.png,0,187,187,189,,,None,None,1,None,None,None,None,None,None,2,Taylor Swift,"['lshift', 't', 'a', 'y', 'l', 'o', 'r', 'space', 'lshift', 's', 'w', 'i', 'f', 't', 'return']","[0.3510655053296432, 0.8674114441942038, 1.0507987159980985, 1.2671806779981125, 1.4672970555016036, 1.6006602851502976, 1.8005043238990766, 1.9505600907923508, 2.067000466087393, 2.2005138188660567, 2.416690805054259, 2.5668373515327403, 2.7667452246892026, 2.934653133771917, 3.2666581340272387]",1.26634826449,0.200227365971,2017_Jan_26_1027,60.0309066331,famFaceGrey,001,5,
97,./greyInner/JasonSegel(Marshall)14_1_cut.png,0,188,188,96,,,None,None,1,None,None,None,None,None,None,1,Jason Segal,"['lshift', 'j', 'a', 's', 'o', 'n', 'space', 'lshift', 's', 'e', 'g', 'a', 'l', 'return']","[0.35057760515792324, 0.8001011085698337, 0.9337084486924141, 1.0002059381399704, 1.166858651054099, 1.316822676034917, 1.4664524525087472, 1.5666051097682612, 1.70000971951049, 1.8834508816689777, 1.9831868510104869, 2.116556816953562, 2.266415306657109, 2.5162740850591945]",1.16666971404,1.11629923389,2017_Jan_26_1027,60.0309066331,famFaceGrey,001,5,
163,./greyInner/OmarEpps(DrEricForeman)3_1_cut.png,0,189,189,162,,,None,None,1,None,None,None,None,None,None,1,,['return'],[0.617086257606843],1.31655258271,0.116850326919,2017_Jan_26_1027,60.0309066331,famFaceGrey,001,5,
137,./greyInner/LisaEdelstein(DrLisaCuddy)10_1_cut.png,0,190,190,136,,,None,None,1,None,None,None,None,None,None,1,,['return'],[0.5836229137935334],1.69969664221,1.53295699903,2017_Jan_26_1027,60.0309066331,famFaceGrey,001,5,
207,./greyInner/WillSmith14_1_cut.png,0,191,191,206,,,None,None,1,None,None,None,None,None,None,1,Will Smith,"['lshift', 'w', 'i', 'l', 'l', 'space', 'lshift', 's', 'm', 'i', 't', 'h', 'return']","[0.3503514581352647, 0.7003057956831071, 0.9169475861772298, 1.0834556291524677, 1.2000406743864005, 1.3167626909380488, 1.3834189644649086, 1.4998712084689032, 1.6333560121906885, 1.7997992584300846, 1.9496551819265733, 2.0164465021148317, 2.5661848933145848]",1.96625790191,0.333521949573,2017_Jan_26_1027,60.0309066331,famFaceGrey,001,5,
5,./greyInner/AlysonHannigan(Lily)8_3_cut.png,0,192,192,4,,,None,None,1,None,None,None,None,None,None,1,,['return'],[0.417081830898951],1.2832916485,0.433654718726,2017_Jan_26_1027,60.0309066331,famFaceGrey,001,5,
1,./greyInner/AlysonHannigan(Lily)1_1_cut.png,0,193,193,0,,,None,None,1,None,None,None,None,None,None,1,,['return'],[0.3169330229507068],0.76677505685,0.416915348197,2017_Jan_26_1027,60.0309066331,famFaceGrey,001,5,
123,./greyInner/KaleyCuoco(Penny)3_1_cut.png,0,194,194,122,,,None,None,1,None,None,None,None,None,None,1,Kaley Cucoa,"['lshift', 'k', 'a', 'l', 'e', 'y', 'space', 'lshift', 'c', 'u', 'c', 'o', 'a', 'return']","[0.3337958922074904, 0.6504697282161942, 0.7671622333828054, 0.8670919513792796, 1.116965806249027, 1.3500255498015576, 1.700068421503147, 1.7997787287713436, 2.033020352269432, 2.1163816733019303, 2.3330260300031114, 2.466062068215251, 2.5996065362583067, 2.832801326472236]",1.24982477615,0.316850904315,2017_Jan_26_1027,60.0309066331,famFaceGrey,001,5,
172,./greyInner/SahraWagenknecht2_2_cut.png,0,195,195,171,,,None,None,1,None,None,None,None,None,None,4,Sarah Wagenknecht,"['lshift', 's', 'a', 'r', 'a', 'h', 'space', 'lshift', 'w', 'a', 'g', 'e', 'n', 'k', 'n', 'e', 'c', 'h', 't', 'return']","[0.31747513425261786, 0.6840142283367641, 0.8673668563415049, 1.017269613121698, 1.133829317058371, 1.2671197305739952, 1.433505878700089, 1.4836325691489947, 1.6669585727527192, 2.1001600351060006, 2.216746042667637, 2.366571171675787, 2.4832348070099215, 2.8664985159302887, 2.966353493137376, 3.116277421128416, 3.34963837326859, 3.4828604615131553, 3.5828665241779163, 3.932645076522931]",1.33332723859,1.43304075362,2017_Jan_26_1027,60.0309066331,famFaceGrey,001,5,
98,./greyInner/JasonSegel(Marshall)6_1_cut.png,0,196,196,97,,,None,None,1,None,None,None,None,None,None,1,Jason Segal,"['lshift', 'j', 'a', 's', 'o', 'n', 'space', 'lshift', 's', 'e', 'g', 'a', 'l', 'return']","[0.13385305447627616, 0.4337528761570866, 0.5335138660198027, 0.6169014906777193, 0.7169303284326816, 0.8836135150590962, 1.0668958931378256, 1.1830145301864832, 1.399867070459095, 1.6331523194821784, 1.7665383242215285, 1.8993793306749467, 2.049829972724183, 2.2826927598625844]",1.13344951837,0.0338399347411,2017_Jan_26_1027,60.0309066331,famFaceGrey,001,5,
177,./greyInner/Shakira2_1_cut.png,0,197,197,176,,,None,None,1,None,None,None,None,None,None,2,Shakira,"['lshift', 's', 'h', 'a', 'k', 'i', 'r', 'a', 'return']","[0.2837144311629345, 0.5338314341793193, 0.7503080250753555, 0.8502775192855552, 1.2336050626136057, 1.3668771919019491, 1.4664514901805887, 1.7167410706406372, 3.049496044993248]",1.51636422309,0.167045021863,2017_Jan_26_1027,60.0309066331,famFaceGrey,001,5,
127,./greyInner/KatjaBurkard10_1_cut.png,0,198,198,126,,,None,None,1,None,None,None,None,None,None,3,Katja Burkhard,"['lshift', 'k', 'a', 't', 'j', 'a', 'space', 'lshift', 'b', 'u', 'r', 'k', 'h', 'a', 'r', 'd', 'return']","[0.41710236055814676, 0.6837515128595442, 0.8336972536126268, 1.066962293753022, 1.416890327675901, 1.5334311058331878, 1.7167417121927429, 1.832690979556446, 2.1164936240975294, 2.316081042111364, 2.4827821921890063, 2.9994354343834857, 3.1827742690238665, 3.298881678915677, 3.515182805384484, 3.69857520960295, 4.465477935268154]",2.2662109724,0.4503401989,2017_Jan_26_1027,60.0309066331,famFaceGrey,001,5,
29,./greyInner/Beyonce5_3_cut.png,0,199,199,28,,,None,None,1,None,None,None,None,None,None,2,Beyonce Knwoles,"['lshift', 'b', 'e', 'y', 'o', 'n', 'b', 'c', 'e', 'backspace', 'backspace', 'backspace', 'c', 'e', 'space', 'lshift', 'k', 'n', 'w', 'o', 'l', 'e', 's', 'return']","[0.266902886052776, 0.816665335446487, 1.0000121894850054, 1.2664942175329088, 1.383210139341827, 1.583198527253444, 1.6997944788690802, 1.7996898738419986, 2.582683361128602, 2.7160244572392003, 2.882574201083571, 3.698715709454973, 3.7821273923063927, 4.015355543216174, 4.148832648316329, 4.565269719619209, 4.681737360867373, 4.8652282432931315, 4.981688827470862, 5.131654777107087, 5.248264522087084, 5.4148585330081005, 5.581571872571203]",1.23333240308,0.150359862464,2017_Jan_26_1027,60.0309066331,famFaceGrey,001,5,
135,./greyInner/LeonardoDiCaprio7_1_cut.png,0,200,200,134,,,None,None,1,None,None,None,None,None,None,1,Leonardo DiCaprio,"['lshift', 'l', 'e', 'o', 'n', 'a', 'r', 'd', 'o', 'space', 'lshift', 'd', 'i', 'lshift', 'c', 'a', 'p', 'r', 'i', 'o', 'return']","[0.25033545141650393, 0.5834583557475526, 0.7334182106410481, 0.8833010793146059, 1.0666716707710293, 1.1832673016106128, 1.399832105884343, 1.5663622823976766, 1.7331673638727807, 1.882970680118433, 1.9496340107157266, 2.16626649870841, 2.382777412627547, 2.5992187181727786, 2.7493190729192065, 2.882564898581677, 3.082392898534181, 3.4158083505026298, 3.5155071098379267, 3.6656109931191168, 4.298565393859917]",2.16589921028,0.133637813835,2017_Jan_26_1027,60.0309066331,famFaceGrey,001,5,
145,./greyInner/MariskaHargitay(Liv)8_8_cut.png,0,201,201,144,,,None,None,1,None,None,None,None,None,None,1,,['return'],[0.36698561416233133],1.28338563585,0.066911290382,2017_Jan_26_1027,60.0309066331,famFaceGrey,001,5,
168,./greyInner/RobertSeanLeonard(Wilson)11_2_cut.png,0,202,202,167,,,None,None,1,None,None,None,None,None,None,1,,['return'],[0.5001557367086207],0.816648975875,0.183759051094,2017_Jan_26_1027,60.0309066331,famFaceGrey,001,5,
8,./greyInner/AngelaMerkel4_1_cut.png,0,203,203,7,,,None,None,1,None,None,None,None,None,None,4,Angela Merkel,"['lshift', 'a', 'n', 'g', 'e', 'l', 'a', 'space', 'lshift', 'm', 'e', 'r', 'k', 'e', 'l', 'return']","[0.31697119528507756, 0.6000498485777825, 0.7333749058925605, 1.1831803713366753, 1.3832412546062187, 1.5165063268241283, 1.716351969452262, 1.8162711018430855, 1.9662213334590888, 2.1328701970624024, 2.3661288216844696, 2.467366663875964, 2.8154598595451716, 2.9327143641212388, 3.0319919446751555, 3.2490520269670924]",0.900077018298,0.467045887958,2017_Jan_26_1027,60.0309066331,famFaceGrey,001,5,
129,./greyInner/KatjaBurkard5_3_cut.png,0,204,204,128,,,None,None,1,None,None,None,None,None,None,3,Katja Burkhard,"['lshift', 'k', 'a', 't', 'j', 'a', 'space', 'lshift', 'n', 'backspace', 'lshift', 'b', 'u', 'r', 'k', 'h', 'a', 'r', 'd', 'return']","[0.2834238081809417, 1.3664877699366116, 1.6494939278718448, 1.8331330087721653, 2.066397086584402, 2.1827822884215493, 2.266242087660885, 2.3826260063942755, 2.5493053437094204, 2.882489516240639, 2.9657016764708715, 3.1323636918868942, 3.332498995169317, 3.4489894115076822, 4.015545121783816, 4.198620599395326, 4.26547767864713, 4.482052747750458, 4.6485370533073365, 5.331436906103136]",1.19984724651,0.200251424164,2017_Jan_26_1027,60.0309066331,famFaceGrey,001,5,
121,./greyInner/KaleyCuoco(Penny)10_1_cut.png,0,205,205,120,,,None,None,1,None,None,None,None,None,None,1,Kaley Cucoa,"['lshift', 'k', 'a', 'l', 'e', 'y', 'space', 'lshift', 'c', 'u', 'c', 'o', 'a', 'return']","[0.2167954421588547, 1.1000692555207934, 1.266568958321841, 1.383128662258514, 1.4830044899003951, 1.7164193323947075, 2.0829773522577852, 2.18274154988012, 2.349444945389223, 2.466004007774245, 2.7158781834200454, 3.315801325510165, 3.4156136395204157, 4.248575353952219]",1.24963070672,0.100070217848,2017_Jan_26_1027,60.0309066331,famFaceGrey,001,5,
223,./greyInner/notfamousface8_9_cut.png,0,206,206,222,,,None,None,2,None,None,None,None,None,None,1,,['return'],[1.1665417244462333],5.79828551687,4.0155781617,2017_Jan_26_1027,60.0309066331,famFaceGrey,001,5,
179,./greyInner/Shakira7_1_cut.png,0,207,207,178,,,None,None,1,None,None,None,None,None,None,2,Shakira,"['lshift', 's', 'h', 'a', 'k', 'i', 'r', 'a', 'return']","[0.2673866161380829, 0.5173108328272065, 0.66713692416306, 0.7672039342523931, 0.9337633013747109, 1.1166017255818588, 1.1835790958034522, 1.4499045852030576, 2.1686742427523313]",1.61638472067,0.183663459869,2017_Jan_26_1027,60.0309066331,famFaceGrey,001,5,
181,./greyInner/SigmarGabriel1_2_cut.png,0,208,208,180,,,None,None,1,None,None,None,None,None,None,4,Sigmar Gabriel,"['lshift', 's', 'i', 'g', 'm', 'a', 'r', 'space', 'lshift', 'g', 'a', 'b', 'r', 'i', 'e', 'l', 'return']","[0.2169747558978088, 0.4164146169887317, 0.5335321502475381, 0.7667686413310548, 0.9499265583535816, 1.0501273320010114, 1.2499322360872611, 1.3663790269006313, 1.4997845989710186, 1.7330919815321977, 1.8665116677429978, 1.9661870104359878, 2.2662151424838157, 2.39932175139802, 2.4494721792648306, 2.5993451038848434, 2.9491977554666846]",1.23305236571,0.335525195184,2017_Jan_26_1027,60.0309066331,famFaceGrey,001,5,
108,./greyInner/JoachimLoew15_1_cut.png,0,209,209,107,,,None,None,1,None,None,None,None,None,None,5,Joachim Löw,"['lshift', 'j', 'o', 'a', 'c', 'h', 'i', 'm', 'space', 'lshift', 'l', u'\xf6', 'w', 'return']","[0.35024528130588806, 1.2832579670312043, 1.5497480144772453, 1.6662952081528601, 1.8330117554751268, 2.0329292519086266, 2.3161836904050688, 2.765920509802527, 2.9323890973396374, 3.082449675871885, 3.4657104978086863, 3.6323436433922325, 3.799014640533642, 3.9153992008186833]",1.06631881726,0.484625049841,2017_Jan_26_1027,60.0309066331,famFaceGrey,001,5,
67,./greyInner/EmmaWatson(HermioneGranger)16_1_cut.png,0,210,210,66,,,None,None,1,None,None,None,None,None,None,1,,['return'],[0.5504174738189249],6.01497766918,0.200505478692,2017_Jan_26_1027,60.0309066331,famFaceGrey,001,5,
140,./greyInner/LisaEdelstein(DrLisaCuddy)9_1_cut.png,0,211,211,139,,,None,None,1,None,None,None,None,None,None,1,,['return'],[0.6002971668112878],3.94860143303,0.216931451148,2017_Jan_26_1027,60.0309066331,famFaceGrey,001,5,
50,./greyInner/CristinMilioti(Tracy_Mutter)9_1_cut.png,0,212,212,49,,,None,None,1,None,None,None,None,None,None,1,,['return'],[0.36708601702503074],2.04965675373,0.200177645704,2017_Jan_26_1027,60.0309066331,famFaceGrey,001,5,
105,./greyInner/JimParsons(SheldonCooper)9_3_cut.png,0,213,213,104,,,None,None,1,None,None,None,None,None,None,1,Jim Parson,"['lshift', 'j', 'i', 'm', 'space', 'lshift', 'p', 'a', 'r', 's', 'o', 'n', 'return']","[0.9836086713430632, 1.3334699838746928, 1.4835190144735861, 1.566326676270819, 1.700016776580469, 1.8164600388586223, 1.9997392091781876, 2.0997693300369065, 2.3330010094819045, 2.4994997499552483, 2.5996350853151853, 2.732856211232047, 3.7324080872740524]",1.35002971989,0.317120035311,2017_Jan_26_1027,60.0309066331,famFaceGrey,001,5,
93,./greyInner/JanHofer5_1_cut.png,0,214,214,92,,,None,None,1,None,None,None,None,None,None,3,,['return'],[0.3835174426717458],6.01464149602,1.01664410008,2017_Jan_26_1027,60.0309066331,famFaceGrey,001,5,
136,./greyInner/LisaEdelstein(DrLisaCuddy)1_1_cut.png,0,215,215,135,,,None,None,1,None,None,None,None,None,None,1,,['return'],[0.3509625362598854],0.966641549912,0.183563377783,2017_Jan_26_1027,60.0309066331,famFaceGrey,001,5,
90,./greyInner/Ice-T(OdafinFinTutuola)7_1_cut.png,0,216,216,89,,,None,None,1,None,None,None,None,None,None,1,,['return'],[0.383492742926137],0.868217233301,0.167261545607,2017_Jan_26_1027,60.0309066331,famFaceGrey,001,5,
167,./greyInner/RobertSeanLeonard(Wilson)10_1_cut.png,0,217,217,166,,,None,None,1,None,None,None,None,None,None,1,,['return'],[0.46699263915479605],0.750164317464,0.233708352459,2017_Jan_26_1027,60.0309066331,famFaceGrey,001,5,
201,./greyInner/Usher1_1_cut.png,0,218,218,200,,,None,None,1,None,None,None,None,None,None,2,Usher,"['lshift', 'u', 's', 'h', 'e', 'r', 'return']","[0.36682554697927117, 0.55023591464942, 0.7667814723681659, 0.9000029190610803, 0.9999971130168888, 1.0997933882308644, 1.466597122447638]",0.966784615972,0.333603426657,2017_Jan_26_1027,60.0309066331,famFaceGrey,001,5,
185,./greyInner/SigmarGabriel8_2_cut.png,0,219,219,184,,,None,None,1,None,None,None,None,None,None,4,Sigmar Gabriel,"['lshift', 's', 'i', 'g', 'm', 'a', 'r', 'space', 'lshift', 'g', 'a', 'b', 'r', 'i', 'e', 'l', 'return']","[0.3170494646087718, 0.9002665968655492, 1.0500551574191377, 1.2668464294911246, 1.4498782815776394, 1.533338401592573, 1.7332196503475643, 1.849722256170935, 1.9831775485085927, 2.133087041583167, 2.2663383204362617, 2.3663848008668538, 2.6661604822670597, 2.782650898605425, 2.8661212834499565, 2.9830293500340304, 3.2825484106992917]",1.06680864209,0.250453496955,2017_Jan_26_1027,60.0309066331,famFaceGrey,001,5,
126,./greyInner/KatjaBurkard1_1_cut.png,0,220,220,125,,,None,None,1,None,None,None,None,None,None,3,Katja Burkhard,"['lshift', 'k', 'a', 't', 'j', 'a', 'space', 'lshift', 'b', 'u', 'r', 'k', 'h', 'a', 'r', 'd', 'return']","[0.3334853811188623, 0.6835725198970977, 0.7827650948324845, 1.0163486654601002, 1.333162680544774, 1.4498086732032789, 1.583133409742004, 1.6663930448085011, 1.9990572395759045, 2.2160762625499046, 2.316149688157566, 3.1823659212795974, 3.382449579639342, 3.4989954902112004, 3.682180993962902, 3.865513092308902, 4.198519234205378]",1.78307688903,0.283649634428,2017_Jan_26_1027,60.0309066331,famFaceGrey,001,5,
