num,pic,trials.thisRepN,trials.thisTrialN,trials.thisN,trials.thisIndex,key_resp_2.keys,key_resp_2.rt,ratingBekannt.response,ratingBekannt.rt,key_resp_5.keys,ratingK1.response,ratingK1.rt,ratingK2.response,ratingK2.rt,ratingK3.response,ratingK3.rt,key_resp_6.keys,inputText,key_resp_4.keys,key_resp_4.rt,key_resp_5.rt,key_resp_6.rt,date,frameRate,expName,session,participant,
,,,,,,space,37.0839323899,,,,,,,,,,,,,,,,2017_Jan_27_1016,60.0237984755,famFaceGrey,001,6,
15,./greyInner/BarackObama5_2_cut.png,0,0,0,14,,,1.ja,9.027,None,None,None,None,None,polit,3.722,None,Barak Obama,"['lshift', 'b', 'a', 'r', 'a', 'k', 'space', 'lshift', 'o', 'b', 'a', 'm', 'a', 'return']","[3.4485440119688064, 3.665492612117305, 4.565256261464128, 4.7150746037887075, 4.882560863180515, 5.44817800206738, 5.647965196660607, 5.914594909479092, 6.081518200091068, 6.397773530651648, 6.564378928351289, 6.764361798702794, 7.180904483926042, 7.813925826697869]",,,2017_Jan_27_1016,60.0237984755,famFaceGrey,001,6,
47,./greyInner/CristinMilioti(Tracy_Mutter)2_1_cut.png,0,1,1,46,,,1.ja,5.21,None,act,8.944,None,None,None,None,None,,['return'],[1.9998537243513965],,,2017_Jan_27_1016,60.0237984755,famFaceGrey,001,6,
8,./greyInner/AngelaMerkel4_1_cut.png,0,2,2,7,,,1.ja,5.025,None,None,None,None,None,polit,1.527,None,Angela Merkel,"['lshift', 'a', 'n', 'g', 'e', 'l', 'a', 'space', 'lshift', 'm', 'e', 'r', 'k', 'e', 'l', 'return']","[2.249530859350216, 2.616110787123489, 2.8657349934337617, 3.13211963038475, 3.2161421594005333, 5.11502751329499, 5.281626174616122, 5.448203343681598, 5.564857211229082, 5.6980687765003495, 5.931358868699135, 6.081251631967916, 6.2313897918843395, 6.364574090861424, 7.247299834926707, 7.697445501093625]",,,2017_Jan_27_1016,60.0237984755,famFaceGrey,001,6,
152,./greyInner/NeilPatrickHarris(Barney)11_2_cut.png,0,3,3,151,,,1.ja,5.176,None,act,8.293,None,None,None,None,None,,['return'],[1.4006028096473528],,,2017_Jan_27_1016,60.0237984755,famFaceGrey,001,6,
54,./greyInner/DannFlorek(DonaldDonCragen)5_1_cut.png,0,4,4,53,,,2.nein,3.893,None,None,None,music,5.292,None,None,None,,['return'],[1.183026443172821],,,2017_Jan_27_1016,60.0237984755,famFaceGrey,001,6,
109,./greyInner/JoachimLoew4_1_cut.png,0,5,5,108,,,1.ja,2.592,None,None,None,None,None,sport,2.675,None,Joachim Lülf,"['lshift', 'j', 'o', 'a', 'c', 'h', 'i', 'm', 'space', 'lshift', 'l', u'\xfc', 'l', 'f', 'return']","[2.149391384235969, 2.3660474330868055, 2.599346827903446, 3.0989814595614007, 3.299209726560548, 3.4656470355762394, 4.1986404063382, 4.398558158363812, 4.5651998041957995, 4.698478733252614, 4.948418587015567, 5.19839629281023, 5.481426841966368, 5.96463722035196, 6.431190138454895]",,,2017_Jan_27_1016,60.0237984755,famFaceGrey,001,6,
29,./greyInner/Beyonce5_3_cut.png,0,6,6,28,,,1.ja,4.491,None,None,None,music,5.674,None,None,None,,['return'],[5.115186940920466],,,2017_Jan_27_1016,60.0237984755,famFaceGrey,001,6,
80,./greyInner/GeorgeClooney4_2_cut.png,0,7,7,79,,,1.ja,3.798,None,act,1.334,None,None,None,None,None,George Cluney,"['lshift', 'g', 'e', 'o', 'r', 'g', 'e', 'space', 'lshift', 'c', 'l', 'u', 'n', 'e', 'y', 'return']","[2.032976176957618, 2.1994333743291463, 2.549435716022799, 2.9327122392301135, 3.166172024012667, 3.515813488283129, 3.6657197243089286, 3.849094534487449, 4.2987551813980645, 4.93202063769786, 5.215044129695343, 5.4481395084753785, 7.580995328802601, 7.797578239829363, 8.097295761021542, 8.397132933128432]",,,2017_Jan_27_1016,60.0237984755,famFaceGrey,001,6,
199,./greyInner/UrsulavonderLeyen7_1_cut.png,0,8,8,198,,,2.nein,1.93,None,None,None,host,9.41,None,None,None,,['return'],[1.6003120547175058],,,2017_Jan_27_1016,60.0237984755,famFaceGrey,001,6,
201,./greyInner/Usher1_1_cut.png,0,9,9,200,,,1.ja,3.549,None,None,None,music,1.45,None,None,None,Usher,"['lshift', 'u', 's', 'h', 'e', 'r', 'return']","[1.2999600308203298, 1.4497353886345081, 1.733002673379815, 1.8831267189793834, 2.0330021601321278, 2.2826918055484384, 2.7993665879471337]",,,2017_Jan_27_1016,60.0237984755,famFaceGrey,001,6,
57,./greyInner/ElvisPresley2_1_cut.png,0,10,10,56,,,1.ja,12.46,None,None,None,music,4.316,None,None,None,Elvis Presley,"['lshift', 'e', 'l', 'v', 'i', 's', 'space', 'lshift', 'p', 'r', 'e', 's', 'l', 'e', 'y', 'return']","[5.781398420864662, 6.364494216658386, 6.647792937837039, 7.613983053837728, 7.830455295787942, 9.629972008743152, 9.813135424946722, 10.013079480926535, 10.246298680760447, 10.712808935132216, 10.862815254497036, 11.845780236234987, 12.162413124774957, 12.328575204609479, 12.945354497110202, 15.16097025664294]",,,2017_Jan_27_1016,60.0237984755,famFaceGrey,001,6,
37,./greyInner/CarenMiosga13_1_cut.png,0,11,11,36,,,2.nein,2.51,None,None,None,host,9.922,None,None,None,,['return'],[0.7833099484764716],,,2017_Jan_27_1016,60.0237984755,famFaceGrey,001,6,
112,./greyInner/JoshRadnor(Ted)3_1_cut.png,0,12,12,111,,,1.ja,4.289,None,act,1.107,None,None,None,None,None,,['return'],[6.6480495617825],,,2017_Jan_27_1016,60.0237984755,famFaceGrey,001,6,
19,./greyInner/BastianSchweinsteiger3_1_cut.png,0,13,13,18,,,1.ja,1.33,None,None,None,None,None,sport,1.828,None,Bastian Schweinsteiger,"['lshift', 'b', 'a', 's', 't', 'i', 'a', 'n', 'space', 'lshift', 's', 'c', 'h', 'w', 'e', 'i', 'n', 's', 't', 'e', 'i', 'g', 'e', 'r', 'delete', 'return']","[1.3333737516045403, 1.8499256752897963, 2.0997227819830186, 2.2496630206819646, 2.3996199399371108, 2.599662154575981, 2.7495549178452166, 2.916137860949675, 3.066097988004003, 3.166173307131885, 3.366028186290805, 3.5659629396527635, 3.7325333723401855, 3.899176942851682, 4.032370865226767, 4.182160978917636, 4.3822814638597265, 4.598885867141689, 4.765266718889507, 4.848813852047442, 4.998264259790631, 5.215318075756841, 5.348549850163636, 5.465126088967736, 5.765071043131229, 6.814664903660287]",,,2017_Jan_27_1016,60.0237984755,famFaceGrey,001,6,
202,./greyInner/Usher11_1_cut.png,0,14,14,201,,,1.ja,3.876,None,None,None,music,1.56,None,None,None,,['return'],[1.283402012316401],,,2017_Jan_27_1016,60.0237984755,famFaceGrey,001,6,
124,./greyInner/KaleyCuoco(Penny)5_2_cut.png,0,15,15,123,,,1.ja,3.431,None,act,1.618,None,None,None,None,None,,['return'],[2.349544267951387],,,2017_Jan_27_1016,60.0237984755,famFaceGrey,001,6,
81,./greyInner/HughLaurie(DrHouse)2_1_cut.png,0,16,16,80,,,1.ja,6.166,None,act,0.869,None,None,None,None,None,,['return'],[2.1826931528239584],,,2017_Jan_27_1016,60.0237984755,famFaceGrey,001,6,
143,./greyInner/MariskaHargitay(Liv)4_4_cut.png,0,17,17,142,,,2.nein,2.928,None,None,None,host,6.376,None,None,None,,['return'],[0.5835586812349902],,,2017_Jan_27_1016,60.0237984755,famFaceGrey,001,6,
100,./greyInner/JasonSegel(Marshall)9_1_cut.png,0,18,18,99,,,1.ja,3.095,None,act,1.628,None,None,None,None,None,,['return'],[5.231843053927605],,,2017_Jan_27_1016,60.0237984755,famFaceGrey,001,6,
65,./greyInner/EmilyDeschanel8_3_cut.png,0,19,19,64,,,1.ja,8.431,None,act,1.295,None,None,None,None,None,,['return'],[1.2835226255706402],,,2017_Jan_27_1016,60.0237984755,famFaceGrey,001,6,
219,./greyInner/notfamousface4_2_cut.png,0,20,20,218,,,1.ja,3.486,None,act,1.268,None,None,None,None,None,,['return'],[0.7168648765864418],,,2017_Jan_27_1016,60.0237984755,famFaceGrey,001,6,
135,./greyInner/LeonardoDiCaprio7_1_cut.png,0,21,21,134,,,1.ja,2.703,None,act,1.037,None,None,None,None,None,,['return'],[61.27594452046924],,,2017_Jan_27_1016,60.0237984755,famFaceGrey,001,6,
186,./greyInner/TaylorSwift1_2_cut.png,0,22,22,185,,,1.ja,2.972,None,None,None,music,1.115,None,None,None,,"['t', 'backspace', 'return']","[5.164950173253601, 6.4645884618025775, 26.62349834894576]",,,2017_Jan_27_1016,60.0237984755,famFaceGrey,001,6,
11,./greyInner/BarackObama1_3_cut.png,0,23,23,10,,,1.ja,4.943,None,None,None,None,None,polit,1.74,None,Barack Obama,"['lshift', 'b', 'a', 'r', 'a', 'c', 'k', 'space', 'lshift', 'o', 'b', 'a', 'm', 'a', 'return']","[2.299600757297412, 2.5161246448165002, 2.7660526297217984, 2.8830247109613083, 3.0325790514025357, 3.598806955278633, 3.6653829053807385, 3.9822217346368234, 4.315451776832106, 4.66526036744699, 5.264930541521608, 5.481680899672483, 5.681512041116548, 5.864690854756645, 6.097918715648575]",,,2017_Jan_27_1016,60.0237984755,famFaceGrey,001,6,
216,./greyInner/notfamousface14_6_cut.png,0,24,24,215,,,2.nein,2.661,None,None,None,None,None,sport,3.208,None,,['return'],[1.3334908362794522],,,2017_Jan_27_1016,60.0237984755,famFaceGrey,001,6,
71,./greyInner/GuentherJauch2_1_cut.png,0,25,25,70,,,1.ja,1.745,None,None,None,host,0.911,None,None,None,Günther Jauch,"['lshift', 'g', u'\xfc', 'n', 't', 'h', 'e', 'r', 'space', 'lshift', 'j', 'a', 'u', 'c', 'h', 'return']","[0.8334706271443793, 1.1500852312278766, 1.583278319575129, 1.8996863413831306, 2.1663789270683083, 2.3495510043298964, 2.4830333078634794, 2.5495155902258375, 2.7160943631911323, 2.9159283916546883, 3.065851308237143, 3.2327592014121365, 3.3825656748795154, 3.499111760369942, 3.5990796182209124, 3.8823068054748546]",,,2017_Jan_27_1016,60.0237984755,famFaceGrey,001,6,
49,./greyInner/CristinMilioti(Tracy_Mutter)8_1_cut.png,0,26,26,48,,,1.ja,3.853,None,act,2.021,None,None,None,None,None,,['return'],[1.0496615450942954],,,2017_Jan_27_1016,60.0237984755,famFaceGrey,001,6,
114,./greyInner/JoshRadnor(Ted)7_1_cut.png,0,27,27,113,,,1.ja,2.562,None,act,0.66,None,None,None,None,None,,['return'],[1.2331450996694002],,,2017_Jan_27_1016,60.0237984755,famFaceGrey,001,6,
127,./greyInner/KatjaBurkard10_1_cut.png,0,28,28,126,,,1.ja,3.046,None,None,None,host,1.379,None,None,None,,['return'],[4.1990089824798815],,,2017_Jan_27_1016,60.0237984755,famFaceGrey,001,6,
172,./greyInner/SahraWagenknecht2_2_cut.png,0,29,29,171,,,2.nein,2.764,None,None,None,host,3.053,None,None,None,,['return'],[0.7674313418674501],,,2017_Jan_27_1016,60.0237984755,famFaceGrey,001,6,
156,./greyInner/NicoleKidman14_1_cut.png,0,30,30,155,,,1.ja,5.409,None,act,2.861,None,None,None,None,None,,['return'],[16.893386223528523],,,2017_Jan_27_1016,60.0237984755,famFaceGrey,001,6,
189,./greyInner/TaylorSwift7_1_cut.png,0,31,31,188,,,1.ja,2.396,None,act,0.814,None,None,None,None,None,,['return'],[6.098041574362469],,,2017_Jan_27_1016,60.0237984755,famFaceGrey,001,6,
204,./greyInner/Usher4_1_cut.png,0,32,32,203,,,1.ja,4.059,None,None,None,music,1.41,None,None,None,Usher,"['lshift', 'u', 's', 'h', 'e', 'r', 'return']","[1.5167222578288602, 1.6333629733990165, 2.0158795689490034, 2.1331984132943944, 2.3330462352946597, 2.416127916771984, 2.732857680850884]",,,2017_Jan_27_1016,60.0237984755,famFaceGrey,001,6,
173,./greyInner/SahraWagenknecht5_1_cut.png,0,33,33,172,,,2.nein,3.178,None,None,None,music,8.192,None,None,None,,['return'],[1.2501502853979218],,,2017_Jan_27_1016,60.0237984755,famFaceGrey,001,6,
191,./greyInner/TomCruise1_1_cut.png,0,34,34,190,,,1.ja,4.995,None,act,2.646,None,None,None,None,None,,['return'],[1.5999466863754606],,,2017_Jan_27_1016,60.0237984755,famFaceGrey,001,6,
211,./greyInner/notfamousface10_4_cut.png,0,35,35,210,,,2.nein,3.314,None,None,None,host,6.012,None,None,None,,['return'],[1.2332368427300935],,,2017_Jan_27_1016,60.0237984755,famFaceGrey,001,6,
17,./greyInner/BastianSchweinsteiger12_1_cut.png,0,36,36,16,,,1.ja,1.396,None,None,None,None,None,sport,2.83,None,Bastian Schweinsteiger,"['lshift', 'b', 'a', 's', 't', 'i', 'a', 'n', 'space', 'lshift', 's', 'c', 'h', 'w', 'e', 'i', 'n', 's', 't', 'e', 'i', 'g', 'e', 'r', 'return']","[1.3331306004170074, 1.4997087318224658, 2.682577351268719, 2.9325675674808735, 3.0656504999997196, 3.2990021819450703, 3.432361626765214, 3.5990449739879296, 3.7655342493526405, 3.8820011021998653, 4.082250219894831, 4.28187894920211, 4.448573523722644, 4.615200092898249, 4.7151310610565815, 4.865231368941295, 5.098288254129784, 5.281638043473322, 5.4312732204575696, 5.498087189268517, 5.664677831091467, 5.88135344751845, 5.981318097569783, 6.081346582827791, 6.264599175852254]",,,2017_Jan_27_1016,60.0237984755,famFaceGrey,001,6,
187,./greyInner/TaylorSwift2_1_cut.png,0,37,37,186,,,1.ja,3.242,None,None,None,music,6.158,None,None,None,,['return'],[5.948312408858328],,,2017_Jan_27_1016,60.0237984755,famFaceGrey,001,6,
154,./greyInner/NeilPatrickHarris(Barney)2_2_cut.png,0,38,38,153,,,1.ja,1.98,None,act,1.463,None,None,None,None,None,,['return'],[2.7495007060365424],,,2017_Jan_27_1016,60.0237984755,famFaceGrey,001,6,
104,./greyInner/JimParsons(SheldonCooper)8_1_cut.png,0,39,39,103,,,1.ja,2.368,None,act,0.677,None,None,None,None,None,,['return'],[1.4997847566660312],,,2017_Jan_27_1016,60.0237984755,famFaceGrey,001,6,
89,./greyInner/Ice-T(OdafinFinTutuola)6_1_cut.png,0,40,40,88,,,1.ja,4.018,None,act,0.835,None,None,None,None,None,,['return'],[0.9834942686247814],,,2017_Jan_27_1016,60.0237984755,famFaceGrey,001,6,
118,./greyInner/JudithRakers4_3_cut.png,0,41,41,117,,,2.nein,2.712,None,None,None,host,3.278,None,None,None,,['return'],[1.033484613149085],,,2017_Jan_27_1016,60.0237984755,famFaceGrey,001,6,
27,./greyInner/Beyonce11_2_cut.png,0,42,42,26,,,1.ja,3.043,None,None,None,music,2.843,None,None,None,Beaunce,"['lshift', 'b', 'e', 'a', 'u', 'n', 'c', 'y', 'backspace', 'e', 'return']","[1.732777485868155, 2.7160369435832763, 10.995938926067538, 12.245496089371954, 12.478840714159105, 12.811863853298291, 16.427238771259, 16.54399304292474, 17.493330022884493, 19.242888790088728, 27.87276520641217]",,,2017_Jan_27_1016,60.0237984755,famFaceGrey,001,6,
168,./greyInner/RobertSeanLeonard(Wilson)11_2_cut.png,0,43,43,167,,,2.nein,2.692,None,None,None,music,2.709,None,None,None,,['return'],[0.9165038708515567],,,2017_Jan_27_1016,60.0237984755,famFaceGrey,001,6,
12,./greyInner/BarackObama11_2_cut.png,0,44,44,11,,,1.ja,1.302,None,None,None,None,None,polit,1.633,None,Barack Obama,"['lshift', 'b', 'a', 'r', 'a', 'c', 'k', 'space', 'lshift', 'o', 'b', 'a', 'm', 'a', 'return']","[1.4499987489584782, 1.716633594256109, 1.9332126559233984, 2.216502716044033, 2.299883364416928, 2.5163748531631427, 2.6825301966191546, 2.8495256627156778, 2.9992323736241815, 3.182727797056941, 3.415689089825719, 3.532698702317248, 3.7492280430951723, 3.9491323223633117, 4.665500952395632]",,,2017_Jan_27_1016,60.0237984755,famFaceGrey,001,6,
141,./greyInner/MariskaHargitay(Liv)13_1_cut.png,0,45,45,140,,,2.nein,2.462,None,None,None,host,3.111,None,None,None,,['return'],[0.9834323580985256],,,2017_Jan_27_1016,60.0237984755,famFaceGrey,001,6,
107,./greyInner/JoachimLoew12_1_cut.png,0,46,46,106,,,2.nein,5.078,None,None,None,None,None,polit,7.563,None,,['return'],[1.10011252960021],,,2017_Jan_27_1016,60.0237984755,famFaceGrey,001,6,
46,./greyInner/CristinMilioti(Tracy_Mutter)10_1_cut.png,0,47,47,45,,,2.nein,4.109,None,act,3.243,None,None,None,None,None,,['return'],[0.4504632382991076],,,2017_Jan_27_1016,60.0237984755,famFaceGrey,001,6,
86,./greyInner/Ice-T(OdafinFinTutuola)10_1_cut.png,0,48,48,85,,,2.nein,6.229,None,dummy,2.129,None,None,None,None,None,,['return'],[0.6668466242081195],,,2017_Jan_27_1016,60.0237984755,famFaceGrey,001,6,
90,./greyInner/Ice-T(OdafinFinTutuola)7_1_cut.png,0,49,49,89,,,2.nein,4.623,None,None,None,music,2.956,None,None,None,,['return'],[0.5168284359860991],,,2017_Jan_27_1016,60.0237984755,famFaceGrey,001,6,
164,./greyInner/OmarEpps(DrEricForeman)5_2_cut.png,0,50,50,163,,,2.nein,3.339,None,dummy,0.753,None,None,None,None,None,,['return'],[0.8666373473811291],,,2017_Jan_27_1016,60.0237984755,famFaceGrey,001,6,
193,./greyInner/TomCruise5_1_cut.png,0,51,51,192,,,1.ja,4.427,None,act,0.661,None,None,None,None,None,,['return'],[0.7000733302925255],,,2017_Jan_27_1016,60.0237984755,famFaceGrey,001,6,
182,./greyInner/SigmarGabriel11_3_cut.png,0,52,52,181,,,1.ja,6.394,None,None,None,None,None,polit,1.087,None,,['return'],[0.7002943476654764],,,2017_Jan_27_1016,60.0237984755,famFaceGrey,001,6,
41,./greyInner/CobieSmulders(Robin)12_1_cut.png,0,53,53,40,,,1.ja,3.536,None,act,0.578,None,None,None,None,None,,['return'],[0.4503593056015234],,,2017_Jan_27_1016,60.0237984755,famFaceGrey,001,6,
10,./greyInner/AngelaMerkel6_1_cut.png,0,54,54,9,,,1.ja,2.976,None,None,None,None,None,polit,1.358,None,Angela Merkel,"['lshift', 'a', 'n', 'g', 'e', 'l', 'a', 'space', 'lshift', 'm', 'e', 'r', 'k', 'e', 'l', 'return']","[0.8834407625327003, 1.2665995595052664, 1.483107087247845, 1.6996559956014607, 1.8164032101090015, 2.1162827251669114, 2.2995965871582484, 2.4660553884291403, 2.599394303333611, 2.9658677321694995, 3.282622837863073, 3.432467804922453, 3.6158227267451366, 3.715634043989212, 3.849119234542286, 4.5986327717760105]",,,2017_Jan_27_1016,60.0237984755,famFaceGrey,001,6,
63,./greyInner/EmilyDeschanel5_1_cut.png,0,55,55,62,,,2.nein,4.757,None,act,2.527,None,None,None,None,None,,['return'],[1.2331200788348724],,,2017_Jan_27_1016,60.0237984755,famFaceGrey,001,6,
165,./greyInner/OmarEpps(DrEricForeman)9_1_cut.png,0,56,56,164,,,2.nein,2.713,None,None,None,music,1.295,None,None,None,,['return'],[0.8832585595314413],,,2017_Jan_27_1016,60.0237984755,famFaceGrey,001,6,
99,./greyInner/JasonSegel(Marshall)7_1_cut.png,0,57,57,98,,,1.ja,1.86,None,act,0.978,None,None,None,None,None,,['return'],[1.1667436538505171],,,2017_Jan_27_1016,60.0237984755,famFaceGrey,001,6,
184,./greyInner/SigmarGabriel4_5_cut.png,0,58,58,183,,,1.ja,6.193,None,None,None,None,None,polit,1.079,None,Siegmar Gabriel,"['lshift', 's', 'i', 'e', 'g', 'm', 'a', 'r', 'space', 'lshift', 'g', 'a', 'b', 'r', 'i', 'e', 'l', 'return']","[1.0834063107677139, 1.4999704882461629, 1.7330139006771788, 1.8496668058851355, 2.0496746970711683, 2.332930112959275, 2.4826204640912692, 2.6496300445046472, 2.81609173279503, 2.8827462739805014, 3.2325157294435485, 3.4159296747739063, 3.5825466205510565, 3.715719371450632, 3.848996696608083, 3.9657253058794595, 4.115540119625166, 4.398870598016856]",,,2017_Jan_27_1016,60.0237984755,famFaceGrey,001,6,
2,./greyInner/AlysonHannigan(Lily)12_2_cut.png,0,59,59,1,,,1.ja,2.347,None,act,0.832,None,None,None,None,None,,['return'],[1.0666888646378538],,,2017_Jan_27_1016,60.0237984755,famFaceGrey,001,6,
220,./greyInner/notfamousface5_1_cut.png,0,60,60,219,,,2.nein,3.45,None,None,None,None,None,polit,2.702,None,,['return'],[1.0834691836339516],,,2017_Jan_27_1016,60.0237984755,famFaceGrey,001,6,
163,./greyInner/OmarEpps(DrEricForeman)3_1_cut.png,0,61,61,162,,,1.ja,3.483,None,None,None,music,1.208,None,None,None,,['return'],[1.7499793096944813],,,2017_Jan_27_1016,60.0237984755,famFaceGrey,001,6,
167,./greyInner/RobertSeanLeonard(Wilson)10_1_cut.png,0,62,62,166,,,2.nein,3.287,None,dummy,1.954,None,None,None,None,None,,['return'],[1.099786617189693],,,2017_Jan_27_1016,60.0237984755,famFaceGrey,001,6,
93,./greyInner/JanHofer5_1_cut.png,0,63,63,92,,,2.nein,3.577,None,None,None,None,None,polit,1.912,None,,['return'],[1.1003284144935606],,,2017_Jan_27_1016,60.0237984755,famFaceGrey,001,6,
30,./greyInner/Beyonce8_3_cut.png,0,64,64,29,,,1.ja,1.996,None,None,None,music,4.012,None,None,None,Beaunce,"['lshift', 'b', 'e', 'a', 'u', 'n', 'c', 'e', 'return']","[9.147476969605123, 9.24743135469862, 9.513977023175357, 9.797248157279682, 10.013782630536753, 10.246552738466562, 10.646931322941327, 10.763439235619899, 10.980043959682007]",,,2017_Jan_27_1016,60.0237984755,famFaceGrey,001,6,
178,./greyInner/Shakira3_1_cut.png,0,65,65,177,,,1.ja,2.353,None,None,None,music,4.595,None,None,None,Gueen Stefani,"['lshift', 'g', 'u', 'e', 'e', 'm', 'backspace', 'n', 'space', 'lshift', 's', 't', 'e', 'f', 'a', 'n', 'i', 'e', 'backspace', 'backspace', 'i', 'return']","[1.2827322238194938, 2.682415357402988, 3.049216944109048, 3.165788050434003, 3.36575071164998, 3.4990136017104305, 4.43206330142857, 4.948260121729618, 5.114964319648152, 5.264936957119971, 5.731538954552434, 5.947977514609647, 6.097998589851159, 7.347471067253991, 7.514088333811287, 7.680666465216746, 7.913920309283185, 8.813517794625113, 9.663229188920468, 10.412829657515886, 11.66229379464039, 11.912199004170816]",,,2017_Jan_27_1016,60.0237984755,famFaceGrey,001,6,
13,./greyInner/BarackObama2_1_cut.png,0,66,66,12,,,1.ja,1.159,None,None,None,None,None,polit,1.504,None,Barack Obama,"['lshift', 'b', 'a', 'r', 'a', 'c', 'k', 'space', 'lshift', 'o', 'b', 'a', 'm', 'a', 'return']","[1.1000737152285183, 1.2665899361072661, 1.4999242959361254, 1.6165483309500814, 1.7999978828524945, 2.0830419047656505, 2.2496797012386196, 2.416142031088839, 2.632766964286475, 2.899400526463978, 3.598971836163855, 3.8157837840612956, 3.9323119058753946, 4.065506469810316, 4.21560004131652]",,,2017_Jan_27_1016,60.0237984755,famFaceGrey,001,6,
119,./greyInner/JudithRakers7_1_cut.png,0,67,67,118,,,2.nein,3.837,None,dummy,1.128,None,None,None,None,None,,['return'],[1.6000621671505542],,,2017_Jan_27_1016,60.0237984755,famFaceGrey,001,6,
218,./greyInner/notfamousface3_3_cut.png,0,68,68,217,,,2.nein,4.466,None,act,3.642,None,None,None,None,None,,['return'],[0.9168740508921474],,,2017_Jan_27_1016,60.0237984755,famFaceGrey,001,6,
209,./greyInner/WillSmith5_1_cut.png,0,69,69,208,,,1.ja,2.395,None,act,3.612,None,None,None,None,None,Will Smith,"['lshift', 'w', 'i', 'l', 'l', 'space', 'lshift', 's', 'm', 'i', 't', 'h', 'return']","[12.045822130094166, 12.295730868203464, 12.495394241743725, 12.728842157668169, 12.86193022266616, 13.045309202983844, 13.678310336620143, 14.044671171699974, 14.311539865567283, 14.478092334578378, 14.727968353135111, 14.91092711174224, 15.227781659214997]",,,2017_Jan_27_1016,60.0237984755,famFaceGrey,001,6,
194,./greyInner/TomCruise6_1_cut.png,0,70,70,193,,,1.ja,1.811,None,dummy,0.895,None,None,None,None,None,,['return'],[4.182507100463681],,,2017_Jan_27_1016,60.0237984755,famFaceGrey,001,6,
175,./greyInner/SahraWagenknecht9_1_cut.png,0,71,71,174,,,2.nein,3.907,None,None,None,host,3.557,None,None,None,,['return'],[0.9166982634897067],,,2017_Jan_27_1016,60.0237984755,famFaceGrey,001,6,
103,./greyInner/JimParsons(SheldonCooper)6_1_cut.png,0,72,72,102,,,1.ja,2.677,None,act,0.728,None,None,None,None,None,,['return'],[0.4835516882326374],,,2017_Jan_27_1016,60.0237984755,famFaceGrey,001,6,
183,./greyInner/SigmarGabriel3_3_cut.png,0,73,73,182,,,1.ja,1.864,None,None,None,None,None,polit,1.615,None,Siegmar Gabriel,"['lshift', 's', 'i', 'e', 'g', 'm', 'a', 'r', 'space', 'lshift', 'g', 'a', 'b', 'r', 'i', 'e', 'l', 'return']","[0.9833890528075244, 1.3330609911718057, 1.533246594440243, 1.6331339365278836, 1.783146992271213, 2.1329494880674247, 2.2995106181365372, 2.516145495512319, 2.649474466238189, 2.7328108469810104, 2.9162741924205875, 3.0492730805972315, 3.3325021925311376, 3.4825354574099947, 3.6156841498145695, 3.7488058967051074, 3.899012061967369, 4.182155525659255]",,,2017_Jan_27_1016,60.0237984755,famFaceGrey,001,6,
5,./greyInner/AlysonHannigan(Lily)8_3_cut.png,0,74,74,4,,,1.ja,1.602,None,act,0.847,None,None,None,None,None,,['return'],[1.2832781912629798],,,2017_Jan_27_1016,60.0237984755,famFaceGrey,001,6,
51,./greyInner/DannFlorek(DonaldDonCragen)1_1_cut.png,0,75,75,50,,,2.nein,6.009,None,None,None,None,None,polit,1.23,None,,['return'],[0.4503083015924858],,,2017_Jan_27_1016,60.0237984755,famFaceGrey,001,6,
137,./greyInner/LisaEdelstein(DrLisaCuddy)10_1_cut.png,0,76,76,136,,,2.nein,3.295,None,dummy,2.878,None,None,None,None,None,,['return'],[0.6168995849752719],,,2017_Jan_27_1016,60.0237984755,famFaceGrey,001,6,
32,./greyInner/BritneySpears14_2_cut.png,0,77,77,31,,,1.ja,1.395,None,None,None,music,2.228,None,None,None,Britney Spears,"['lshift', 'b', 'r', 'i', 't', 'n', 'e', 'y', 'space', 'lshift', 's', 'p', 'e', 'a', 'r', 's', 'return']","[0.7837677014385918, 1.0167495241230426, 1.333639678167856, 1.4666497936423184, 1.7500402578816647, 1.9665080089125695, 2.099981009828298, 2.3998111247765337, 2.5831419881042166, 2.682936304012401, 2.8830558266149637, 3.216130290543333, 3.382698156990955, 3.7492418366318816, 3.9491653626964762, 4.065886914809198, 4.865507881242138]",,,2017_Jan_27_1016,60.0237984755,famFaceGrey,001,6,
213,./greyInner/notfamousface12_2_cut.png,0,78,78,212,,,2.nein,2.118,None,None,None,music,2.251,None,None,None,,['return'],[0.8834077221995358],,,2017_Jan_27_1016,60.0237984755,famFaceGrey,001,6,
16,./greyInner/BastianSchweinsteiger1_1_cut.png,0,79,79,15,,,1.ja,1.173,None,None,None,None,None,sport,1.425,None,Bastian Schweinsteiger,"['lshift', 'b', 'a', 's', 't', 'i', 'a', 'n', 'space', 'lshift', 's', 'c', 'h', 'w', 'e', 'i', 'n', 's', 't', 'e', 'i', 'g', 'e', 'r', 'return']","[0.6500101687238384, 1.083291150772311, 1.2831322363940671, 1.4497055561009802, 1.5663818782436465, 1.782699183486784, 2.382887096370723, 2.5493279339652872, 2.7160099980687846, 2.7991904797650022, 3.13256294824987, 3.4155906103865163, 3.5488724264628217, 3.71506145181138, 3.7988456413386302, 3.93220059523901, 4.18196819017885, 4.38210760113725, 4.514967912383327, 4.614992548282316, 4.781704124139196, 5.014653548050774, 5.081443458366721, 5.197873742301908, 6.414260015230411]",,,2017_Jan_27_1016,60.0237984755,famFaceGrey,001,6,
222,./greyInner/notfamousface7_cut.png,0,80,80,221,,,2.nein,2.109,None,None,None,None,None,sport,0.968,None,,['return'],[1.0834871473107341],,,2017_Jan_27_1016,60.0237984755,famFaceGrey,001,6,
38,./greyInner/CarenMiosga2_11_cut.png,0,81,81,37,,,2.nein,5.122,None,act,0.59,None,None,None,None,None,,['return'],[1.0663594236484641],,,2017_Jan_27_1016,60.0237984755,famFaceGrey,001,6,
223,./greyInner/notfamousface8_9_cut.png,0,82,82,222,,,1.ja,3.723,None,dummy,0.614,None,None,None,None,None,,['return'],[2.049802688264208],,,2017_Jan_27_1016,60.0237984755,famFaceGrey,001,6,
166,./greyInner/RobertSeanLeonard(Wilson)1_1_cut.png,0,83,83,165,,,2.nein,5.95,None,dummy,0.693,None,None,None,None,None,,['return'],[0.8170505440107263],,,2017_Jan_27_1016,60.0237984755,famFaceGrey,001,6,
145,./greyInner/MariskaHargitay(Liv)8_8_cut.png,0,84,84,144,,,2.nein,2.152,None,act,0.768,None,None,None,None,None,,['return'],[0.815400131262777],,,2017_Jan_27_1016,60.0237984755,famFaceGrey,001,6,
171,./greyInner/SahraWagenknecht12_1_cut.png,0,85,85,170,,,2.nein,2.24,None,act,3.696,None,None,None,None,None,,['return'],[0.5335170119224131],,,2017_Jan_27_1016,60.0237984755,famFaceGrey,001,6,
128,./greyInner/KatjaBurkard4_1_cut.png,0,86,86,127,,,1.ja,2.535,None,None,None,host,1.119,None,None,None,,['return'],[0.7167981543602764],,,2017_Jan_27_1016,60.0237984755,famFaceGrey,001,6,
136,./greyInner/LisaEdelstein(DrLisaCuddy)1_1_cut.png,0,87,87,135,,,2.nein,2.263,None,None,None,host,1.262,None,None,None,,['return'],[0.8338632617801522],,,2017_Jan_27_1016,60.0237984755,famFaceGrey,001,6,
64,./greyInner/EmilyDeschanel6_12_cut.png,0,88,88,63,,,2.nein,3.468,None,None,None,host,2.224,None,None,None,,['return'],[0.8501819784551117],,,2017_Jan_27_1016,60.0237984755,famFaceGrey,001,6,
84,./greyInner/HughLaurie(DrHouse)8_1_cut.png,0,89,89,83,,,2.nein,7.773,None,dummy,2.042,None,None,None,None,None,,['return'],[0.9332546780942721],,,2017_Jan_27_1016,60.0237984755,famFaceGrey,001,6,
67,./greyInner/EmmaWatson(HermioneGranger)16_1_cut.png,0,90,90,66,,,1.ja,1.599,None,act,1.226,None,None,None,None,None,Emma Watson,"['lshift', 'e', 'm', 'm', 'a', 'space', 'lshift', 'w', 'a', 't', 's', 'o', 'n', 'return']","[0.6668790229814476, 0.8832441244344409, 1.316654380795626, 1.466619319548954, 1.583362363917331, 1.6998038751498825, 1.849686052681136, 2.01668665125635, 2.1663577555927986, 2.366264601100738, 2.582664667566405, 2.7827659057124947, 2.9994533909966776, 3.2991385134159827]",,,2017_Jan_27_1016,60.0237984755,famFaceGrey,001,6,
190,./greyInner/TaylorSwift8_1_cut.png,0,91,91,189,,,1.ja,2.295,None,None,None,music,0.679,None,None,None,,['return'],[17.8436396717525],,,2017_Jan_27_1016,60.0237984755,famFaceGrey,001,6,
97,./greyInner/JasonSegel(Marshall)14_1_cut.png,0,92,92,96,,,1.ja,1.521,None,act,0.49,None,None,None,None,None,,['return'],[0.7169206922944795],,,2017_Jan_27_1016,60.0237984755,famFaceGrey,001,6,
92,./greyInner/JanHofer3_1_cut.png,0,93,93,91,,,1.ja,2.329,None,None,None,None,None,polit,1.996,None,,['return'],[1.2831559741089222],,,2017_Jan_27_1016,60.0237984755,famFaceGrey,001,6,
180,./greyInner/Shakira9_1_cut.png,0,94,94,179,,,1.ja,2.81,None,None,None,music,2.727,None,None,None,,['return'],[1.0499816834658304],,,2017_Jan_27_1016,60.0237984755,famFaceGrey,001,6,
130,./greyInner/KatjaBurkard7_1_cut.png,0,95,95,129,,,2.nein,2.744,None,None,None,host,1.995,None,None,None,,['return'],[0.6171299049656227],,,2017_Jan_27_1016,60.0237984755,famFaceGrey,001,6,
18,./greyInner/BastianSchweinsteiger14_1_cut.png,0,96,96,17,,,1.ja,1.113,None,None,None,None,None,sport,1.479,None,Bastian Schweinsteiger,"['lshift', 'b', 'a', 's', 't', 'i', 'a', 'n', 'space', 'lshift', 's', 'c', 'h', 'w', 'e', 'i', 'n', 's', 't', 'e', 'i', 'g', 'e', 'r', 'return']","[0.6170994308722584, 0.9501533648849545, 1.1336167103245316, 1.2502503687364879, 1.3999994225960108, 1.649939276358964, 1.800052094660714, 1.933266867731163, 2.1160995598256704, 2.166285259328106, 2.3829948784273256, 2.599589658311288, 2.7996639509437955, 3.0327416868276487, 3.1326691264071087, 3.2993242449961144, 3.516014938079479, 3.6325507586120693, 3.765875879979376, 3.8657183128771067, 4.0158481325152025, 4.215454728007444, 4.315540632872853, 4.448799032014449, 5.231932551528189]",,,2017_Jan_27_1016,60.0237984755,famFaceGrey,001,6,
122,./greyInner/KaleyCuoco(Penny)14_2_cut.png,0,97,97,121,,,1.ja,2.026,None,act,0.611,None,None,None,None,None,,['return'],[0.8666703877138389],,,2017_Jan_27_1016,60.0237984755,famFaceGrey,001,6,
148,./greyInner/MilaKunis4_1_cut.png,0,98,98,147,,,2.nein,4.729,None,None,None,music,0.863,None,None,None,,['return'],[0.733598040932975],,,2017_Jan_27_1016,60.0237984755,famFaceGrey,001,6,
208,./greyInner/WillSmith4_1_cut.png,0,99,99,207,,,1.ja,2.169,None,act,0.959,None,None,None,None,None,Will Smith,"['lshift', 'w', 'i', 'l', 'l', 'space', 'lshift', 's', 'm', 'i', 't', 'h', 'return']","[0.6001683453077931, 1.0665740254225966, 1.3330921068250063, 1.5327509894455034, 1.6997807789948638, 2.0495880864900755, 2.382742745401629, 2.6658704908768414, 3.0323891496827855, 3.2157453546255965, 3.482053645952419, 3.6823380494397497, 4.898508437474447]",,,2017_Jan_27_1016,60.0237984755,famFaceGrey,001,6,
55,./greyInner/DannFlorek(DonaldDonCragen)8_1_cut.png,0,100,100,54,,,2.nein,3.294,None,None,None,None,None,polit,1.233,None,,['return'],[1.5011031621843358],,,2017_Jan_27_1016,60.0237984755,famFaceGrey,001,6,
158,./greyInner/NicoleKidman5_1_cut.png,0,101,101,157,,,1.ja,29.951,None,act,0.624,None,None,None,None,None,,['return'],[1.6830270847326574],,,2017_Jan_27_1016,60.0237984755,famFaceGrey,001,6,
26,./greyInner/Beyonce1_1_cut.png,0,102,102,25,,,1.ja,2.719,None,None,None,music,1.221,None,None,None,Beaunce,"['lshift', 'b', 'e', 'a', 'u', 'n', 'c', 'e', 'return']","[4.2153700421054054, 4.432008127280369, 4.832016210934398, 5.231743932928566, 5.564953124428484, 5.964907637834131, 6.364589167518261, 6.5145252360775885, 6.664462266977807]",,,2017_Jan_27_1016,60.0237984755,famFaceGrey,001,6,
88,./greyInner/Ice-T(OdafinFinTutuola)5_1_cut.png,0,103,103,87,,,2.nein,2.529,None,None,None,music,1.262,None,None,None,,['return'],[0.8005383970375988],,,2017_Jan_27_1016,60.0237984755,famFaceGrey,001,6,
73,./greyInner/GuentherJauch4_1_cut.png,0,104,104,72,,,1.ja,1.095,None,None,None,host,2.51,None,None,None,Günther Jauch,"['lshift', 'g', u'\xfc', 'n', 't', 'h', 'e', 'r', 'space', 'lshift', 'j', 'a', 'u', 'c', 'h', 'return']","[0.5838127389406509, 0.7837622481793005, 1.2002693268304938, 1.4501071725744623, 1.6833635828807019, 1.8665542653779994, 1.9666937404927012, 2.016572132820329, 2.183170473361315, 2.3164003230895105, 2.449533297277412, 2.5663247794154813, 2.6997166230084986, 2.8495410601517506, 2.916099367357674, 3.4159758670839437]",,,2017_Jan_27_1016,60.0237984755,famFaceGrey,001,6,
9,./greyInner/AngelaMerkel5_1_cut.png,0,105,105,8,,,1.ja,1.329,None,None,None,None,None,polit,1.296,None,Angela Merkel,"['lshift', 'a', 'n', 'g', 'e', 'l', 'a', 'space', 'lshift', 'm', 'e', 'r', 'k', 'e', 'l', 'return']","[0.28373017018657265, 0.5669955302519156, 0.8167862213467743, 1.0167402215047332, 1.1164434359116058, 1.3498435556266486, 1.4665006309733144, 1.6496220250064653, 1.799601078077103, 1.9496061143217958, 2.5660723256087294, 2.6993733884810354, 2.8992455897569016, 3.016073320027317, 3.182248551838711, 3.449127189884166]",,,2017_Jan_27_1016,60.0237984755,famFaceGrey,001,6,
35,./greyInner/BritneySpears8_5_cut.png,0,106,106,34,,,1.ja,1.725,None,None,None,music,2.304,None,None,None,Britney spears,"['lshift', 'b', 'r', 'i', 't', 'n', 'e', 'y', 'space', 's', 'p', 'e', 'a', 'r', 's', 'return']","[0.30046718389257876, 1.0835522656361718, 1.3833025063822788, 1.5666208592920157, 1.7998224162301995, 2.0495165525653647, 2.183009762616166, 2.682841353152071, 3.5990693532630758, 4.18229057401004, 4.365567546309649, 5.4984714836264175, 5.7315293311548885, 5.881545273917254, 5.998132419238573, 6.214770504413536]",,,2017_Jan_27_1016,60.0237984755,famFaceGrey,001,6,
70,./greyInner/EmmaWatson(HermioneGranger)9_1_cut.png,0,107,107,69,,,1.ja,1.213,None,act,0.762,None,None,None,None,None,Emma Watson,"['lshift', 'e', 'm', 'm', 'a', 'space', 'lshift', 'w', 'a', 't', 's', 'o', 'n', 'return']","[0.8838186412922369, 1.2337180126278326, 1.5670118900297894, 1.7335993240531025, 1.8336265261914377, 1.9500654711846437, 2.116745610608632, 2.233469087400408, 2.3665404718421996, 2.5164588975057995, 2.733016146137743, 2.916237623509005, 3.132774983784657, 3.399320331481249]",,,2017_Jan_27_1016,60.0237984755,famFaceGrey,001,6,
62,./greyInner/EmilyDeschanel3_1_cut.png,0,108,108,61,,,2.nein,2.626,None,None,None,host,1.047,None,None,None,,['return'],[1.1667327473323894],,,2017_Jan_27_1016,60.0237984755,famFaceGrey,001,6,
6,./greyInner/AngelaMerkel1_1_cut.png,0,109,109,5,,,1.ja,0.959,None,None,None,None,None,polit,1.86,None,Angela Merkel,"['lshift', 'a', 'n', 'g', 'e', 'l', 'space', 'backspace', 'a', 'space', 'lshift', 'm', 'e', 'r', 'k', 'e', 'l', 'return']","[0.40005523830495804, 0.683359091962302, 0.9000635785823761, 1.1164213020974785, 1.2165014329239057, 1.3830587136344548, 1.6663288853987979, 2.3660423006085693, 4.065386177336222, 4.94841281297704, 5.081501519534868, 5.314933396462948, 5.564779261706462, 5.698117535050187, 5.897903446523742, 6.04790655808938, 6.18118099622734, 6.364568316823352]",,,2017_Jan_27_1016,60.0237984755,famFaceGrey,001,6,
133,./greyInner/LeonardoDiCaprio3_1_cut.png,0,110,110,132,,,1.ja,3.708,None,act,0.763,None,None,None,None,None,Leonardo Dicabrio,"['lshift', 'l', 'e', 'o', 'n', 'a', 'r', 'd', 'o', 'space', 'lshift', 'd', 'i', 'c', 'a', 'b', 'r', 'i', 'o', 'return']","[10.229791345485864, 10.413382361337426, 10.663026135223845, 10.846327166018455, 11.112908120287102, 11.296180601667402, 11.479261577428588, 11.962465860995508, 12.46228654501374, 12.762187552327305, 13.228631405253509, 13.545264935352861, 14.161540282580972, 15.094504013277401, 15.277921487187086, 16.11077204672347, 16.344117954629837, 16.510849418842554, 18.02681880617274, 18.593171814221932]",,,2017_Jan_27_1016,60.0237984755,famFaceGrey,001,6,
132,./greyInner/LeonardoDiCaprio2_1_cut.png,0,111,111,131,,,1.ja,2.158,None,act,0.692,None,None,None,None,None,Leonardo Decabrio,"['lshift', 'l', 'e', 'o', 'n', 'a', 'r', 'd', 'o', 'space', 'lshift', 'd', 'e', 'backspace', 'backspace', 'lshift', 'e', 'backspace', 'lshift', 'd', 'e', 'c', 'b', 'r', 'i', 'p', 'backspace', 'o', 'backspace', 'backspace', 'backspace', 'backspace', 'a', 'b', 'r', 'i', 'o', 'return']","[0.5667677765004555, 0.7501287931418119, 1.0165634717623107, 1.1829468897494735, 1.4496458910334695, 1.5994812346943945, 1.8829730653915249, 2.1162400614357466, 2.432616967589638, 2.7490455193137677, 2.9991406305634882, 3.315957326003627, 3.5998876628673315, 4.282120175709679, 5.181586462060295, 5.931327432265789, 6.2646912396921834, 6.68109534798532, 6.8809011478142565, 7.147549786648597, 7.364025557178138, 8.247176655432668, 8.830186802984826, 9.013434263531053, 9.180182729080116, 9.380018040663344, 10.029110458002833, 10.99593475592792, 12.462000088535206, 12.71179783678781, 12.878652159714875, 13.278442754575735, 13.62791933796143, 14.111262198458462, 14.377963124421512, 14.527948272310823, 15.160763353586844, 15.993783605706994]",,,2017_Jan_27_1016,60.0237984755,famFaceGrey,001,6,
68,./greyInner/EmmaWatson(HermioneGranger)3_1_cut.png,0,112,112,67,,,1.ja,1.678,None,act,0.597,None,None,None,None,None,Emma Watson,"['lshift', 'e', 'm', 'm', 'a', 'space', 'lshift', 'w', 'a', 't', 's', 'o', 'n', 'return']","[0.4337801156225396, 0.8001759157150445, 1.1001872713241028, 1.233243258328912, 1.3834500651510098, 1.5334541390557206, 1.699904279268594, 1.933055473757122, 2.099774427552802, 2.233031222794125, 2.4661939653597074, 2.6994805289796204, 2.9324046112760698, 3.1659022480898784]",,,2017_Jan_27_1016,60.0237984755,famFaceGrey,001,6,
60,./greyInner/ElvisPresley6_1_cut.png,0,113,113,59,,,1.ja,2.411,None,None,None,music,0.693,None,None,None,Elvis Presley,"['lshift', 'e', 'l', 'v', 'i', 's', 'space', 'lshift', 'p', 'r', 'e', 's', 'l', 'e', 'y', 'return']","[0.23291798747777648, 0.6331146897318831, 1.0164200831331982, 2.115880467133138, 2.3332913111626112, 2.998539809752401, 3.1487844686052995, 3.3489729588936825, 4.697827549992326, 4.964574347485723, 5.464171447892113, 6.680410482831576, 6.8137503600755736, 6.930300615705164, 7.349794155517884, 7.946655259732324]",,,2017_Jan_27_1016,60.0237984755,famFaceGrey,001,6,
205,./greyInner/Usher7_1_cut.png,0,114,114,204,,,1.ja,2.094,None,None,None,music,1.146,None,None,None,Usher,"['lshift', 'u', 's', 'h', 'e', 'r', 'return']","[0.3666290071032563, 0.6998689934762297, 0.9663521098664205, 1.132801287739312, 1.2501226983240485, 1.3500652145603453, 1.499875858166888]",,,2017_Jan_27_1016,60.0237984755,famFaceGrey,001,6,
188,./greyInner/TaylorSwift3_1_cut.png,0,115,115,187,,,1.ja,2.161,None,None,None,music,1.159,None,None,None,,['return'],[1.932999978828775],,,2017_Jan_27_1016,60.0237984755,famFaceGrey,001,6,
150,./greyInner/MilaKunis7_3_cut.png,0,116,116,149,,,1.ja,6.292,None,act,1.082,None,None,None,None,None,,['return'],[2.5656944468501024],,,2017_Jan_27_1016,60.0237984755,famFaceGrey,001,6,
85,./greyInner/HughLaurie(DrHouse)9_2_cut.png,0,117,117,84,,,1.ja,2.815,None,dummy,0.661,None,None,None,None,None,,['return'],[0.6335855946717857],,,2017_Jan_27_1016,60.0237984755,famFaceGrey,001,6,
212,./greyInner/notfamousface11_1_cut.png,0,118,118,211,,,2.nein,4.338,None,act,1.741,None,None,None,None,None,,['return'],[0.5670651394975721],,,2017_Jan_27_1016,60.0237984755,famFaceGrey,001,6,
101,./greyInner/JimParsons(SheldonCooper)1_1_cut.png,0,119,119,100,,,1.ja,1.076,None,act,0.514,None,None,None,None,None,,['return'],[0.6999296208832675],,,2017_Jan_27_1016,60.0237984755,famFaceGrey,001,6,
21,./greyInner/BenedictCumberbatch16_1_cut.png,0,120,120,20,,,2.nein,1.613,None,None,None,None,None,sport,2.079,None,,['return'],[0.6335102113871471],,,2017_Jan_27_1016,60.0237984755,famFaceGrey,001,6,
66,./greyInner/EmmaWatson(HermioneGranger)11_2_cut.png,0,121,121,65,,,1.ja,1.144,None,act,0.876,None,None,None,None,None,Emma Watson,"['lshift', 'e', 'm', 'm', 'a', 'space', 'lshift', 'w', 'a', 't', 's', 'o', 'n', 'return']","[0.7165360771568885, 0.8995769554267099, 1.5497622699931526, 1.6998144608878647, 1.9325281115498, 2.0823403590557064, 2.2657093951956995, 2.598579843087464, 3.765376104846837, 4.014851790048851, 4.465186074815392, 4.9649785301999145, 5.198011677673094, 5.498236031156921]",,,2017_Jan_27_1016,60.0237984755,famFaceGrey,001,6,
157,./greyInner/NicoleKidman3_1_cut.png,0,122,122,156,,,1.ja,1.807,None,act,0.851,None,None,None,None,None,,['return'],[27.322492254768804],,,2017_Jan_27_1016,60.0237984755,famFaceGrey,001,6,
131,./greyInner/LeonardoDiCaprio1_1_cut.png,0,123,123,130,,,1.ja,1.893,None,act,0.954,None,None,None,None,None,Leonardo Decabrio,"['lshift', 'l', 'e', 'o', 'n', 'a', 'r', 'd', 'o', 'space', 'lshift', 'd', 'e', 'c', 'a', 'b', 'r', 'i', 'o', 'return']","[0.8000893051330422, 0.965959154450502, 1.2662637029170583, 1.4829592076994231, 2.848981619951701, 2.9821380110752216, 3.1822748557933664, 3.365217575404131, 3.631819380369052, 3.8314221265018205, 4.082035297340553, 4.3986171818714865, 5.380962737562186, 5.93073046081372, 6.147288671785645, 6.430453627732277, 6.613698201258558, 6.763726012878578, 6.980655045451385, 7.929912151208555]",,,2017_Jan_27_1016,60.0237984755,famFaceGrey,001,6,
177,./greyInner/Shakira2_1_cut.png,0,124,124,176,,,1.ja,4.109,None,None,None,music,1.229,None,None,None,,['return'],[0.7504909536846753],,,2017_Jan_27_1016,60.0237984755,famFaceGrey,001,6,
28,./greyInner/Beyonce3_2_cut.png,0,125,125,27,,,1.ja,2.593,None,None,None,music,1.078,None,None,None,,['return'],[0.7002417397561658],,,2017_Jan_27_1016,60.0237984755,famFaceGrey,001,6,
98,./greyInner/JasonSegel(Marshall)6_1_cut.png,0,126,126,97,,,1.ja,1.462,None,act,0.602,None,None,None,None,None,,['return'],[0.3836191161744864],,,2017_Jan_27_1016,60.0237984755,famFaceGrey,001,6,
59,./greyInner/ElvisPresley5_2_cut.png,0,127,127,58,,,1.ja,1.515,None,None,None,music,1.264,None,None,None,Elvis Presley,"['lshift', 'e', 'l', 'v', 'i', 's', 'space', 'lshift', 'p', 'r', 'e', 's', 'l', 'e', 'y', 'return']","[0.8832893544049512, 1.1830864290195677, 1.6995899149351317, 2.2824945258907974, 2.399338295157577, 2.5827121429956605, 2.6992219803541957, 2.865688480343124, 2.982556949665195, 3.3821169037546497, 3.498935972967047, 3.798915250583377, 4.081990388150189, 4.215347266730532, 4.448516424894478, 4.614824138818221]",,,2017_Jan_27_1016,60.0237984755,famFaceGrey,001,6,
179,./greyInner/Shakira7_1_cut.png,0,128,128,178,,,1.ja,1.962,None,None,None,music,0.662,None,None,None,,['return'],[1.8830632045528546],,,2017_Jan_27_1016,60.0237984755,famFaceGrey,001,6,
224,./greyInner/notfamousface9_1_cut.png,0,129,129,223,,,2.nein,1.853,None,None,None,None,None,sport,4.193,None,,['return'],[0.9664069632344763],,,2017_Jan_27_1016,60.0237984755,famFaceGrey,001,6,
105,./greyInner/JimParsons(SheldonCooper)9_3_cut.png,0,130,130,104,,,1.ja,1.431,None,act,0.605,None,None,None,None,None,,['return'],[0.46708797902829247],,,2017_Jan_27_1016,60.0237984755,famFaceGrey,001,6,
181,./greyInner/SigmarGabriel1_2_cut.png,0,131,131,180,,,1.ja,1.346,None,None,None,None,None,polit,0.679,None,Siegmar Gabriel,"['lshift', 's', 'i', 'e', 'g', 'm', 'a', 'r', 'space', 'lshift', 'g', 'a', 'b', 'r', 'i', 'e', 'l', 'return']","[0.6834636662197227, 0.9667476315216845, 1.199987361271269, 1.3000886635736606, 1.4499050812182759, 1.6831576421654972, 1.81628644621469, 1.9664246061311133, 2.0996425870007442, 2.2329532732710504, 2.432948333260356, 2.6328362527519857, 2.7494378331703047, 2.91607370496331, 3.0659465798771635, 3.182640865695248, 3.365833472873419, 3.5990744857417667]",,,2017_Jan_27_1016,60.0237984755,famFaceGrey,001,6,
83,./greyInner/HughLaurie(DrHouse)5_3_cut.png,0,132,132,82,,,1.ja,1.778,None,act,0.511,None,None,None,None,None,,['return'],[1.0834935629090978],,,2017_Jan_27_1016,60.0237984755,famFaceGrey,001,6,
138,./greyInner/LisaEdelstein(DrLisaCuddy)2_2_cut.png,0,133,133,137,,,2.nein,1.425,None,None,None,host,0.924,None,None,None,,['return'],[0.6500207544622754],,,2017_Jan_27_1016,60.0237984755,famFaceGrey,001,6,
20,./greyInner/BastianSchweinsteiger6_2_cut.png,0,134,134,19,,,1.ja,0.974,None,None,None,None,None,sport,1.044,None,Bastian Schweinsteiger,"['lshift', 'b', 'a', 's', 't', 'i', 'a', 'n', 'space', 'lshift', 's', 'c', 'h', 'w', 'e', 'i', 'n', 's', 'e', 'i', 'backspace', 'backspace', 'backspace', 's', 't', 'e', 'i', 'g', 'e', 'r', 'return']","[0.6172059298096428, 1.117053238562221, 1.2668969225014735, 1.417057216233843, 1.5835128097050983, 1.8167095549433725, 2.0166090225129665, 2.149896612628254, 2.3498916726175594, 2.4164884734145744, 2.7496286972291273, 3.1495389430047, 3.3493736130276375, 3.715765884540815, 3.8325076457895193, 3.9657872164070795, 4.182322972783368, 4.398925130605676, 4.632126366763259, 4.84852097997009, 5.581964084195533, 5.8486210633091105, 6.081767125318038, 6.964691432161089, 7.09793282996543, 7.214579319575023, 7.380934188147876, 7.597685187858588, 7.714447799802656, 7.84772448340027, 8.014304218705547]",,,2017_Jan_27_1016,60.0237984755,famFaceGrey,001,6,
170,./greyInner/RobertSeanLeonard(Wilson)8_1_cut.png,0,135,135,169,,,2.nein,2.178,None,None,None,None,None,sport,0.979,None,,['return'],[0.7674136989708131],,,2017_Jan_27_1016,60.0237984755,famFaceGrey,001,6,
161,./greyInner/OmarEpps(DrEricForeman)1_5_cut.png,0,136,136,160,,,2.nein,2.448,None,None,None,music,1.099,None,None,None,,['return'],[0.5668463675847306],,,2017_Jan_27_1016,60.0237984755,famFaceGrey,001,6,
72,./greyInner/GuentherJauch3_1_cut.png,0,137,137,71,,,1.ja,1.123,None,None,None,host,0.603,None,None,None,Günther Jauch,"['lshift', 'g', u'\xfc', 'n', 't', 'h', 'e', 'r', 'space', 'lshift', 'j', 'a', 'u', 'c', 'h', 'return']","[0.6835162741281238, 0.9000985435950497, 1.3165706572326599, 1.6828920363814177, 1.899694040101167, 2.0829540110644302, 2.2161886724907163, 2.2827524329550215, 2.466065011826686, 2.6493609101426046, 2.7658681812608847, 2.916067930924328, 3.0157502946358363, 3.1825619538321916, 3.2991279276784553, 3.582310205742033]",,,2017_Jan_27_1016,60.0237984755,famFaceGrey,001,6,
160,./greyInner/NicoleKidman8_2_cut.png,0,138,138,159,,,2.nein,2.993,None,None,None,None,None,polit,2.745,None,,['return'],[0.6335878401314403],,,2017_Jan_27_1016,60.0237984755,famFaceGrey,001,6,
58,./greyInner/ElvisPresley4_10_cut.png,0,139,139,57,,,1.ja,1.405,None,None,None,music,1.451,None,None,None,Elvis Presley,"['lshift', 'e', 'l', 'v', 'i', 's', 'space', 'lshift', 'p', 'r', 'e', 's', 'l', 'e', 'y', 'return']","[0.5169429544221202, 0.6835432196430702, 1.0167883384947345, 1.7498275807874961, 1.9161205388336384, 2.1496326107444474, 2.3161719277786688, 2.466220910874654, 2.6328077033376758, 3.0158458870564573, 3.2324958410881663, 3.96558833284962, 4.14885600253092, 4.248717040664815, 4.898574197361086, 5.365052694519363]",,,2017_Jan_27_1016,60.0237984755,famFaceGrey,001,6,
3,./greyInner/AlysonHannigan(Lily)14_2_cut.png,0,140,140,2,,,1.ja,1.562,None,act,0.463,None,None,None,None,None,,['return'],[0.8835292977928475],,,2017_Jan_27_1016,60.0237984755,famFaceGrey,001,6,
108,./greyInner/JoachimLoew15_1_cut.png,0,141,141,107,,,1.ja,1.128,None,None,None,None,None,sport,0.895,None,Joachim Lülf,"['lshift', 'j', 'o', 'a', 'c', 'h', 'i', 'm', 'space', 'lshift', 'l', u'\xfc', 'l', 'f', 'return']","[0.8169363463548507, 1.0669326573852231, 1.2501464360384489, 1.3999198691726633, 1.6999883236103415, 1.8500129274307255, 1.9832899318080308, 2.2497525182825484, 2.4329996580481748, 2.5828904966374466, 2.749515782693379, 3.0828767031007374, 3.2994044399792983, 3.6325228507585052, 3.8491426514765408]",,,2017_Jan_27_1016,60.0237984755,famFaceGrey,001,6,
14,./greyInner/BarackObama4_1_cut.png,0,142,142,13,,,1.ja,1.529,None,None,None,None,None,polit,1.097,None,Barack Obama,"['lshift', 'b', 'a', 'r', 'a', 'c', 'k', 'space', 'lshift', 'o', 'b', 'a', 'm', 'a', 'return']","[0.45038881735490577, 0.6336933767288428, 0.8336172235731283, 0.9502630716215208, 1.0665692137235965, 1.3000071854703492, 1.4497308977151988, 1.616706154676649, 1.7665062125452096, 2.1511120477889563, 2.4163418769858254, 2.549558253956093, 2.6994035417956184, 2.832725776142979, 3.0492676273388497]",,,2017_Jan_27_1016,60.0237984755,famFaceGrey,001,6,
91,./greyInner/JanHofer1_3_cut.png,0,143,143,90,,,2.nein,3.762,None,None,None,None,None,polit,0.913,None,,['return'],[0.9998886893636154],,,2017_Jan_27_1016,60.0237984755,famFaceGrey,001,6,
56,./greyInner/ElvisPresley1_1_cut.png,0,144,144,55,,,1.ja,1.323,None,None,None,music,1.108,None,None,None,Elvis Presley,"['lshift', 'e', 'l', 'v', 'i', 's', 'space', 'lshift', 'p', 'r', 'e', 's', 'l', 'e', 'y', 'return']","[0.8832652959099505, 1.0499656444690117, 1.4997786618469036, 2.0162750906038127, 2.1995116446323664, 2.3327819126307077, 2.4827430020250176, 2.6493012450755486, 2.849174729470178, 3.0823393967157244, 3.315811050355478, 3.8986826209775245, 4.248294894274295, 4.348476070779725, 4.598445757075751, 4.765097026305739]",,,2017_Jan_27_1016,60.0237984755,famFaceGrey,001,6,
147,./greyInner/MilaKunis10_1_cut.png,0,145,145,146,,,2.nein,2.512,None,None,None,music,1.313,None,None,None,,['return'],[0.500221338152187],,,2017_Jan_27_1016,60.0237984755,famFaceGrey,001,6,
111,./greyInner/JoshRadnor(Ted)1_2_cut.png,0,146,146,110,,,1.ja,1.573,None,act,0.61,None,None,None,None,None,,['return'],[1.050339994649221],,,2017_Jan_27_1016,60.0237984755,famFaceGrey,001,6,
155,./greyInner/NeilPatrickHarris(Barney)3_7_cut.png,0,147,147,154,,,1.ja,1.426,None,dummy,0.418,None,None,None,None,None,,['return'],[0.9667848419940128],,,2017_Jan_27_1016,60.0237984755,famFaceGrey,001,6,
4,./greyInner/AlysonHannigan(Lily)5_4_cut.png,0,148,148,3,,,1.ja,1.866,None,act,0.437,None,None,None,None,None,,['return'],[0.9001883619757791],,,2017_Jan_27_1016,60.0237984755,famFaceGrey,001,6,
151,./greyInner/NeilPatrickHarris(Barney)1_1_cut.png,0,149,149,150,,,1.ja,1.112,None,act,0.978,None,None,None,None,None,,['return'],[0.5500981265804512],,,2017_Jan_27_1016,60.0237984755,famFaceGrey,001,6,
153,./greyInner/NeilPatrickHarris(Barney)13_4_cut.png,0,150,150,152,,,1.ja,1.122,None,act,0.52,None,None,None,None,None,,['return'],[0.6835740145161253],,,2017_Jan_27_1016,60.0237984755,famFaceGrey,001,6,
196,./greyInner/UrsulavonderLeyen1_1_cut.png,0,151,151,195,,,2.nein,5.362,None,None,None,host,5.762,None,None,None,,['return'],[0.6336686766744606],,,2017_Jan_27_1016,60.0237984755,famFaceGrey,001,6,
53,./greyInner/DannFlorek(DonaldDonCragen)2_1_cut.png,0,152,152,52,,,2.nein,2.095,None,None,None,None,None,polit,0.928,None,,['return'],[0.4003359207445101],,,2017_Jan_27_1016,60.0237984755,famFaceGrey,001,6,
192,./greyInner/TomCruise4_1_cut.png,0,153,153,191,,,1.ja,2.257,None,act,0.776,None,None,None,None,None,,"['lshift', 't', 'o', 'm', 'space', 'lshift', 'h', 'a', 'n', 'k', 's', 'backspace', 'backspace', 'backspace', 'backspace', 'backspace', 'backspace', 'backspace', 'backspace', 'backspace', 'return']","[2.049487040811073, 2.1994664146614014, 2.8658908924799107, 3.0989987816774374, 3.2823790451147943, 4.03204976451525, 4.2486378080202485, 4.615203942256812, 4.748450472540753, 4.8984288840511, 4.998341888534014, 6.99753320232594, 7.1974339530152065, 7.380628164092741, 7.547278150203056, 7.71392781553277, 7.897141914965687, 8.08054399143839, 8.263699067363632, 8.44695711364784, 9.046695293067387]",,,2017_Jan_27_1016,60.0237984755,famFaceGrey,001,6,
159,./greyInner/NicoleKidman7_1_cut.png,0,154,154,158,,,1.ja,1.778,None,act,0.596,None,None,None,None,None,,['return'],[0.8002265989434818],,,2017_Jan_27_1016,60.0237984755,famFaceGrey,001,6,
197,./greyInner/UrsulavonderLeyen4_1_cut.png,0,155,155,196,,,2.nein,1.779,None,None,None,host,1.412,None,None,None,,['return'],[0.6669964284365051],,,2017_Jan_27_1016,60.0237984755,famFaceGrey,001,6,
185,./greyInner/SigmarGabriel8_2_cut.png,0,156,156,184,,,1.ja,3.26,None,None,None,None,None,polit,0.921,None,Siegmar Gabriel,"['lshift', 's', 'i', 'e', 'g', 'm', 'a', 'r', 'space', 'lshift', 'g', 'e', 'b', 'a', 'r', 'i', 'e', 'l', 'backspace', 'backspace', 'backspace', 'backspace', 'backspace', 'r', 'i', 'e', 'l', 'backspace', 'backspace', 'backspace', 'backspace', 'backspace', 'backspace', 'a', 'b', 'r', 'i', 'e', 'l', 'return']","[0.500050362449656, 0.7834212591124015, 1.1832429696269173, 1.316560392275278, 1.4497674666281455, 1.699768589357518, 1.8164259854838747, 1.982883182855403, 2.1661983279664128, 2.1994988134347295, 2.3828793976526867, 2.532736233569267, 2.6659901417915535, 2.8493219674592183, 2.982318610175753, 3.2157527325634874, 3.3324149403897536, 3.4823930311204094, 4.415092759933032, 4.598653622471829, 4.765161503071795, 4.914857628243226, 5.315106938405734, 6.264434936527323, 6.431230235946714, 6.564458160994036, 6.681002963365245, 8.247190448970287, 8.430475440767623, 8.613515356697462, 8.763683349147868, 8.946907713538167, 9.11344831369206, 9.846128603240686, 9.996643679576664, 10.312901576377044, 10.479702008275126, 10.57953385543442, 10.77930340713192, 11.062704136328648]",,,2017_Jan_27_1016,60.0237984755,famFaceGrey,001,6,
200,./greyInner/UrsulavonderLeyen8_2_cut.png,0,157,157,199,,,2.nein,2.357,None,None,None,host,2.108,None,None,None,,['return'],[0.699877654534248],,,2017_Jan_27_1016,60.0237984755,famFaceGrey,001,6,
44,./greyInner/CobieSmulders(Robin)4_7_cut.png,0,158,158,43,,,1.ja,1.674,None,act,0.767,None,None,None,None,None,,['return'],[0.5008115732271108],,,2017_Jan_27_1016,60.0237984755,famFaceGrey,001,6,
87,./greyInner/Ice-T(OdafinFinTutuola)12_1_cut.png,0,159,159,86,,,2.nein,2.679,None,None,None,music,4.095,None,None,None,,['return'],[0.48358184154676565],,,2017_Jan_27_1016,60.0237984755,famFaceGrey,001,6,
23,./greyInner/BenedictCumberbatch3_9_cut.png,0,160,160,22,,,2.nein,2.058,None,None,None,None,None,sport,4.233,None,,['return'],[0.8169732360474882],,,2017_Jan_27_1016,60.0237984755,famFaceGrey,001,6,
115,./greyInner/JoshRadnor(Ted)9_1_cut.png,0,161,161,114,,,1.ja,1.413,None,act,0.464,None,None,None,None,None,,['return'],[0.8001002116498057],,,2017_Jan_27_1016,60.0237984755,famFaceGrey,001,6,
39,./greyInner/CarenMiosga6_2_cut.png,0,162,162,38,,,1.ja,3.979,None,None,None,music,1.562,None,None,None,,['return'],[0.7168327985928045],,,2017_Jan_27_1016,60.0237984755,famFaceGrey,001,6,
36,./greyInner/CarenMiosga1_1_cut.png,0,163,163,35,,,2.nein,5.41,None,None,None,None,None,polit,5.142,None,,['return'],[0.5004311282273193],,,2017_Jan_27_1016,60.0237984755,famFaceGrey,001,6,
195,./greyInner/TomCruise7_1_cut.png,0,164,164,194,,,1.ja,1.53,None,act,0.847,None,None,None,None,None,,['return'],[0.7835367398884046],,,2017_Jan_27_1016,60.0237984755,famFaceGrey,001,6,
61,./greyInner/EmilyDeschanel15_1_cut.png,0,165,165,60,,,2.nein,3.477,None,None,None,host,2.36,None,None,None,,['return'],[0.733491221215445],,,2017_Jan_27_1016,60.0237984755,famFaceGrey,001,6,
78,./greyInner/GeorgeClooney16_1_cut.png,0,166,166,77,,,1.ja,4.391,None,act,0.542,None,None,None,None,None,,['return'],[0.8833361882752797],,,2017_Jan_27_1016,60.0237984755,famFaceGrey,001,6,
203,./greyInner/Usher2_1_cut.png,0,167,167,202,,,1.ja,3.859,None,None,None,music,0.845,None,None,None,Usher,"['lshift', 'u', 's', 'h', 'e', 'r', 'return']","[0.9166398815423236, 1.0834156133851138, 1.3497726632622289, 1.4663809800595118, 1.616470702206243, 1.7330325059128882, 3.948746744885284]",,,2017_Jan_27_1016,60.0237984755,famFaceGrey,001,6,
126,./greyInner/KatjaBurkard1_1_cut.png,0,168,168,125,,,1.ja,2.692,None,None,None,host,0.711,None,None,None,,['return'],[0.7501291139224122],,,2017_Jan_27_1016,60.0237984755,famFaceGrey,001,6,
162,./greyInner/OmarEpps(DrEricForeman)2_2_cut.png,0,169,169,161,,,2.nein,1.818,None,None,None,music,1.17,None,None,None,,['return'],[0.3502640981178047],,,2017_Jan_27_1016,60.0237984755,famFaceGrey,001,6,
140,./greyInner/LisaEdelstein(DrLisaCuddy)9_1_cut.png,0,170,170,139,,,2.nein,1.395,None,act,1.896,None,None,None,None,None,,['return'],[0.3671060068609222],,,2017_Jan_27_1016,60.0237984755,famFaceGrey,001,6,
144,./greyInner/MariskaHargitay(Liv)6_5_cut.png,0,171,171,143,,,2.nein,2.453,None,None,None,host,0.667,None,None,None,,['return'],[0.300356194035885],,,2017_Jan_27_1016,60.0237984755,famFaceGrey,001,6,
110,./greyInner/JoachimLoew8_1_cut.png,0,172,172,109,,,1.ja,1.048,None,None,None,None,None,sport,1.092,None,Joachim Lülf,"['lshift', 'j', 'o', 'a', 'c', 'h', 'i', 'm', 'space', 'lshift', 'l', u'\xfc', 'l', 'f', 'return']","[0.8332528175706102, 1.033260708756643, 1.2665232138815554, 1.3831138877822013, 1.5831044568521975, 1.7329404420734136, 1.932907914988391, 2.182840390812089, 2.34940793648002, 2.4494120424633365, 2.6325850820649066, 2.899259704074211, 3.6989727343470804, 4.04878389120131, 4.515259822121152]",,,2017_Jan_27_1016,60.0237984755,famFaceGrey,001,6,
206,./greyInner/WillSmith1_1_cut.png,0,173,173,205,,,1.ja,3.446,None,act,0.747,None,None,None,None,None,Will Smith,"['lshift', 'w', 'i', 'l', 'l', 'space', 'lshift', 's', 'm', 'i', 't', 'h', 'return']","[0.450098511516444, 0.766724984458051, 1.01664847844404, 1.2165906097452535, 1.3831604008719296, 1.532995102973473, 1.6829722313641469, 1.9662106459163624, 2.2659644152408873, 2.432711276889677, 2.6826116747215565, 2.8991265804024806, 3.898857446039983]",,,2017_Jan_27_1016,60.0237984755,famFaceGrey,001,6,
76,./greyInner/GeorgeClooney11_1_cut.png,0,174,174,75,,,1.ja,2.047,None,act,0.546,None,None,None,None,None,George Cluney,"['lshift', 'g', 'e', 'o', 'r', 'g', 'e', 'space', 'lshift', 'c', 'l', 'u', 'n', 'e', 'y', 'return']","[0.3504392439608637, 0.6501673508901149, 0.8835132587973931, 1.3666556318376024, 1.6831608499642243, 1.8998396741908437, 2.0331115460885485, 2.1663847011068356, 2.3329631532924395, 2.499595496507027, 2.866232843887701, 3.116032516820269, 3.365702915441034, 3.6157973851304632, 3.8657054816803793, 5.16512981001506]",,,2017_Jan_27_1016,60.0237984755,famFaceGrey,001,6,
22,./greyInner/BenedictCumberbatch2_2_cut.png,0,175,175,21,,,2.nein,1.699,None,None,None,None,None,sport,4.129,None,,['return'],[0.5832799234749473],,,2017_Jan_27_1016,60.0237984755,famFaceGrey,001,6,
79,./greyInner/GeorgeClooney3_1_cut.png,0,176,176,78,,,1.ja,2.979,None,dummy,2.079,None,None,None,None,None,George Cluney,"['lshift', 'g', 'e', 'o', 'r', 'g', 'e', 'space', 'lshift', 'c', 'l', 'u', 'n', 'e', 'y', 'return']","[0.35014316408341983, 0.7500761852343203, 1.0165246573915283, 1.2664571332161358, 1.5831432712238893, 1.7996530444261225, 1.9331003829474867, 2.082857777085337, 2.249543369767707, 2.483922189054283, 2.9658895452048455, 3.199123500915448, 3.415914918897215, 3.5156925542487443, 3.7988514153776123, 4.082065771434827]",,,2017_Jan_27_1016,60.0237984755,famFaceGrey,001,6,
102,./greyInner/JimParsons(SheldonCooper)10_1_cut.png,0,177,177,101,,,1.ja,1.485,None,act,0.647,None,None,None,None,None,,['return'],[0.5502822542612194],,,2017_Jan_27_1016,60.0237984755,famFaceGrey,001,6,
129,./greyInner/KatjaBurkard5_3_cut.png,0,178,178,128,,,1.ja,1.401,None,None,None,host,0.636,None,None,None,,['return'],[0.43355524889011576],,,2017_Jan_27_1016,60.0237984755,famFaceGrey,001,6,
174,./greyInner/SahraWagenknecht6_2_cut.png,0,179,179,173,,,2.nein,1.548,None,None,None,host,5.605,None,None,None,,['return'],[0.15038227344393817],,,2017_Jan_27_1016,60.0237984755,famFaceGrey,001,6,
146,./greyInner/MilaKunis1_3_cut.png,0,180,180,145,,,1.ja,2.73,None,act,0.41,None,None,None,None,None,,['return'],[0.21713882264793938],,,2017_Jan_27_1016,60.0237984755,famFaceGrey,001,6,
134,./greyInner/LeonardoDiCaprio4_1_cut.png,0,181,181,133,,,1.ja,1.336,None,act,0.562,None,None,None,None,None,Leonardo DeCabrio,"['lshift', 'l', 'e', 'o', 'n', 'a', 'r', 'd', 'o', 'space', 'lshift', 'd', 'e', 'lshift', 'c', 'a', 'b', 'r', 'i', 'o', 'return']","[0.800323474482866, 0.9670164451035816, 1.2168395349717684, 1.3834815015834465, 1.9331161011632503, 2.0831400634242527, 2.233126815212927, 2.433097495927541, 3.2661296169053458, 3.5825745284046207, 3.849001508307083, 4.331898163919504, 4.765558307846732, 5.781652799350013, 5.998330661235741, 6.23160086507869, 8.847083244316309, 9.013714304411224, 9.180150330306788, 10.346663664166044, 10.563264218088989]",,,2017_Jan_27_1016,60.0237984755,famFaceGrey,001,6,
95,./greyInner/JanHofer9_2_cut.png,0,182,182,94,,,2.nein,2.595,None,None,None,None,None,polit,0.712,None,,['return'],[0.6336398064795503],,,2017_Jan_27_1016,60.0237984755,famFaceGrey,001,6,
207,./greyInner/WillSmith14_1_cut.png,0,183,183,206,,,1.ja,7.024,None,act,1.026,None,None,None,None,None,Will Smith,"['lshift', 'w', 'i', 'l', 'l', 'space', 'lshift', 's', 'm', 'i', 't', 'h', 'return']","[1.1996861489151343, 1.5331535682589674, 2.5660947802043665, 2.816112583490394, 2.999048566723104, 3.1824856082084807, 3.207826581236077, 3.9154709594713495, 4.598604222362155, 4.782052811924586, 5.032030196939559, 5.248445981621444, 5.548287644647644]",,,2017_Jan_27_1016,60.0237984755,famFaceGrey,001,6,
210,./greyInner/WillSmith6_1_cut.png,0,184,184,209,,,1.ja,2.106,None,dummy,1.462,None,None,None,None,None,Will Smith,"['lshift', 'w', 'i', 'l', 'l', 'space', 'lshift', 's', 'm', 'i', 't', 'h', 'return']","[0.26723502454933623, 0.7169854898411359, 0.9835375739157826, 1.2168145141367859, 1.3834106092190268, 1.5665968007979245, 1.7500899787710296, 2.016448632547508, 2.266330425142769, 2.4498200745365466, 2.666242274817705, 2.8992048507061554, 3.1660539769973184]",,,2017_Jan_27_1016,60.0237984755,famFaceGrey,001,6,
7,./greyInner/AngelaMerkel3_1_cut.png,0,185,185,6,,,1.ja,1.269,None,None,None,None,None,polit,1.069,None,Angela Merkel,"['lshift', 'a', 'n', 'g', 'e', 'l', 'a', 'space', 'lshift', 'm', 'e', 'r', 'k', 'e', 'l', 'return']","[0.4002576504408353, 0.7501595880157765, 1.0166905006153684, 1.2166592566500185, 1.3165456363985868, 1.4831115781671542, 1.6163924319034777, 1.7165245290789244, 1.8495952719604247, 1.966298539617128, 2.149575511916737, 2.28253366104218, 2.4661326963923784, 2.5994276644460115, 2.9992596399179092, 3.632300871046027]",,,2017_Jan_27_1016,60.0237984755,famFaceGrey,001,6,
176,./greyInner/Shakira1_1_cut.png,0,186,186,175,,,1.ja,3.833,None,None,None,music,0.594,None,None,None,,['return'],[0.5503271634524936],,,2017_Jan_27_1016,60.0237984755,famFaceGrey,001,6,
214,./greyInner/notfamousface1_2_cut.png,0,187,187,213,,,2.nein,3.213,None,act,2.324,None,None,None,None,None,,['return'],[0.3666918799690393],,,2017_Jan_27_1016,60.0237984755,famFaceGrey,001,6,
77,./greyInner/GeorgeClooney15_1_cut.png,0,188,188,76,,,1.ja,1.209,None,act,1.292,None,None,None,None,None,George Cluney,"['lshift', 'g', 'e', 'o', 'r', 'g', 'e', 'space', 'lshift', 'c', 'l', 'u', 'n', 'e', 'y', 'return']","[0.23358713441575674, 0.7167272619963114, 0.9666446611636275, 1.1498860268902718, 1.4664252476904949, 1.7664083746658434, 1.8829470822183794, 2.0328892455963796, 2.2492822549038465, 2.666015162626536, 3.0158109220437836, 3.265707149736045, 3.4823911064404456, 3.6155683482593304, 3.8654475746152457, 4.03200260986614]",,,2017_Jan_27_1016,60.0237984755,famFaceGrey,001,6,
169,./greyInner/RobertSeanLeonard(Wilson)2_6_cut.png,0,189,189,168,,,2.nein,2.838,None,act,0.857,None,None,None,None,None,,['return'],[0.6669954660965232],,,2017_Jan_27_1016,60.0237984755,famFaceGrey,001,6,
74,./greyInner/GuentherJauch7_1_cut.png,0,190,190,73,,,1.ja,1.013,None,None,None,host,1.279,None,None,None,Günther Jauch,"['lshift', 'g', u'\xfc', 'n', 't', 'h', 'e', 'r', 'space', 'lshift', 'j', 'a', 'u', 'c', 'h', 'return']","[0.36694048441586347, 0.7835794036182051, 1.1833430529650286, 1.5000256623943642, 1.7664439812378987, 1.9832244927019929, 2.1162554588718194, 2.182927963733164, 2.366172216479754, 2.5159690665495873, 2.63273841487171, 2.7825792117919264, 2.9327462419023504, 3.032392678262113, 3.182579596727919, 3.4324161593531244]",,,2017_Jan_27_1016,60.0237984755,famFaceGrey,001,6,
96,./greyInner/JasonSegel(Marshall)11_1_cut.png,0,191,191,95,,,1.ja,1.597,None,dummy,0.763,None,None,None,None,None,,['return'],[1.03343489225972],,,2017_Jan_27_1016,60.0237984755,famFaceGrey,001,6,
34,./greyInner/BritneySpears7_1_cut.png,0,192,192,33,,,1.ja,0.914,None,None,None,music,0.813,None,None,None,Britney Spears,"['lshift', 'b', 'r', 'i', 't', 'n', 'e', 'y', 'space', 'lshift', 's', 'p', 'e', 'a', 'r', 's', 'return']","[0.40042349366558483, 0.7167750582057124, 1.0334538182751203, 1.1499780907306558, 1.3831944035446213, 1.5998555848746037, 1.6996149357701142, 2.0329954237531638, 2.2828512331743696, 2.482688790217253, 2.8493280622769817, 3.0656723130350656, 3.215907669270564, 4.3319466016891965, 4.448579297761171, 4.615194960419103, 4.781751920349052]",,,2017_Jan_27_1016,60.0237984755,famFaceGrey,001,6,
121,./greyInner/KaleyCuoco(Penny)10_1_cut.png,0,193,193,120,,,1.ja,1.868,None,act,0.693,None,None,None,None,None,,['return'],[0.517182256250635],,,2017_Jan_27_1016,60.0237984755,famFaceGrey,001,6,
69,./greyInner/EmmaWatson(HermioneGranger)4_1_cut.png,0,194,194,68,,,1.ja,1.143,None,dummy,1.377,None,None,None,None,None,Emma Watson,"['lshift', 'e', 'm', 'm', 'a', 'space', 'lshift', 'w', 'a', 't', 's', 'o', 'n', 'return']","[0.8334497764481057, 1.1500223583607294, 1.3664278780852328, 1.5164803897605452, 1.6497660551958688, 1.7829663931697723, 2.2994339517326807, 2.532466778426169, 2.799172195308529, 2.949225027763532, 3.0990979026764762, 3.315521706856998, 3.565520584126716, 3.7985553355001684]",,,2017_Jan_27_1016,60.0237984755,famFaceGrey,001,6,
217,./greyInner/notfamousface2_cut.png,0,195,195,216,,,2.nein,1.838,None,dummy,1.955,None,None,None,None,None,,['return'],[1.3333577126086311],,,2017_Jan_27_1016,60.0237984755,famFaceGrey,001,6,
82,./greyInner/HughLaurie(DrHouse)4_1_cut.png,0,196,196,81,,,1.ja,1.418,None,act,0.758,None,None,None,None,None,,['return'],[0.20035625819218694],,,2017_Jan_27_1016,60.0237984755,famFaceGrey,001,6,
25,./greyInner/BenedictCumberbatch6_5_cut.png,0,197,197,24,,,2.nein,2.033,None,None,None,None,None,sport,0.866,None,,['return'],[0.2502555012151788],,,2017_Jan_27_1016,60.0237984755,famFaceGrey,001,6,
94,./greyInner/JanHofer7_1_cut.png,0,198,198,93,,,1.ja,2.175,None,None,None,None,None,polit,0.609,None,,['return'],[0.35008734837538213],,,2017_Jan_27_1016,60.0237984755,famFaceGrey,001,6,
42,./greyInner/CobieSmulders(Robin)2_1_cut.png,0,199,199,41,,,1.ja,1.77,None,dummy,0.428,None,None,None,None,None,,['return'],[0.8667460917777134],,,2017_Jan_27_1016,60.0237984755,famFaceGrey,001,6,
75,./greyInner/GuentherJauch9_1_cut.png,0,200,200,74,,,1.ja,2.354,None,None,None,host,1.888,None,None,None,Günther Jauch,"['lshift', 'g', u'\xfc', 'n', 't', 'h', 'e', 'r', 'space', 'lshift', 'j', 'a', 'u', 'c', 'h', 'return']","[0.6500637389726762, 0.8669132181221357, 1.2000694809330525, 1.48320909526592, 1.7331495905891643, 1.9163425185461165, 2.0497959518861535, 2.1162307588183467, 2.249612979012454, 2.849359177930637, 3.0992220445104977, 3.382285954779036, 3.632415710261739, 3.7491552260507888, 4.59842651028066, 4.86497987747498]",,,2017_Jan_27_1016,60.0237984755,famFaceGrey,001,6,
50,./greyInner/CristinMilioti(Tracy_Mutter)9_1_cut.png,0,201,201,49,,,1.ja,2.582,None,act,1.019,None,None,None,None,None,,['return'],[0.6667667500050811],,,2017_Jan_27_1016,60.0237984755,famFaceGrey,001,6,
149,./greyInner/MilaKunis5_2_cut.png,0,202,202,148,,,1.ja,1.927,None,act,0.544,None,None,None,None,None,,['return'],[0.3169440450737966],,,2017_Jan_27_1016,60.0237984755,famFaceGrey,001,6,
48,./greyInner/CristinMilioti(Tracy_Mutter)4_2_cut.png,0,203,203,47,,,1.ja,1.229,None,act,0.513,None,None,None,None,None,,['return'],[0.36699180920550134],,,2017_Jan_27_1016,60.0237984755,famFaceGrey,001,6,
1,./greyInner/AlysonHannigan(Lily)1_1_cut.png,0,204,204,0,,,1.ja,0.905,None,dummy,0.639,None,None,None,None,None,,['return'],[0.31700659715988877],,,2017_Jan_27_1016,60.0237984755,famFaceGrey,001,6,
117,./greyInner/JudithRakers2_1_cut.png,0,205,205,116,,,1.ja,0.898,None,None,None,host,1.399,None,None,None,,['return'],[0.25045438477263815],,,2017_Jan_27_1016,60.0237984755,famFaceGrey,001,6,
142,./greyInner/MariskaHargitay(Liv)14_1_cut.png,0,206,206,141,,,2.nein,1.552,None,None,None,host,3.444,None,None,None,,['return'],[0.21706440170419228],,,2017_Jan_27_1016,60.0237984755,famFaceGrey,001,6,
113,./greyInner/JoshRadnor(Ted)6_2_cut.png,0,207,207,112,,,1.ja,1.163,None,act,0.496,None,None,None,None,None,,['return'],[0.36704762491353904],,,2017_Jan_27_1016,60.0237984755,famFaceGrey,001,6,
215,./greyInner/notfamousface13_1_cut.png,0,208,208,214,,,2.nein,3.329,None,None,None,host,2.547,None,None,None,,['return'],[0.4668615083974146],,,2017_Jan_27_1016,60.0237984755,famFaceGrey,001,6,
221,./greyInner/notfamousface6_8_cut.png,0,209,209,220,,,2.nein,4.685,None,None,None,None,None,sport,1.698,None,,['return'],[0.20044960515224375],,,2017_Jan_27_1016,60.0237984755,famFaceGrey,001,6,
116,./greyInner/JudithRakers1_1_cut.png,0,210,210,115,,,2.nein,3.294,None,None,None,host,0.712,None,None,None,,['return'],[0.2671266009319879],,,2017_Jan_27_1016,60.0237984755,famFaceGrey,001,6,
45,./greyInner/CobieSmulders(Robin)5_1_cut.png,0,211,211,44,,,1.ja,1.63,None,act,1.28,None,None,None,None,None,,['return'],[0.20028087490754842],,,2017_Jan_27_1016,60.0237984755,famFaceGrey,001,6,
33,./greyInner/BritneySpears5_1_cut.png,0,212,212,32,,,1.ja,1.179,None,act,0.746,None,None,None,None,None,Britney Spears,"['lshift', 'b', 'r', 'i', 't', 'n', 'e', 'y', 'space', 'lshift', 's', 'p', 'e', 'a', 'r', 's', 'return']","[1.366710805985349, 1.8166729860313353, 2.0998883044276226, 2.2664690020728813, 2.549502438248055, 2.7830218880981192, 2.899424584958979, 3.18271304118025, 3.3326471850596135, 3.432521375170836, 3.582579660884221, 3.9157747380668297, 4.082427931976781, 4.315629809693746, 4.465682321369059, 4.6153075541751605, 4.832093839678237]",,,2017_Jan_27_1016,60.0237984755,famFaceGrey,001,6,
139,./greyInner/LisaEdelstein(DrLisaCuddy)6_3_cut.png,0,213,213,138,,,2.nein,1.692,None,None,None,host,0.858,None,None,None,,['return'],[0.7001352408187813],,,2017_Jan_27_1016,60.0237984755,famFaceGrey,001,6,
31,./greyInner/BritneySpears1_1_cut.png,0,214,214,30,,,1.ja,1.226,None,None,None,music,1.075,None,None,None,Britney Spears,"['lshift', 'b', 'r', 'i', 't', 'n', 'e', 'y', 'space', 'lshift', 's', 'p', 'e', 'a', 'r', 's', 'return']","[0.7000739718514524, 2.432754902960369, 2.7658152525718833, 2.882534880005551, 3.1157450980008434, 3.3153202570601934, 3.4490713741761283, 3.7155775867204284, 3.898782704315636, 4.015345470362263, 4.198684032408892, 4.531657129879022, 4.69862148032189, 4.93171685910238, 5.0647866396438985, 5.214982539948323, 5.43157443281234]",,,2017_Jan_27_1016,60.0237984755,famFaceGrey,001,6,
198,./greyInner/UrsulavonderLeyen5_1_cut.png,0,215,215,197,,,2.nein,1.675,None,None,None,host,0.842,None,None,None,,['return'],[0.6666288146352599],,,2017_Jan_27_1016,60.0237984755,famFaceGrey,001,6,
120,./greyInner/JudithRakers8_1_cut.png,0,216,216,119,,,2.nein,9.138,None,None,None,host,2.256,None,None,None,,['return'],[0.5669381106445144],,,2017_Jan_27_1016,60.0237984755,famFaceGrey,001,6,
40,./greyInner/CarenMiosga9_1_cut.png,0,217,217,39,,,1.ja,5.774,None,None,None,None,None,polit,1.196,None,Angela Merkel,"['lshift', 'a', 'n', 'g', 'e', 'l', 'a', 'space', 'lshift', 'm', 'e', 'r', 'k', 'e', 'l', 'return']","[0.6506350480303809, 0.9004629495966583, 1.1171080919302767, 1.3002099183868268, 1.4168965054877845, 1.6002408415724858, 1.716732073694402, 1.8668410426371338, 1.9999483544306713, 2.1166359038707014, 2.3165943949479697, 2.4498701162056022, 2.666380530967217, 2.81623865000347, 2.966156113327088, 3.2491619624288433]",,,2017_Jan_27_1016,60.0237984755,famFaceGrey,001,6,
43,./greyInner/CobieSmulders(Robin)3_4_cut.png,0,218,218,42,,,1.ja,1.808,None,act,0.442,None,None,None,None,None,,['return'],[0.41690709122576664],,,2017_Jan_27_1016,60.0237984755,famFaceGrey,001,6,
125,./greyInner/KaleyCuoco(Penny)7_1_cut.png,0,219,219,124,,,1.ja,2.059,None,dummy,0.593,None,None,None,None,None,,['return'],[0.9330221126438119],,,2017_Jan_27_1016,60.0237984755,famFaceGrey,001,6,
24,./greyInner/BenedictCumberbatch4_1_cut.png,0,220,220,23,,,None,None,2,None,None,None,None,None,None,5,,['return'],[0.9170321953988605],2.61556064954,1.98343973604,2017_Jan_27_1016,60.0237984755,famFaceGrey,001,6,
52,./greyInner/DannFlorek(DonaldDonCragen)10_1_cut.png,0,221,221,51,,,None,None,2,None,None,None,None,None,None,4,,['return'],[0.4500240905736064],3.1322248462,5.14856794215,2017_Jan_27_1016,60.0237984755,famFaceGrey,001,6,
106,./greyInner/JoachimLoew1_1_cut.png,0,222,222,105,,,None,None,1,None,None,None,None,None,None,5,Joachi Lülf,"['lshift', 'j', 'o', 'a', 'c', 'h', 'i', 'space', 'lshift', 'l', u'\xfc', 'l', 'f', 'return', 'plus']","[0.6836923823111647, 1.4504840889949264, 1.6335272127244025, 2.1833411282859743, 2.3166450781773165, 2.4667104210493562, 2.649763809736214, 3.0330743356171297, 3.1829921197204385, 3.3329801546287854, 3.68248528742879, 3.982627521249924, 4.315784425621132, 4.849155482674178]",1.49985051655,1.78292822036,2017_Jan_27_1016,60.0237984755,famFaceGrey,001,6,
123,./greyInner/KaleyCuoco(Penny)3_1_cut.png,0,223,223,122,,,None,None,1,None,None,None,None,None,None,1,,['return'],[0.48410310893450514],1.44965647677,1.11640397998,2017_Jan_27_1016,60.0237984755,famFaceGrey,001,6,
