num,pic,trials.thisRepN,trials.thisTrialN,trials.thisN,trials.thisIndex,key_resp_2.keys,key_resp_2.rt,ratingBekannt.response,ratingBekannt.rt,key_resp_5.keys,ratingK1.response,ratingK1.rt,ratingK2.response,ratingK2.rt,ratingK3.response,ratingK3.rt,key_resp_6.keys,inputText,key_resp_4.keys,key_resp_4.rt,date,frameRate,expName,session,participant,
,,,,,,space,32.9017512074,,,,,,,,,,,,,,2017_Jan_30_1434,59.9867610837,famFaceGrey,001,7,
132,./greyInner/LeonardoDiCaprio2_1_cut.png,0,0,0,131,,,1.ja,4.344,None,dummy,3.105,None,None,None,None,None,Leonardo  Di Caprio,"['lshift', 'd', 'i', 'space', 'backspace', 'backspace', 'backspace', 'backspace', 'lshift', 'l', 'e', 'o', 'n', 'a', 'r', 'd', 'o', 'space', 'space', 'lshift', 'd', 'i', 'space', 'lshift', 'c', 'a', 'p', 'r', 'i', 'o', 'return']","[6.131249133891288, 6.231274411431514, 6.897716103717357, 7.447437794156031, 8.313732119669112, 8.49711714150817, 8.646842937942893, 8.846986519501115, 9.180128774309196, 9.363405372183479, 9.596737272694554, 9.729921036559062, 9.929890434055778, 10.379740501034576, 10.746092246339686, 10.979410032488886, 11.112767659633391, 11.362613043210331, 11.67876128507487, 12.1956282687579, 12.295526517037615, 13.361910532907132, 13.595172503170033, 14.227808052371984, 14.29465046423411, 15.02756887808846, 15.3943498283179, 15.477637717682228, 15.843859225917186, 16.110810574993593, 21.758443275661193]",2017_Jan_30_1434,59.9867610837,famFaceGrey,001,7,
27,./greyInner/Beyonce11_2_cut.png,0,1,1,26,,,1.ja,23.283,None,None,None,music,2.308,None,None,None,Beyonce knowles,"['lshift', 'b', 'e', 'y', 'o', 'n', 'c', 'e', 'space', 'k', 'n', 'o', 'w', 'l', 'e', 'y', 'backspace', 's', 'return']","[1.949555590057571, 2.0662255500756146, 2.2660996756267195, 2.61613714284249, 3.265840484610635, 3.515462604638742, 3.665561790112406, 3.8322450304613085, 3.915318317363017, 4.098738304326616, 4.265465170886273, 4.481897688837307, 4.731738902261895, 5.131543290032823, 5.448187459261135, 5.698071657334367, 6.1813990669124905, 6.264577569969333, 8.213992657965719]",2017_Jan_30_1434,59.9867610837,famFaceGrey,001,7,
58,./greyInner/ElvisPresley4_10_cut.png,0,2,2,57,,,1.ja,2.535,None,None,None,music,3.882,None,None,None,Elvis Presley,"['lshift', 'e', 'l', 'i', 'backspace', 'v', 'i', 's', 'space', 'lshift', 'p', 'r', 'e', 's', 'l', 'e', 'y', 'return']","[1.399667735080584, 1.5333333119478993, 2.382892815532614, 2.5827659787410084, 2.8826637779266093, 2.9658509420696646, 3.099334636131971, 3.282408500438578, 3.382273387497662, 3.8322867319857323, 3.9490570964444487, 4.265554347993202, 4.432127560473418, 5.0485691244475674, 5.298369598690442, 5.365028523842739, 5.69823333093791, 6.781008933107842]",2017_Jan_30_1434,59.9867610837,famFaceGrey,001,7,
142,./greyInner/MariskaHargitay(Liv)14_1_cut.png,0,3,3,141,,,2.nein,9.774,None,None,None,host,4.359,None,None,None,,['return'],[1.3665583282436273],2017_Jan_30_1434,59.9867610837,famFaceGrey,001,7,
205,./greyInner/Usher7_1_cut.png,0,4,4,204,,,2.nein,6.641,None,None,None,None,None,sport,2.81,None,,['return'],[2.5660587439751907],2017_Jan_30_1434,59.9867610837,famFaceGrey,001,7,
204,./greyInner/Usher4_1_cut.png,0,5,5,203,,,2.nein,4.525,None,None,None,music,8.357,None,None,None,,['return'],[4.798518120274821],2017_Jan_30_1434,59.9867610837,famFaceGrey,001,7,
86,./greyInner/Ice-T(OdafinFinTutuola)10_1_cut.png,0,6,6,85,,,1.ja,5.794,None,None,None,music,3.012,None,None,None,,['return'],[5.515316649300985],2017_Jan_30_1434,59.9867610837,famFaceGrey,001,7,
43,./greyInner/CobieSmulders(Robin)3_4_cut.png,0,7,7,42,,,2.nein,7.806,None,dummy,2.79,None,None,None,None,None,,['return'],[1.5330397973693835],2017_Jan_30_1434,59.9867610837,famFaceGrey,001,7,
171,./greyInner/SahraWagenknecht12_1_cut.png,0,8,8,170,,,2.nein,4.329,None,None,None,None,None,sport,4.246,None,,['return'],[1.133901030092602],2017_Jan_30_1434,59.9867610837,famFaceGrey,001,7,
176,./greyInner/Shakira1_1_cut.png,0,9,9,175,,,1.ja,8.706,None,act,0.793,None,None,None,None,None,Scrubs,"['lshift', 'd', 'backspace', 'lshift', 's', 'b', 'backspace', 'v', 'backspace', 'c', 'r', 'u', 'b', 's', 'lshift', u'?', 'lshift', u'?', 'return']","[2.9329375323986824, 2.9996914087159894, 3.549393531516216, 3.915846002042599, 4.04897619548683, 4.865499430293312, 5.281975125360987, 5.415334997972423, 5.998560655830261, 6.248234100812624, 6.5648516452220065, 6.71491618635082, 6.881538478318362, 7.031349923269772, 7.314592774986522, 7.414599447230103, 8.230659795111023, 8.31424953935857, 8.61417364258341]",2017_Jan_30_1434,59.9867610837,famFaceGrey,001,7,
215,./greyInner/notfamousface13_1_cut.png,0,10,10,214,,,2.nein,3.824,None,act,2.896,None,None,None,None,None,,['return'],[1.0498702120239614],2017_Jan_30_1434,59.9867610837,famFaceGrey,001,7,
158,./greyInner/NicoleKidman5_1_cut.png,0,11,11,157,,,1.ja,2.026,None,dummy,1.859,None,None,None,None,None,Nicole Kidman,"['lshift', 'n', 'i', 'c', 'o', 'l', 'e', 'space', 'lshift', 'k', 'i', 'd', 'm', 'a', 'n', 'return']","[1.2998971576244003, 1.3832889800196426, 1.6663996699808195, 1.9163326267598677, 1.9996121758185836, 2.1660808137057757, 2.2661971930383515, 2.3827205561574374, 2.5493874366775344, 2.632786316254169, 2.7825547765569354, 2.8990544018852233, 2.9825552898064416, 3.13251333165681, 3.1823437668408587, 3.9820648157183314]",2017_Jan_30_1434,59.9867610837,famFaceGrey,001,7,
78,./greyInner/GeorgeClooney16_1_cut.png,0,12,12,77,,,2.nein,5.439,None,None,None,music,2.158,None,None,None,,['return'],[1.000212036215089],2017_Jan_30_1434,59.9867610837,famFaceGrey,001,7,
124,./greyInner/KaleyCuoco(Penny)5_2_cut.png,0,13,13,123,,,1.ja,2.6,None,dummy,0.552,None,None,None,None,None,Penny,"['lshift', 'p', 'e', 'n', 'n', 'y', 'return']","[3.7322694739705184, 3.8322421434322678, 4.132127111380214, 4.31550571759999, 4.448667026797011, 4.532037998429587, 5.681522567581851]",2017_Jan_30_1434,59.9867610837,famFaceGrey,001,7,
153,./greyInner/NeilPatrickHarris(Barney)13_4_cut.png,0,14,14,152,,,1.ja,2.274,None,act,1.973,None,None,None,None,None,Barney Stinson,"['lshift', 'b', 'a', 'r', 'n', 'e', 'y', 'space', 'lshift', 's', 't', 'i', 'n', 's', 'o', 'n', 'return']","[2.6327442939482353, 2.73282731206109, 2.9161472153646173, 3.1658966854347455, 3.2988729040171165, 3.4325118560645933, 3.682396374918426, 4.198807849638797, 4.415508219691219, 4.598634692076303, 4.914983101259168, 5.065158953381797, 5.248463779980739, 5.347979336574099, 5.448497654449966, 5.598374859498108, 6.248082692199205]",2017_Jan_30_1434,59.9867610837,famFaceGrey,001,7,
105,./greyInner/JimParsons(SheldonCooper)9_3_cut.png,0,15,15,104,,,1.ja,5.491,None,dummy,1.441,None,None,None,None,None,Sheldon Cooper,"['lshift', 's', 'h', 'e', 'l', 'd', 'o', 'n', 'space', 'lshift', 'c', 'o', 'o', 'p', 'e', 'r', 'return']","[3.299069863526711, 3.399309101966537, 3.898894973746792, 4.0322904530448795, 4.198961824498838, 4.315532021638319, 4.415580074625723, 4.59871584965822, 4.765297402444048, 4.915452724584611, 5.048582918028842, 5.381925340156158, 5.515052967351949, 5.698399174694714, 5.798363824632361, 5.948248728424005, 6.314750278437714]",2017_Jan_30_1434,59.9867610837,famFaceGrey,001,7,
187,./greyInner/TaylorSwift2_1_cut.png,0,16,16,186,,,1.ja,2.678,None,act,2.026,None,None,None,None,None,,['return'],[14.194695116943876],2017_Jan_30_1434,59.9867610837,famFaceGrey,001,7,
102,./greyInner/JimParsons(SheldonCooper)10_1_cut.png,0,17,17,101,,,1.ja,5.61,None,dummy,0.713,None,None,None,None,None,Sheldon Cooper,"['lshift', 's', 'h', 'e', 'l', 'd', 'o', 'n', 'space', 'lshift', 'c', 'o', 'o', 'p', 'e', 'r', 'return']","[0.850478541036864, 0.9839648013476108, 1.733646586634677, 1.8837031082393878, 2.0166084342299655, 2.1335125643490755, 2.216840230552407, 2.416444579315794, 2.565910543172322, 2.733234062318843, 2.8163820911840958, 3.166220994986361, 3.299801564898189, 3.4995772106949516, 3.9327771419193596, 4.2993434896870895, 4.4323286901362735]",2017_Jan_30_1434,59.9867610837,famFaceGrey,001,7,
148,./greyInner/MilaKunis4_1_cut.png,0,18,18,147,,,1.ja,5.261,None,act,0.713,None,None,None,None,None,,['return'],[1.0502189009275753],2017_Jan_30_1434,59.9867610837,famFaceGrey,001,7,
198,./greyInner/UrsulavonderLeyen5_1_cut.png,0,19,19,197,,,1.ja,4.607,None,None,None,None,None,polit,2.124,None,Ursula von der Leyen,"['lshift', 'u', 'r', 's', 'u', 'l', 'a', 'space', 'lshift', 'v', 'o', 'n', 'space', 'd', 'e', 'r', 'space', 'lshift', u'\xd6', 'backspace', 'backspace', 'lshift', 'u', 'r', 's', 'u', 'l', 'a', 'space', 'v', 'o', 'n', 'space', 'd', 'e', 'r', 'space', 'lshift', 'l', 'e', 'y', 'e', 'n', 'return']","[2.5660876142628695, 2.6492763823098358, 2.882688478061027, 3.115898802589072, 3.232544062472698, 3.44887777988788, 3.5824493679338048, 3.6822731950296657, 3.9654923089556178, 4.082238294061426, 4.582041976113942, 4.715213550301087, 4.881854768344965, 4.998622887336751, 5.148387819049276, 5.4982536684510706, 5.68161238625089, 5.898012826106424, 6.114626906080957, 7.414232473811353, 7.847309225147001, 8.280569783973078, 8.363785818401993, 8.613628314950802, 8.81339112950809, 8.880188632036152, 9.096647454025515, 9.230167075555983, 9.330237262430273, 9.746937183389491, 9.829897234611963, 9.996513110959313, 10.16327494264442, 10.262897960859846, 10.39640860052259, 10.77941016080149, 10.962714345838322, 11.162622474171258, 11.279223787063529, 11.662605793560942, 12.09577717528009, 12.445538450088861, 12.67857394899329, 13.545042458567877]",2017_Jan_30_1434,59.9867610837,famFaceGrey,001,7,
197,./greyInner/UrsulavonderLeyen4_1_cut.png,0,20,20,196,,,1.ja,3.344,None,None,None,None,None,polit,1.362,None,Ursula von der Leyen,"['lshift', 'u', 'r', 's', 'u', 'l', 'a', 'space', 'v', 'o', 'n', 'space', 'd', 'e', 'r', 'space', 'lshift', 'l', 'e', 'y', 'e', 'n', 'return']","[1.1502897293630667, 1.2170240380419273, 1.4836510775667193, 1.7667078763270183, 1.8999667029356715, 2.13330950999989, 2.23316252816403, 2.3996148062224165, 2.899582407345406, 3.016336732755917, 3.2157922391534157, 3.349542502193799, 3.4495716291048666, 3.632846623074329, 3.7826558225588087, 3.9658589615928577, 4.365764716147169, 4.599118108983021, 4.86561523221917, 5.1155732099132365, 5.29869775761199, 5.398821194125958, 5.648676521912421]",2017_Jan_30_1434,59.9867610837,famFaceGrey,001,7,
112,./greyInner/JoshRadnor(Ted)3_1_cut.png,0,21,21,111,,,1.ja,3.126,None,dummy,1.583,None,None,None,None,None,Ted,"['lshift', 't', 'e', 'd', 'return']","[3.1655479965311315, 3.26576349718016, 3.482372123878122, 3.6822247571053595, 4.681942149079077]",2017_Jan_30_1434,59.9867610837,famFaceGrey,001,7,
194,./greyInner/TomCruise6_1_cut.png,0,22,22,193,,,1.ja,3.779,None,dummy,3.51,None,None,None,None,None,Tom Cruise,"['lshift', 't', 'o', 'm', 'space', 'lshift', 'c', 'r', 'u', 'i', 's', 'e', 'return']","[1.2163747773784053, 1.3667588163443725, 1.849911400298879, 2.0161615863517, 2.166477940535515, 2.416110004773145, 2.4995598885225263, 2.7828842186036127, 2.9160506602956957, 3.132782466882418, 3.2825858923106352, 3.4491648788480234, 3.6155414525992455]",2017_Jan_30_1434,59.9867610837,famFaceGrey,001,7,
133,./greyInner/LeonardoDiCaprio3_1_cut.png,0,23,23,132,,,1.ja,1.559,None,act,1.383,None,None,None,None,None,Leonardo di Caprio,"['lshift', 'l', 'e', 'o', 'n', 'a', 'r', 'd', 'i', 'backspace', 'o', 'space', 'd', 'i', 'space', 'lshift', 'c', 'a', 'p', 'r', 'i', 'o', 'return']","[2.0831175546745726, 2.349688136750956, 2.5996554170924355, 2.6995834980016298, 2.86607555289811, 3.0493948146404364, 3.2828348183356866, 3.4993638913556424, 4.032464637107296, 4.432320991392771, 4.698832228991705, 4.932135900779031, 5.015094027315172, 5.115302150002208, 5.315236261593782, 5.565085494541563, 5.731801775330496, 5.981717089156518, 6.381515061308164, 6.514942939483262, 6.631401504848327, 6.797921788469466, 7.047827478867475]",2017_Jan_30_1434,59.9867610837,famFaceGrey,001,7,
65,./greyInner/EmilyDeschanel8_3_cut.png,0,24,24,64,,,1.ja,2.385,None,None,None,music,2.574,None,None,None,Adele,"['lshift', 'a', 'd', 'e', 'l', 'e', 'return']","[1.0670044062471788, 1.1668494048863067, 1.5335023635134348, 1.6999360362760854, 1.8000565857610127, 1.9666817647566859, 2.3829823134201433]",2017_Jan_30_1434,59.9867610837,famFaceGrey,001,7,
150,./greyInner/MilaKunis7_3_cut.png,0,25,25,149,,,1.ja,3.006,None,act,4.407,None,None,None,None,None,,['return'],[10.496292092877411],2017_Jan_30_1434,59.9867610837,famFaceGrey,001,7,
146,./greyInner/MilaKunis1_3_cut.png,0,26,26,145,,,1.ja,3.414,None,act,0.524,None,None,None,None,None,,['return'],[0.5664286044229812],2017_Jan_30_1434,59.9867610837,famFaceGrey,001,7,
17,./greyInner/BastianSchweinsteiger12_1_cut.png,0,27,27,16,,,1.ja,1.732,None,None,None,None,None,sport,1.264,None,Sebastian Schweinsteiger,"['lshift', 's', 'e', 'b', 'a', 's', 't', 'i', 'a', 'n', 'space', 'lshift', 's', 'c', 'h', 'w', 'e', 'i', 'n', 's', 't', 'e', 'i', 'g', 'e', 'r', 'return']","[1.233629585242852, 1.3167333463352406, 1.850048694549514, 1.9832712729094055, 2.116640127388564, 2.2832463803069913, 2.5161875696094285, 2.6163716337241567, 2.8329613343457822, 2.9663163952427567, 3.149514081000234, 3.3660672125924975, 3.4994395956618973, 3.7655957287370256, 3.982540533881547, 4.082264277318245, 4.249192915102867, 4.31565744699401, 4.448976259642222, 4.648901068585474, 4.948868156458957, 5.18210125643418, 5.382012592576757, 5.765024417846689, 5.865194046818033, 6.031576073845827, 6.1982554648238875]",2017_Jan_30_1434,59.9867610837,famFaceGrey,001,7,
11,./greyInner/BarackObama1_3_cut.png,0,28,28,10,,,1.ja,1.859,None,None,None,None,None,polit,1.269,None,Barrack Obama,"['lshift', 'b', 'e', 'backspace', 'a', 'r', 'r', 'a', 'k', 'backspace', 'c', 'k', 'space', 'lshift', 'o', 'b', 'a', 'm', 'a', 'return']","[0.9000424072428359, 1.016619661563709, 1.2332051920320737, 1.616379332467659, 1.7827668127720244, 2.132872927113567, 2.232691621714366, 2.4994697490728868, 2.899353048958801, 3.4324570025200956, 3.5157837063807165, 3.6656573828377077, 3.865438481911042, 4.132119733418222, 4.198796943085654, 4.731867856207828, 4.931798759988851, 5.0314535355191765, 5.148320134266214, 5.298355163547058]",2017_Jan_30_1434,59.9867610837,famFaceGrey,001,7,
91,./greyInner/JanHofer1_3_cut.png,0,29,29,90,,,1.ja,4.279,None,None,None,None,None,polit,1.796,None,,['return'],[0.8665958596166092],2017_Jan_30_1434,59.9867610837,famFaceGrey,001,7,
181,./greyInner/SigmarGabriel1_2_cut.png,0,30,30,180,,,1.ja,1.944,None,None,None,None,None,polit,2.128,None,Sigmar Gabriel,"['lshift', 's', 'i', 'g', 'm', 'a', 'r', 'space', 'lshift', 'g', 'a', 'b', 'r', 'i', 'e', 'l', 'return']","[2.9993568341742503, 3.0657896087504923, 3.432341842155438, 3.6823992619474666, 3.9169552626044606, 4.048990309848705, 4.248756652997145, 4.448593888738287, 4.715159979880809, 5.131811462915721, 5.398317888800193, 5.548327576384509, 5.781560676360641, 5.86485049041039, 6.014866914395498, 6.1478678331122865, 6.364683684310876]",2017_Jan_30_1434,59.9867610837,famFaceGrey,001,7,
32,./greyInner/BritneySpears14_2_cut.png,0,31,31,31,,,1.ja,1.76,None,None,None,music,1.61,None,None,None,Britney Spears,"['lshift', 'b', 'r', 'i', 't', 'n', 'e', 'y', 'space', 'lshift', 's', 'e', 'backspace', 'p', 'e', 'a', 'r', 's', 'return']","[0.78342730076929, 1.2666113212580967, 1.549917046043447, 1.6664766574112946, 1.9663099796234746, 2.09954635156555, 2.2326059731976784, 2.4491276682556418, 2.6160643255643663, 2.9825880094640524, 3.099359015484879, 3.382457836550202, 4.148738753418911, 4.398791361496478, 4.665278540523104, 4.915011971545027, 5.09856540338842, 5.314993430405593, 5.448344962712326]",2017_Jan_30_1434,59.9867610837,famFaceGrey,001,7,
62,./greyInner/EmilyDeschanel3_1_cut.png,0,32,32,61,,,1.ja,5.87,None,act,3.087,None,None,None,None,None,,['return'],[0.6668320827147909],2017_Jan_30_1434,59.9867610837,famFaceGrey,001,7,
156,./greyInner/NicoleKidman14_1_cut.png,0,33,33,155,,,1.ja,1.495,None,act,0.812,None,None,None,None,None,Nicole Kidman,"['lshift', 'n', 'i', 'c', 'o', 'l', 'e', 'space', 'lshift', 'lshift', 'k', 'i', 'd', 'm', 'a', 'n', 'return']","[0.999795983309923, 1.0833077777842846, 1.2498431381109185, 1.449745813167283, 1.5165070674465824, 1.982863560309852, 2.116195845758739, 2.266146188865605, 2.6825535575899266, 3.2323872005836165, 3.3157283395867125, 3.6503096177839325, 3.7822779425887347, 3.9986809486908896, 4.164994007812311, 4.265290986825676, 4.5151604289740135]",2017_Jan_30_1434,59.9867610837,famFaceGrey,001,7,
149,./greyInner/MilaKunis5_2_cut.png,0,34,34,148,,,1.ja,1.693,None,act,3.842,None,None,None,None,None,,['return'],[3.6990862875118182],2017_Jan_30_1434,59.9867610837,famFaceGrey,001,7,
85,./greyInner/HughLaurie(DrHouse)9_2_cut.png,0,35,35,84,,,1.ja,3.218,None,act,1.146,None,None,None,None,None,Dr House,"['lshift', 'd', 'r', 'space', 'lshift', 'h', 'o', 'u', 's', 'e', 'return']","[1.5833279869839316, 1.683196723414767, 1.7999382175876235, 1.9997882845664208, 2.2827911921249324, 2.349540256727778, 2.5329599229098676, 2.7326768657903813, 2.866297854104232, 3.0494807839377245, 3.6658174525373397]",2017_Jan_30_1434,59.9867610837,famFaceGrey,001,7,
145,./greyInner/MariskaHargitay(Liv)8_8_cut.png,0,36,36,144,,,2.nein,2.41,None,None,None,host,2.145,None,None,None,,['return'],[1.1667316782741182],2017_Jan_30_1434,59.9867610837,famFaceGrey,001,7,
89,./greyInner/Ice-T(OdafinFinTutuola)6_1_cut.png,0,37,37,88,,,2.nein,3.785,None,None,None,music,1.953,None,None,None,,['return'],[0.7335923746513799],2017_Jan_30_1434,59.9867610837,famFaceGrey,001,7,
75,./greyInner/GuentherJauch9_1_cut.png,0,38,38,74,,,1.ja,1.969,None,None,None,host,1.887,None,None,None,Günter Jauch,"['lshift', 'g', u'\xfc', 'n', 't', 'e', 'r', 'space', 'lshift', 'j', 'a', 'u', 'c', 'h', 'return']","[0.8334251836149633, 0.9664052515690855, 1.3333148349647672, 1.683126793165684, 1.8163840158695166, 2.0162709726591856, 2.1494556988664044, 2.3328708741155424, 2.666061246067329, 2.78259872354829, 2.9490878914166387, 3.2158432433261623, 3.499046318204819, 3.6989121034503114, 4.382046274577988]",2017_Jan_30_1434,59.9867610837,famFaceGrey,001,7,
199,./greyInner/UrsulavonderLeyen7_1_cut.png,0,39,39,198,,,1.ja,3.263,None,None,None,None,None,polit,0.796,None,Ursula von der Leyen,"['lshift', 'lshift', 'u', 'r', 'backspace', 'backspace', 'backspace', 'lshift', 'u', 'r', 's', 'u', 'l', 'a', 'space', 'v', 'o', 'n', 'space', 'd', 'e', 'r', 'space', 'lshift', 'l', 'e', 'y', 'e', 'n', 'return']","[0.9165812320043187, 1.7329880233219228, 1.8331740121229814, 2.0995210098699317, 2.899402449226727, 3.0326253483681285, 3.949083079702177, 5.914796085959097, 6.064807056667632, 6.3814470557435925, 6.68109143797119, 6.814604323100866, 7.064459971668839, 7.1976979475148255, 7.347790396587698, 7.59767459466093, 7.680950935910005, 7.864099862962576, 8.047371328340887, 8.13067365284769, 8.297357534759612, 8.480603658442305, 8.71378415034087, 8.896942700821455, 8.980499725411391, 9.246927880741168, 10.029969282015372, 10.246283111010598, 10.36295050478111, 10.563037628890015]",2017_Jan_30_1434,59.9867610837,famFaceGrey,001,7,
38,./greyInner/CarenMiosga2_11_cut.png,0,40,40,37,,,2.nein,2.991,None,act,2.589,None,None,None,None,None,,['return'],[1.0166498149728795],2017_Jan_30_1434,59.9867610837,famFaceGrey,001,7,
54,./greyInner/DannFlorek(DonaldDonCragen)5_1_cut.png,0,41,41,53,,,2.nein,2.361,None,None,None,None,None,polit,4.443,None,,['return'],[0.5174366906694559],2017_Jan_30_1434,59.9867610837,famFaceGrey,001,7,
97,./greyInner/JasonSegel(Marshall)14_1_cut.png,0,42,42,96,,,1.ja,2.686,None,dummy,1.154,None,None,None,None,None,,['return'],[9.430435761687477],2017_Jan_30_1434,59.9867610837,famFaceGrey,001,7,
68,./greyInner/EmmaWatson(HermioneGranger)3_1_cut.png,0,43,43,67,,,1.ja,3.575,None,act,1.01,None,None,None,None,None,Emma Stone bzw Hermine Granger,"['lshift', 'e', 'm', 'm', 'a', 'space', 'lshift', 's', 't', 'o', 'n', 'e', 'space', 'b', 'z', 'w', 'period', 'space', 'lshift', 'h', 'e', 'r', 'm', 'i', 'n', 'e', 'space', 'lshift', 'g', 'r', 'a', 'n', 'g', 'e', 'r', 'return']","[0.9836189994712186, 1.1666482752252705, 1.6666976754931966, 1.7834321124837516, 1.8833528154309533, 2.0167582389385643, 2.3665284956141477, 2.449772758767722, 2.782931373404608, 2.982873183738775, 3.1494435091899504, 3.3158204037226824, 3.6826517165636687, 4.299131132690491, 4.465797692429987, 4.532050829668151, 5.365260448477784, 5.548570086790278, 5.6150930008161595, 5.74819079538338, 5.931867086334023, 6.098368764660336, 6.1479140255705715, 6.298384996176537, 6.448304865092723, 6.56483239836416, 6.997937057642957, 7.164658470926952, 7.314583793119709, 7.5309579289360045, 7.764549982806784, 7.897745615566237, 8.06431112930295, 8.130876065634766, 8.513968406925414, 8.997346499894775]",2017_Jan_30_1434,59.9867610837,famFaceGrey,001,7,
154,./greyInner/NeilPatrickHarris(Barney)2_2_cut.png,0,44,44,153,,,1.ja,1.612,None,dummy,0.979,None,None,None,None,None,Barney Stinson,"['lshift', 'b', 'a', 'r', 'n', 'e', 'y', 'space', 'lshift', 's', 't', 'i', 'n', 's', 'o', 'n', 'return']","[2.0163707355377483, 2.132985842011294, 2.266241781591816, 2.499429651452374, 2.5829696746513946, 2.6828242967194456, 2.882785995472659, 3.015912981107249, 3.549054466040616, 3.665824830499332, 3.948990694785607, 4.098875277795742, 4.265519703649261, 4.29805362944353, 4.448781545599559, 4.615281940801651, 4.881944587014004]",2017_Jan_30_1434,59.9867610837,famFaceGrey,001,7,
46,./greyInner/CristinMilioti(Tracy_Mutter)10_1_cut.png,0,45,45,45,,,2.nein,2.725,None,act,0.694,None,None,None,None,None,,['return'],[0.9334430831931968],2017_Jan_30_1434,59.9867610837,famFaceGrey,001,7,
35,./greyInner/BritneySpears8_5_cut.png,0,46,46,34,,,1.ja,1.355,None,dummy,0.621,None,None,None,None,None,Britney Spears,"['lshift', 'b', 'r', 'i', 'n', 't', 'e', 'y', 'backspace', 'backspace', 'backspace', 'backspace', 't', 'e', 'backspace', 'n', 'e', 'y', 'space', 'lshift', 's', 'p', 'e', 'a', 'r', 's', 'return']","[2.366094799755956, 2.4494208620535574, 2.7160777342087385, 2.815729301929423, 2.9326738504487366, 2.9658740382983524, 3.1824711168819704, 3.41505142760343, 3.715721988122823, 3.948914348917242, 4.098692432648932, 4.198852758972862, 4.4487372778266945, 4.748659456366113, 5.0483455401181345, 5.3149263871846415, 5.381713303941069, 5.581562087796556, 5.914827522493397, 6.164664565764724, 6.248015969758853, 6.59779713298758, 6.731062375216425, 6.947638603037376, 7.047554815050717, 7.1642494752022685, 7.63067333206709]",2017_Jan_30_1434,59.9867610837,famFaceGrey,001,7,
29,./greyInner/Beyonce5_3_cut.png,0,47,47,28,,,1.ja,1.875,None,None,None,music,0.758,None,None,None,Beyonce Knowles,"['lshift', 'b', 'e', 'y', 'p', 'backspace', 'o', 'n', 's', 'backspace', 'c', 'e', 'space', 'lshift', 'k', 'n', 'o', 'w', 'l', 'e', 's', 'return']","[0.8500034644339394, 0.9333397917234834, 1.1833667373239223, 1.382995144659617, 1.4664892961809528, 2.1329938615353967, 2.6159536561326604, 2.84927080072066, 3.015774724512994, 3.3324262717042075, 3.4156413437895026, 3.598960605531829, 3.7655444037836787, 4.082149437735097, 4.215126618660179, 4.365425650671568, 4.51524062421413, 4.5986282764570205, 4.748456722799347, 4.865213293675879, 5.031658193772273, 5.4648199520624985]",2017_Jan_30_1434,59.9867610837,famFaceGrey,001,7,
113,./greyInner/JoshRadnor(Ted)6_2_cut.png,0,48,48,112,,,2.nein,2.945,None,None,None,music,1.878,None,None,None,,['return'],[0.9334700287927262],2017_Jan_30_1434,59.9867610837,famFaceGrey,001,7,
90,./greyInner/Ice-T(OdafinFinTutuola)7_1_cut.png,0,49,49,89,,,1.ja,5.457,None,dummy,0.725,None,None,None,None,None,,['return'],[1.7664704984163109],2017_Jan_30_1434,59.9867610837,famFaceGrey,001,7,
117,./greyInner/JudithRakers2_1_cut.png,0,50,50,116,,,2.nein,2.847,None,act,2.299,None,None,None,None,None,,['return'],[0.583613482038345],2017_Jan_30_1434,59.9867610837,famFaceGrey,001,7,
191,./greyInner/TomCruise1_1_cut.png,0,51,51,190,,,1.ja,2.978,None,dummy,2.08,None,None,None,None,None,Tom Cruise,"['lshift', 't', 'o', 'm', 'space', 'lshift', 'c', 'r', 'u', 'i', 's', 'e', 'return']","[1.133332927010997, 1.2333469772174794, 1.5165635248949911, 1.682970572837803, 1.8998079163611692, 2.116115329737113, 2.4827945924034793, 2.765907848612187, 2.865977393924368, 3.065815912788821, 3.16588000482443, 3.298951174571812, 3.549012764516192]",2017_Jan_30_1434,59.9867610837,famFaceGrey,001,7,
125,./greyInner/KaleyCuoco(Penny)7_1_cut.png,0,52,52,124,,,1.ja,2.325,None,act,0.727,None,None,None,None,None,Penny,"['lshift', 'p', 'e', 'n', 'n', 'y', 'return']","[0.7493821758698687, 0.9161632544128224, 1.1827110610402087, 1.3659587886286317, 1.4991730266838204, 1.5992916514824174, 1.7988562234068013]",2017_Jan_30_1434,59.9867610837,famFaceGrey,001,7,
116,./greyInner/JudithRakers1_1_cut.png,0,53,53,115,,,1.ja,4.892,None,None,None,host,1.212,None,None,None,Nazan Eckes,"['lshift', 'n', 'a', 'z', 'a', 'n', 'space', 'lshift', 'e', 'c', 'k', 'e', 's', 'return']","[1.033281024651842, 1.2166387801089513, 1.4332118001202616, 1.5663307662298394, 1.7165005235146964, 1.8496470767877327, 2.299278691932159, 2.4827185673157146, 2.882679175413614, 3.199076343302295, 3.4157677314888133, 3.4990973223775654, 3.7156453214738576, 3.865350267146823]",2017_Jan_30_1434,59.9867610837,famFaceGrey,001,7,
202,./greyInner/Usher11_1_cut.png,0,54,54,201,,,1.ja,2.894,None,None,None,music,1.445,None,None,None,Usher,"['lshift', 'u', 's', 'h', 'e', 'r', 'return']","[0.5162780298396683, 0.7168209836936512, 0.8999464937351149, 1.2997906583450458, 1.433183571394693, 1.582969995431995, 1.982880561699858]",2017_Jan_30_1434,59.9867610837,famFaceGrey,001,7,
30,./greyInner/Beyonce8_3_cut.png,0,55,55,29,,,1.ja,1.928,None,None,None,music,1.512,None,None,None,Beyonce Knowles,"['lshift', 'b', 'e', 'o', 'backspace', 'y', 'o', 'n', 'c', 'e', 'space', 'lshift', 'k', 'n', 'o', 'w', 'l', 'e', 's', 'return']","[0.8668544090705836, 0.9667468832922168, 1.216702615520262, 1.4665284314587552, 1.8997581953126428, 2.0163415444703787, 2.132949593763442, 2.3163605988602285, 2.9177209667568604, 3.0825622828315318, 3.2325822354068805, 3.4489929402525377, 3.515782744038006, 3.649095461847537, 4.082272296843257, 4.431985454508322, 4.5654120495592, 4.648528641891062, 4.815355592110791, 4.948503107726538]",2017_Jan_30_1434,59.9867610837,famFaceGrey,001,7,
212,./greyInner/notfamousface11_1_cut.png,0,56,56,211,,,2.nein,2.568,None,dummy,0.752,None,None,None,None,None,,['return'],[0.8834615601754194],2017_Jan_30_1434,59.9867610837,famFaceGrey,001,7,
6,./greyInner/AngelaMerkel1_1_cut.png,0,57,57,5,,,1.ja,1.158,None,None,None,None,None,polit,1.043,None,Angela Merkel,"['lshift', 's', 'backspace', 'lshift', 'a', 'n', 'g', 'e', 'l', 'a', 'space', 'lshift', 'm', 'e', 'r', 'k', 'e', 'l', 'return']","[0.9001351129409159, 1.0997683319901626, 1.5163880577101736, 1.882924252066914, 2.032949978700344, 2.482810631450775, 2.7826086677587227, 2.8826631363654087, 3.1158285515584794, 3.615545301970087, 3.831999312245898, 3.965236004968574, 4.048867450740545, 4.265539271288617, 4.41495936346837, 4.498721367092003, 4.598775194136579, 5.2650994805917435, 5.498241157994016]",2017_Jan_30_1434,59.9867610837,famFaceGrey,001,7,
98,./greyInner/JasonSegel(Marshall)6_1_cut.png,0,58,58,97,,,1.ja,2.367,None,dummy,1.522,None,None,None,None,None,,['return'],[1.549968370996794],2017_Jan_30_1434,59.9867610837,famFaceGrey,001,7,
4,./greyInner/AlysonHannigan(Lily)5_4_cut.png,0,59,59,3,,,1.ja,2.017,None,dummy,1.517,None,None,None,None,None,Amercian Pie,"['lshift', 'a', 'm', 'e', 'r', 'c', 'i', 'a', 'n', 'space', 'lshift', 'p', 'i', 'e', 'return']","[3.732145331739048, 3.832171571621984, 4.2320183024785365, 4.36534192684212, 4.515127388535802, 4.6985396767559, 4.8151002504664575, 4.948374474561206, 5.014961544778998, 5.148385894363855, 5.29830063078407, 5.414861204494628, 5.631486191021395, 5.747968173396657, 5.914737703824358]",2017_Jan_30_1434,59.9867610837,famFaceGrey,001,7,
114,./greyInner/JoshRadnor(Ted)7_1_cut.png,0,60,60,113,,,1.ja,2.457,None,act,2.308,None,None,None,None,None,Ted,"['lshift', 't', 'e', 'd', 'return']","[0.5502888311775678, 0.6834421208504864, 0.9334453286601274, 1.0998385830207553, 1.3164587578339706]",2017_Jan_30_1434,59.9867610837,famFaceGrey,001,7,
167,./greyInner/RobertSeanLeonard(Wilson)10_1_cut.png,0,61,61,166,,,1.ja,5.167,None,act,0.919,None,None,None,None,None,,['return'],[0.9999955090670483],2017_Jan_30_1434,59.9867610837,famFaceGrey,001,7,
222,./greyInner/notfamousface7_cut.png,0,62,62,221,,,2.nein,1.685,None,None,None,None,None,sport,1.283,None,,['return'],[0.8169155499217595],2017_Jan_30_1434,59.9867610837,famFaceGrey,001,7,
196,./greyInner/UrsulavonderLeyen1_1_cut.png,0,63,63,195,,,1.ja,2.646,None,None,None,None,None,polit,1.661,None,Ursula von der Leyen,"['lshift', 'u', 'r', 's', 'u', 'l', 'a', 'space', 'v', 'o', 'n', 'space', 'd', 'e', 'r', 'space', 'lshift', 'l', 'e', 'y', 'e', 'n', 'return']","[0.6337823411367935, 0.733840979895831, 1.0005235145272309, 1.2503547837422957, 1.3503486247482215, 1.566944099427019, 1.700098351442648, 1.7834840789992086, 2.0833674430423343, 2.16643078573361, 2.333255811267918, 2.499924295693745, 2.5831069689020296, 2.7997964324022178, 3.132833791836674, 3.7827385840473653, 3.899181431144825, 4.015965909965416, 4.1992370545631275, 4.465763689648156, 4.665521371710383, 4.798830881711183, 5.115333586536508]",2017_Jan_30_1434,59.9867610837,famFaceGrey,001,7,
106,./greyInner/JoachimLoew1_1_cut.png,0,64,64,105,,,1.ja,1.619,None,None,None,None,None,sport,2.321,None,Jogi Löw,"['lshift', 'k', 'backspace', 'lshift', 'lshift', 'j', 'o', 'g', 'i', 'space', 'lshift', 'l', u'\xf6', 'w', 'delete', 'return']","[0.6832695406928906, 0.8665175890610044, 1.0997099498554235, 1.2164315556074143, 1.7662068164663651, 1.8826005840774087, 2.6491522400774556, 2.815715508347239, 2.949125422788711, 3.1321761908666303, 3.2818615689011494, 3.348883618101354, 4.048860393559153, 4.148773076982252, 4.281827566119318, 5.048260533163557]",2017_Jan_30_1434,59.9867610837,famFaceGrey,001,7,
208,./greyInner/WillSmith4_1_cut.png,0,65,65,207,,,1.ja,1.608,None,dummy,1.191,None,None,None,None,None,Will smith,"['lshift', 'w', 'i', 'l', 'l', 'space', 's', 'm', 'i', 't', 'h', 'return']","[4.631514740526654, 4.731984620478215, 5.048570086790278, 5.265075742800946, 5.414952627067578, 5.548374731185504, 5.781610076628567, 5.864753935341469, 6.0145387554730405, 6.081261836817248, 6.214752267280346, 6.464589310551673]",2017_Jan_30_1434,59.9867610837,famFaceGrey,001,7,
201,./greyInner/Usher1_1_cut.png,0,66,66,200,,,1.ja,1.651,None,None,None,music,2.1,None,None,None,Usher,"['lshift', 'u', 's', 'h', 'e', 'r', 'return']","[0.5332229632977032, 0.6668038539910413, 0.8333838028711398, 1.0165099544747136, 1.0999810097673617, 1.4664305932656134, 1.6996688257368078]",2017_Jan_30_1434,59.9867610837,famFaceGrey,001,7,
152,./greyInner/NeilPatrickHarris(Barney)11_2_cut.png,0,67,67,151,,,2.nein,11.076,None,act,0.63,None,None,None,None,None,,['return'],[0.8502132551830073],2017_Jan_30_1434,59.9867610837,famFaceGrey,001,7,
3,./greyInner/AlysonHannigan(Lily)14_2_cut.png,0,68,68,2,,,1.ja,1.662,None,dummy,0.962,None,None,None,None,None,Amercian Pie,"['lshift', 'a', 'backspace', 'lshift', 'a', 'm', 'e', 'r', 'c', 'i', 'a', 'n', 'space', 'lshift', 'p', 'i', 'e', 'return']","[2.032804985706207, 2.4994132916235685, 3.3658554971589183, 4.0654675446658075, 4.165399474945843, 4.498551032401338, 4.665200590749919, 4.83182127881264, 5.048347464803555, 5.073593888738287, 5.231584285838835, 5.331562408577156, 5.448071978114967, 5.548183224952481, 5.714835670329194, 5.948068770305326, 6.2146053495998785, 6.49760729481568]",2017_Jan_30_1434,59.9867610837,famFaceGrey,001,7,
83,./greyInner/HughLaurie(DrHouse)5_3_cut.png,0,69,69,82,,,1.ja,1.344,None,dummy,0.561,None,None,None,None,None,Dr House,"['lshift', 'd', 'r', 'space', 'lshift', 'h', 'o', 'u', 's', 'e', 'return']","[0.6171575470780226, 0.7338040900858687, 0.8671318846008944, 1.067014029676102, 1.2502133193393092, 1.3833967624223078, 1.6001256819808987, 1.7992729178749869, 1.8993511242733803, 2.066263081447687, 2.299819528631815]",2017_Jan_30_1434,59.9867610837,famFaceGrey,001,7,
173,./greyInner/SahraWagenknecht5_1_cut.png,0,70,70,172,,,1.ja,3.579,None,None,None,None,None,polit,1.866,None,Sara Wagenknecht,"['lshift', 's', 'a', 'r', 'a', 'space', 'lshift', 'w', 'a', 'g', 'n', 'e', 'backspace', 'backspace', 'e', 'n', 'k', 'n', 'e', 'c', 'h', 't', 'return']","[0.6666476336622509, 0.8833601933920363, 1.0663699015067323, 1.1332880176760227, 1.2832964221370275, 1.382976218582371, 1.532488054116584, 1.6164049949438777, 1.816321463582426, 2.182914756950595, 2.4494487699967067, 2.5827297304922467, 2.865854855596808, 2.9492585468879042, 3.3159820773262254, 3.5656131792211454, 3.7657525906270166, 3.932050573042943, 4.048806181576765, 4.265326272729908, 4.431837895265744, 4.53201714766692, 4.731896405713087]",2017_Jan_30_1434,59.9867610837,famFaceGrey,001,7,
23,./greyInner/BenedictCumberbatch3_9_cut.png,0,71,71,22,,,1.ja,3.481,None,act,1.294,None,None,None,None,None,,['return'],[0.7669035527133019],2017_Jan_30_1434,59.9867610837,famFaceGrey,001,7,
189,./greyInner/TaylorSwift7_1_cut.png,0,72,72,188,,,1.ja,1.031,None,None,None,music,1.48,None,None,None,Taylor Swift,"['lshift', 't', 'a', 'y', u'\xf6', 'p', 'backspace', 'backspace', 'l', 'o', 'r', 'space', 'lshift', 'lshift', 's', 'w', 'i', 'f', 't', 'return']","[0.6671313713513882, 0.8170124257712814, 1.033556575496732, 1.4501166359577837, 1.7000515174222528, 1.8666648275229818, 2.5828436077335937, 2.7496452162577043, 3.1994343348542316, 3.316076066147616, 3.5159514748229412, 5.1819168073825495, 5.864888342563063, 6.414656546241531, 6.498147169172626, 7.247890223622562, 7.364310295272844, 7.714039171204604, 7.880855856434209, 8.01423080575023]",2017_Jan_30_1434,59.9867610837,famFaceGrey,001,7,
74,./greyInner/GuentherJauch7_1_cut.png,0,73,73,73,,,1.ja,1.396,None,None,None,host,1.594,None,None,None,Günter Jauch,"['lshift', 'g', u'\xfc', 'n', 't', 'e', 'r', 'space', 'lshift', 'j', 'a', 'u', 'c', 'h', 'return']","[0.6004846358746363, 0.7004605131469361, 0.9837245364069531, 1.200113748928743, 1.6506400221724107, 1.8501587224191098, 1.9665762278209513, 2.116784158039991, 2.299704368266248, 2.38315617670105, 2.649531082392059, 2.816265647695218, 2.916163895974023, 3.0328457248879204, 3.4160025431510803]",2017_Jan_30_1434,59.9867610837,famFaceGrey,001,7,
134,./greyInner/LeonardoDiCaprio4_1_cut.png,0,74,74,133,,,1.ja,3.01,None,dummy,0.81,None,None,None,None,None,Leonardo di Caprio,"['lshift', 'l', 'e', 'o', 'n', 'a', 't', 'c', 'backspace', 'backspace', 'r', 'c', 'o', 'space', 'd', 'backspace', 'backspace', 'backspace', 'backspace', 'd', 'o', 'space', 'd', 'i', 'space', 'lshift', 'c', 'a', 'p', 'r', 'i', 'o', 'return']","[0.5836314457728804, 0.6834786898789389, 0.8835664555499534, 0.9833072003775669, 1.1501216401402417, 1.249898312435107, 1.4495664966098047, 1.7663617536709353, 2.0496379666074063, 2.1995324938279737, 2.849327899731179, 3.06587237023723, 3.1991773893050777, 3.3990348342458674, 3.832317206177322, 4.198729579084102, 4.315429050950115, 4.431988341536453, 4.631877864573653, 4.981895122589776, 5.248448061713134, 5.431656012461644, 5.53164889112395, 5.614747519721277, 5.814779469505083, 6.1143664319406525, 6.214643201753461, 6.447853526280596, 6.614437003751846, 6.714430203195661, 6.831086369631521, 6.981093490969215, 7.197676455190958]",2017_Jan_30_1434,59.9867610837,famFaceGrey,001,7,
66,./greyInner/EmmaWatson(HermioneGranger)11_2_cut.png,0,75,75,65,,,1.ja,1.426,None,dummy,1.277,None,None,None,None,None,Emma Stone Bzw Hermina Granger,"['lshift', 'e', 'm', 'm', 'a', 'space', 'lshift', 's', 't', 'o', 'n', 'e', 'space', 'lshift', 'b', 'z', 'w', 'period', 'space', 'e', 'backspace', 'lshift', 'h', 'e', 'r', 'm', 'i', 'n', 'a', 'space', 'lshift', 'g', 'r', 'a', 'n', 'g', 'e', 'r', 'return']","[0.4833764890645398, 0.6664939795828104, 1.1164608108310858, 1.283099141846833, 1.399812407294121, 1.516366244603887, 1.699616538439841, 1.816253458018764, 2.1161101972411416, 2.5326612758353804, 2.6826712842012057, 2.7992822205224, 2.932632790486423, 3.2154133968388123, 3.648969394929736, 3.8819147543845247, 4.065470110913338, 4.415258972884658, 4.698469425724397, 5.015010303483905, 5.365062205843969, 5.631416581552912, 5.697938212454574, 5.931170029306486, 6.147801752234045, 6.947616148369889, 7.080897108865429, 7.180736654228895, 7.314182175356109, 7.430807546820688, 7.564059637029459, 7.61398887274936, 7.880490486919371, 8.097195668687164, 8.197223512474011, 8.380251505103843, 8.530395920692172, 8.680337602713735, 8.880146288948708]",2017_Jan_30_1434,59.9867610837,famFaceGrey,001,7,
41,./greyInner/CobieSmulders(Robin)12_1_cut.png,0,76,76,40,,,1.ja,2.557,None,dummy,0.737,None,None,None,None,None,HIMYM,"['lshift', 'lshift', 'h', 'lshift', 'i', 'm', 'backspace', 'lshift', 'm', 'y', 'backspace', 'lshift', 'y', 'm', 'lshift', 'backspace', 'lshift', 'm', 'return']","[5.314714671751062, 5.88134825520774, 6.0642771265211195, 7.0473183994827195, 7.214103006615005, 7.580661014078032, 8.596979141538213, 8.730271329367497, 8.830177597170405, 9.729733379696881, 10.64628285438539, 10.81280442113075, 11.029371346304288, 11.645736243628562, 12.3122241283736, 12.561988675148314, 12.745258215841204, 12.86196538645072, 14.361557032288147]",2017_Jan_30_1434,59.9867610837,famFaceGrey,001,7,
9,./greyInner/AngelaMerkel5_1_cut.png,0,77,77,8,,,1.ja,1.411,None,None,None,None,None,polit,1.411,None,Angela Merkel,"['lshift', 'a', 'n', 'g', 'e', 'l', 'a', 'space', 'lshift', 'm', 'e', 'r', 'k', 'e', u'\xf6', 'backspace', u'\xf6', 'backspace', 'l', 'return']","[1.5004834169076275, 1.8169893295425936, 2.216926199849695, 2.4168147605441845, 2.5163341665083863, 2.733428776362416, 2.883345437468961, 3.033195696916664, 3.24963206423854, 3.4329840456384773, 3.7160896031045922, 3.832884667696817, 3.9162585263584333, 4.033045571426555, 4.14947366260003, 4.799188873264029, 4.96574444279122, 5.332410553437512, 5.632282048584784, 6.1153409644985]",2017_Jan_30_1434,59.9867610837,famFaceGrey,001,7,
165,./greyInner/OmarEpps(DrEricForeman)9_1_cut.png,0,78,78,164,,,2.nein,2.645,None,None,None,music,1.278,None,None,None,,['return'],[0.6836756493885332],2017_Jan_30_1434,59.9867610837,famFaceGrey,001,7,
50,./greyInner/CristinMilioti(Tracy_Mutter)9_1_cut.png,0,79,79,49,,,2.nein,2.517,None,None,None,music,2.702,None,None,None,,['return'],[0.5335751807915585],2017_Jan_30_1434,59.9867610837,famFaceGrey,001,7,
42,./greyInner/CobieSmulders(Robin)2_1_cut.png,0,80,80,41,,,1.ja,1.708,None,act,2.91,None,None,None,None,None,Himym,"['lshift', 'h', 'i', 'm', 'y', 'm', 'return']","[0.9000998270348646, 1.0333134235288526, 1.8996241088707393, 2.199414446435185, 2.6327545589392685, 3.0993054450646014, 3.9489538049756447]",2017_Jan_30_1434,59.9867610837,famFaceGrey,001,7,
186,./greyInner/TaylorSwift1_2_cut.png,0,81,81,185,,,1.ja,2.266,None,dummy,0.817,None,None,None,None,None,Taylor Swift,"['lshift', 't', 'a', 'y', 'l', 'o', 'r', 'space', 'lshift', 's', 'e', 'backspace', 'i', 'backspace', 'w', 'i', 'f', 't', 'return']","[0.8501513444571174, 1.3996215426232084, 1.6669158065460579, 1.8329452952984866, 1.9328826788541846, 2.0829385588976947, 2.1992113920869087, 2.3160872934813597, 2.732547270282339, 2.8660197370109017, 3.4489922986904276, 3.8151910314772977, 4.082161306630951, 4.365196292284963, 4.5153253103871975, 4.631819803220424, 5.098220563855648, 5.331692324866708, 5.431648634499652]",2017_Jan_30_1434,59.9867610837,famFaceGrey,001,7,
115,./greyInner/JoshRadnor(Ted)9_1_cut.png,0,82,82,114,,,1.ja,1.297,None,act,4.095,None,None,None,None,None,Ted Mosby,"['lshift', 't', 'e', 'd', 'space', 'lshift', 'm', 'o', 's', 'b', 'y', 'return']","[1.1166019544543815, 1.2498437796721191, 1.516502897294231, 2.082991808537372, 2.2660810703309835, 2.4161857090803096, 2.5660686881856236, 3.482323044390796, 3.6490540811037135, 4.01542571482878, 4.165393380108071, 4.415438289442136]",2017_Jan_30_1434,59.9867610837,famFaceGrey,001,7,
101,./greyInner/JimParsons(SheldonCooper)1_1_cut.png,0,83,83,100,,,1.ja,1.751,None,act,0.746,None,None,None,None,None,Sheldon Cooper,"['lshift', 's', 'j', 'h', 'backspace', 'backspace', 'h', 'e', 'l', 'd', 'o', 'm', 'backspace', 'n', 'space', 'lshift', 'c', 'o', 'o', 'p', 'e', 'r', 'return']","[0.5673078650361276, 0.7338987204693694, 1.1506246246863157, 1.7836274680885253, 1.983428776362416, 2.4666333268323797, 2.983023950790084, 3.266142981055964, 3.4162011065664046, 3.516265840164124, 3.7493237937351296, 4.1992540559549525, 4.465391904514945, 4.649038042055508, 4.765776969979925, 4.848914092292944, 5.182279289868347, 5.315550626934964, 5.498840056046902, 5.631351142236781, 5.815000808368495, 6.281847454539275]",2017_Jan_30_1434,59.9867610837,famFaceGrey,001,7,
157,./greyInner/NicoleKidman3_1_cut.png,0,84,84,156,,,1.ja,1.79,None,act,0.763,None,None,None,None,None,Nicole Kidman,"['lshift', 'n', 'i', 'c', 'o', 'l', 'e', 'space', 'lshift', 'k', 'i', 'd', 'm', 'a', 'n', 'return']","[0.5170469418026187, 0.8835725503886351, 1.0334657944849823, 1.3667533630678008, 1.4665768693830614, 1.6166449391030255, 1.7165643589260071, 1.8164921190536916, 2.0663904314887986, 2.1663897257703866, 2.3162813659619133, 2.4495257574280913, 2.5661501665490505, 2.699408993158613, 2.7492028593133, 3.1172707827572594]",2017_Jan_30_1434,59.9867610837,famFaceGrey,001,7,
195,./greyInner/TomCruise7_1_cut.png,0,85,85,194,,,1.ja,1.696,None,act,0.497,None,None,None,None,None,Tom Cruise,"['lshift', 't', 'o', 'm', 'space', 'lshift', 'c', 'r', 'u', 's', 'backspace', 'i', 's', 'e', 'return']","[0.5841841513674808, 0.7172720017242682, 1.1505983206479868, 1.3004736010097986, 1.466949616858983, 1.6170183281410573, 2.0668719237110054, 2.4167887772855465, 2.566452662995289, 2.8499341757469665, 3.3163602780787187, 3.7327840066309363, 3.8493971884190614, 3.999402705851935, 4.182403432099818]",2017_Jan_30_1434,59.9867610837,famFaceGrey,001,7,
95,./greyInner/JanHofer9_2_cut.png,0,86,86,94,,,2.nein,2.512,None,None,None,host,1.212,None,None,None,,['return'],[0.7505392327939262],2017_Jan_30_1434,59.9867610837,famFaceGrey,001,7,
5,./greyInner/AlysonHannigan(Lily)8_3_cut.png,0,87,87,4,,,1.ja,1.131,None,dummy,0.717,None,None,None,None,None,American Pie,"['lshift', 'lshift', 'a', 'm', 'e', 'r', 'c', 'i', 'a', 'n', 'backspace', 'backspace', 'backspace', 'backspace', 'i', 'c', 'a', 'n', 'space', 'lshift', 'p', 'i', 'e', 'return']","[1.066666944676399, 1.799690253904373, 1.899684736472409, 2.6660551512286474, 2.7995051632906325, 2.949411559406144, 3.1660160159517545, 3.2660127439858115, 3.4326045617617638, 3.599049141076648, 3.8322302745373236, 4.13220570271551, 4.632036009587864, 5.081810693041007, 5.4318314796473715, 6.1648288056167075, 6.398073774488694, 6.464647051125212, 6.614705497415343, 6.714606632724099, 6.864545427716621, 7.064451631363227, 7.164428791758837, 7.347593437078103]",2017_Jan_30_1434,59.9867610837,famFaceGrey,001,7,
12,./greyInner/BarackObama11_2_cut.png,0,88,88,11,,,1.ja,1.354,None,None,None,None,None,polit,1.902,None,Barrack Obama,"['lshift', 'b', 'a', 'r', 'r', 'a', 'c', 'k', 'space', 'lshift', 'o', 'b', 'a', 'm', 'a', 'return']","[0.6168999599667586, 0.7670193546400697, 0.9835516354696665, 1.0501002119717668, 1.183436346792405, 1.333240413781823, 1.8498267141249016, 1.9497727587677218, 2.1164142975922005, 2.2495146584069516, 2.2994121368119522, 2.516271293439786, 2.6658905905960637, 2.766164152599231, 2.8826612116790784, 3.1157955111193587]",2017_Jan_30_1434,59.9867610837,famFaceGrey,001,7,
55,./greyInner/DannFlorek(DonaldDonCragen)8_1_cut.png,0,89,89,54,,,2.nein,1.965,None,None,None,None,None,polit,1.182,None,,['return'],[0.6835319395186161],2017_Jan_30_1434,59.9867610837,famFaceGrey,001,7,
131,./greyInner/LeonardoDiCaprio1_1_cut.png,0,90,90,130,,,1.ja,1.321,None,act,3.253,None,None,None,None,None,Leonardo di Caprio,"['lshift', 'l', 'e', 'o', 'n', 'a', 'r', 'c', 'o', 'space', 'backspace', 'backspace', 'backspace', 'd', 'o', 'space', 'd', 'i', 'space', 'lshift', 'c', 'a', 'p', 'r', 'i', 'o', 'return']","[0.6333156048394812, 0.7667588805006744, 1.0167534272241028, 1.1165827075974448, 1.3165495388457202, 1.4164577313349582, 1.6331163998629563, 1.8163185765542949, 1.9663462278731458, 2.266037764901739, 2.582591153118301, 2.74932635998357, 3.065742453949497, 3.1992290350399344, 3.349031498124532, 3.5989804939517853, 4.232069948213393, 4.448691726931429, 4.648684862218943, 4.881806009639149, 5.0317127265361705, 5.19841970467678, 5.381576651252544, 5.464934791646556, 5.59822730025644, 5.76472160062076, 5.9647647777374]",2017_Jan_30_1434,59.9867610837,famFaceGrey,001,7,
120,./greyInner/JudithRakers8_1_cut.png,0,91,91,119,,,2.nein,3.241,None,None,None,host,0.837,None,None,None,,['return'],[0.7336010357375926],2017_Jan_30_1434,59.9867610837,famFaceGrey,001,7,
48,./greyInner/CristinMilioti(Tracy_Mutter)4_2_cut.png,0,92,92,47,,,2.nein,2.76,None,None,None,music,0.927,None,None,None,,['return'],[0.4834634207054478],2017_Jan_30_1434,59.9867610837,famFaceGrey,001,7,
18,./greyInner/BastianSchweinsteiger14_1_cut.png,0,93,93,17,,,1.ja,2.329,None,None,None,None,None,sport,2.528,None,Bastian Schweinsteiger,"['lshift', 'b', 'a', 's', 't', 'i', 'a', 'n', 'space', 'lshift', 's', 'c', 'h', 'w', 'e', 'i', 'n', 's', 't', 'e', 'i', 'g', 'e', 'r', 'return']","[0.7501834867089201, 0.9001344713778963, 1.0834428265670795, 1.2501228591072504, 1.4999541283223152, 1.5830912506344248, 1.8497439526372546, 1.9329250219407186, 2.082933426402633, 2.33267904710101, 2.482926112596033, 2.7161996309732785, 2.8326700652332875, 2.966121039637983, 3.132630095926288, 3.4324294153575465, 3.6324363442254253, 3.948957333565886, 4.248848396351605, 4.432128522816129, 4.515343594902333, 4.698573679536821, 4.83197236664455, 4.965319408017422, 5.51490316264335]",2017_Jan_30_1434,59.9867610837,famFaceGrey,001,7,
216,./greyInner/notfamousface14_6_cut.png,0,94,94,215,,,2.nein,2.143,None,None,None,music,0.858,None,None,None,,['return'],[0.8165155360638892],2017_Jan_30_1434,59.9867610837,famFaceGrey,001,7,
169,./greyInner/RobertSeanLeonard(Wilson)2_6_cut.png,0,95,95,168,,,2.nein,1.501,None,act,1.18,None,None,None,None,None,,['return'],[0.33367475120212475],2017_Jan_30_1434,59.9867610837,famFaceGrey,001,7,
147,./greyInner/MilaKunis10_1_cut.png,0,96,96,146,,,1.ja,2.663,None,act,0.697,None,None,None,None,None,,['return'],[1.3332542073630975],2017_Jan_30_1434,59.9867610837,famFaceGrey,001,7,
224,./greyInner/notfamousface9_1_cut.png,0,97,97,223,,,2.nein,2.028,None,None,None,music,1.776,None,None,None,,['return'],[0.4173392374132163],2017_Jan_30_1434,59.9867610837,famFaceGrey,001,7,
170,./greyInner/RobertSeanLeonard(Wilson)8_1_cut.png,0,98,98,169,,,1.ja,3.71,None,dummy,2.612,None,None,None,None,None,,['return'],[2.166444900096394],2017_Jan_30_1434,59.9867610837,famFaceGrey,001,7,
140,./greyInner/LisaEdelstein(DrLisaCuddy)9_1_cut.png,0,99,99,139,,,2.nein,2.162,None,None,None,host,1.996,None,None,None,,['return'],[0.3170849222678953],2017_Jan_30_1434,59.9867610837,famFaceGrey,001,7,
121,./greyInner/KaleyCuoco(Penny)10_1_cut.png,0,100,100,120,,,1.ja,1.334,None,act,0.559,None,None,None,None,None,Penny,"['lshift', 'p', 'e', 'm', 'backspace', 'n', 'n', 'y', 'return']","[0.766831056216688, 0.9333702659150731, 1.2000075704308983, 1.5165070674465824, 1.866300420351763, 2.216165307410847, 2.3494805914688186, 2.48276443899249, 2.682669359515785]",2017_Jan_30_1434,59.9867610837,famFaceGrey,001,7,
160,./greyInner/NicoleKidman8_2_cut.png,0,101,101,159,,,1.ja,3.892,None,act,1.71,None,None,None,None,None,,['return'],[0.6002151798675186],2017_Jan_30_1434,59.9867610837,famFaceGrey,001,7,
177,./greyInner/Shakira2_1_cut.png,0,102,102,176,,,2.nein,2.328,None,act,1.813,None,None,None,None,None,,['return'],[0.31712822769804916],2017_Jan_30_1434,59.9867610837,famFaceGrey,001,7,
223,./greyInner/notfamousface8_9_cut.png,0,103,103,222,,,2.nein,2.08,None,None,None,music,1.351,None,None,None,,['return'],[0.13373743180181918],2017_Jan_30_1434,59.9867610837,famFaceGrey,001,7,
19,./greyInner/BastianSchweinsteiger3_1_cut.png,0,104,104,18,,,1.ja,1.829,None,None,None,None,None,sport,0.812,None,Bastian Schweinsteiger,"['lshift', 'b', 'a', 's', 't', 'i', 'a', 'n', 'space', 'lshift', 's', 'c', 'h', 'w', 'e', 'i', 'n', 's', 't', 'e', 'i', 'g', 'e', 'r', 'return']","[0.8170457869910024, 0.9170409111211484, 1.1336174597227, 1.3334335239205757, 1.633329077639246, 1.7999099888629644, 2.0157676673325113, 2.1331802352733575, 2.3498000893059725, 2.5163951148906563, 2.649735419863646, 2.899498362734448, 3.03284476254521, 3.1661677453466837, 3.3159275445632375, 3.416024356257367, 3.5660224957273385, 3.7822946231981405, 4.032412991372439, 4.232279418180951, 4.332390985798156, 4.548654452183655, 4.6653205628299474, 4.815522398210305, 4.965325823637613]",2017_Jan_30_1434,59.9867610837,famFaceGrey,001,7,
203,./greyInner/Usher2_1_cut.png,0,105,105,202,,,1.ja,2.094,None,None,None,music,1.661,None,None,None,Usher,"['lshift', 'u', 's', 'h', 'e', 'r', 'return']","[0.5838062713955878, 0.7670989083180757, 0.9173767687861982, 1.333786382976541, 1.5003740306001419, 1.633605911608356, 1.8168972654066238]",2017_Jan_30_1434,59.9867610837,famFaceGrey,001,7,
141,./greyInner/MariskaHargitay(Liv)13_1_cut.png,0,106,106,140,,,2.nein,2.245,None,None,None,music,0.861,None,None,None,,['return'],[0.4505188952816752],2017_Jan_30_1434,59.9867610837,famFaceGrey,001,7,
130,./greyInner/KatjaBurkard7_1_cut.png,0,107,107,129,,,2.nein,2.341,None,None,None,host,0.876,None,None,None,,['return'],[0.4168728218974138],2017_Jan_30_1434,59.9867610837,famFaceGrey,001,7,
111,./greyInner/JoshRadnor(Ted)1_2_cut.png,0,108,108,110,,,1.ja,1.145,None,act,1.32,None,None,None,None,None,Ted,"['lshift', 't', 'w', 'e', 'backspace', 'backspace', 'e', 'd', 'return']","[0.6835409213863386, 0.7668964955328192, 1.0002838911505023, 1.683124226918153, 1.8332211669248863, 1.85715303048255, 2.0829703162135047, 2.199697696023577]",2017_Jan_30_1434,59.9867610837,famFaceGrey,001,7,
109,./greyInner/JoachimLoew4_1_cut.png,0,109,109,108,,,1.ja,1.31,None,None,None,None,None,sport,1.659,None,Jogi Löw,"['lshift', 'j', 'o', 'g', 'i', 'space', 'lshift', 'l', u'\xf6', 'e', 'backspace', 'w', 'return']","[1.0666130534755212, 1.1666222919666325, 1.4665640381444973, 1.6830963189740942, 1.7828932004695162, 1.9495818940958998, 2.1662203534233413, 2.2993813418388527, 2.466103717466467, 2.6661173827351377, 3.2323169495521142, 3.3658038514240616, 3.4823329886003194]",2017_Jan_30_1434,59.9867610837,famFaceGrey,001,7,
96,./greyInner/JasonSegel(Marshall)11_1_cut.png,0,110,110,95,,,1.ja,2.013,None,act,0.513,None,None,None,None,None,,['return'],[2.632856888065362],2017_Jan_30_1434,59.9867610837,famFaceGrey,001,7,
72,./greyInner/GuentherJauch3_1_cut.png,0,111,111,71,,,1.ja,1.748,None,None,None,host,2.381,None,None,None,Günter Jauch,"['lshift', 'g', u'\xfc', 't', 'n', 'e', 'backspace', 'backspace', 'backspace', 'n', 't', 'e', 'r', 'space', 'lshift', 'j', 'a', 'u', 'c', 'h', 'return']","[0.6833891919914095, 0.9333471696854758, 1.2498736123015988, 1.5328810107939717, 1.699801629054491, 1.8663828610588098, 2.166331343636557, 2.3325459230027263, 2.449420541272957, 2.832474068067313, 3.1157409783563708, 3.36573841210884, 3.5321881239196955, 3.6484532583654072, 3.8821200541997314, 3.965463438669758, 4.132111713894119, 4.282033186715125, 4.381985326195718, 4.48184604310336, 4.765191865508314]",2017_Jan_30_1434,59.9867610837,famFaceGrey,001,7,
182,./greyInner/SigmarGabriel11_3_cut.png,0,112,112,181,,,1.ja,1.322,None,None,None,None,None,polit,0.77,None,Sigmar Gabriel,"['lshift', 's', 'i', 'g', 'm', 'a', 't', 'space', 'backspace', 'backspace', 'r', 'space', 'lshift', 'g', 'a', 'b', 'r', 'i', 'e', 'l', 'return']","[0.5501765578410414, 0.6669883030426718, 0.98350127285903, 1.249536792292929, 1.366529778738368, 1.5998235063152606, 1.8164160939659268, 1.9826880931241249, 2.266324222298863, 2.73267301641863, 2.9160320549999597, 3.332523468335239, 3.5157352684555008, 3.6488452526982655, 3.799073071336352, 3.932368787755877, 4.248829470275268, 4.482099460061363, 4.598685696249049, 4.732026322002639, 4.965195907348061]",2017_Jan_30_1434,59.9867610837,famFaceGrey,001,7,
71,./greyInner/GuentherJauch2_1_cut.png,0,113,113,70,,,1.ja,1.229,None,None,None,host,1.762,None,None,None,Gütner Jauch,"['g', 'backspace', 'lshift', 'g', u'\xfc', 't', 'n', 'e', 'r', 'space', 'lshift', 'j', 'a', 'u', 'c', 'h', 'return']","[0.8338662574351474, 1.4006749872969522, 1.6171254689816124, 1.9837627093411356, 2.2834160734355464, 2.4832289298228716, 2.60012888978963, 2.7666812515071797, 2.8999724769928434, 3.016179229303816, 3.266348922432371, 3.3830795100520845, 3.499668312486392, 3.6331468740536366, 3.733092597914947, 3.866257114921609, 4.4493881423959465]",2017_Jan_30_1434,59.9867610837,famFaceGrey,001,7,
183,./greyInner/SigmarGabriel3_3_cut.png,0,114,114,182,,,1.ja,1.409,None,None,None,None,None,polit,0.751,None,Sigmar Gabriel,"['lshift', 's', 'i', 'g', 'm', 'a', 'r', 'space', 'lshift', 'g', 'b', 'backspace', 'a', 'b', 'r', 'i', 'e', 'l', 'return']","[0.46693774796403886, 0.8669564174160769, 1.4500139860501804, 1.6998128563873252, 1.9662121414312423, 2.0497316346481966, 2.2663190898028915, 2.383032355251089, 2.5829606927845816, 2.6828823580735843, 2.8994653222953275, 3.1993002484132376, 3.3326415157289375, 3.5826460066618893, 3.7491130406442608, 3.9156820829721255, 4.032458221488014, 4.16560220851261, 4.798408413186735]",2017_Jan_30_1434,59.9867610837,famFaceGrey,001,7,
178,./greyInner/Shakira3_1_cut.png,0,115,115,177,,,2.nein,2.912,None,None,None,host,0.896,None,None,None,,['return'],[0.8501372300952426],2017_Jan_30_1434,59.9867610837,famFaceGrey,001,7,
207,./greyInner/WillSmith14_1_cut.png,0,116,116,206,,,1.ja,1.609,None,act,1.342,None,None,None,None,None,Will smith,"['lshift', 'w', 'i', 'l', 'l', 'space', 's', 'm', 'i', 't', 'h', 'return']","[0.7668304146545779, 0.8665448554429531, 1.2500317573149005, 1.4830733510571008, 1.6331471948342369, 1.8664027494778566, 2.0330112478632145, 2.116493209709006, 2.2993669066963776, 2.3828597750944027, 2.51622253473397, 2.9160346212474906]",2017_Jan_30_1434,59.9867610837,famFaceGrey,001,7,
22,./greyInner/BenedictCumberbatch2_2_cut.png,0,117,117,21,,,1.ja,1.895,None,act,0.679,None,None,None,None,None,,['return'],[0.5171245707952039],2017_Jan_30_1434,59.9867610837,famFaceGrey,001,7,
138,./greyInner/LisaEdelstein(DrLisaCuddy)2_2_cut.png,0,118,118,137,,,2.nein,1.242,None,None,None,host,0.673,None,None,None,,['return'],[0.317009859522841],2017_Jan_30_1434,59.9867610837,famFaceGrey,001,7,
209,./greyInner/WillSmith5_1_cut.png,0,119,119,208,,,1.ja,1.212,None,act,1.344,None,None,None,None,None,Will smith,"['lshift', 'w', 'i', 'l', 'l', 'space', 'm', 'backspace', 's', 'm', 'i', 't', 'h', 'return']","[0.783721456909916, 0.8670590673227707, 1.3001261952294954, 1.533399713606741, 1.6501132998355388, 1.8663472543712487, 2.0497768647637713, 2.3497054589224717, 2.699693846651826, 2.7828097974206685, 2.9996112134758732, 3.1494470377801917, 3.3160558569470595, 3.599289085235796]",2017_Jan_30_1434,59.9867610837,famFaceGrey,001,7,
34,./greyInner/BritneySpears7_1_cut.png,0,120,120,33,,,1.ja,1.43,None,None,None,music,1.247,None,None,None,Britney Spears,"['lshift', 'b', 'r', 'i', 'n', 't', 'e', 'y', 'space', 'backspace', 'backspace', 'backspace', 'backspace', 'backspace', 'n', 'e', 'y', 'backspace', 'backspace', 'backspace', 't', 'n', 'e', 'y', 'space', 'lshift', 's', 'p', 'e', 'a', 'r', 's', 'return']","[0.766800261244498, 0.9167188470364636, 1.1663794607802629, 1.233182737365496, 1.3832585058280529, 1.4076041768248615, 1.6162680214747525, 1.833007206023467, 2.0327360177998344, 2.699450694683037, 2.8492534785491443, 2.966060091255713, 3.0658874469427246, 3.4491802763341184, 3.715655265683381, 3.848982097856606, 4.065472356380269, 4.348701093735144, 4.465311067713628, 4.5818475828518785, 4.86509524628309, 5.231988790630567, 5.331745574506385, 5.564991505720172, 5.698182326766073, 5.981124927503515, 6.098029699184735, 6.431178690392699, 6.697904530454252, 6.931045887075015, 7.130961714150544, 7.330951962409927, 7.497565593291256]",2017_Jan_30_1434,59.9867610837,famFaceGrey,001,7,
7,./greyInner/AngelaMerkel3_1_cut.png,0,121,121,6,,,1.ja,1.52,None,None,None,None,None,polit,1.269,None,Angela Merkel,"['lshift', 'a', 'n', 'g', 'e', 'l', 'a', 'space', 'lshift', 'm', 'e', 'r', 'k', 'e', 'l', 'return']","[0.6003325857000164, 0.7335436159455639, 1.0668844341680597, 1.2835511222201603, 1.3834490497183651, 1.5666220353423341, 1.6993576682052662, 1.8498860586032606, 1.9830865030771747, 2.0831258949792755, 2.7162089336216013, 2.8658388165495126, 2.9660385989318456, 3.0660725375573747, 3.182544254941604, 3.3825489383434615]",2017_Jan_30_1434,59.9867610837,famFaceGrey,001,7,
73,./greyInner/GuentherJauch4_1_cut.png,0,122,122,72,,,1.ja,1.41,None,None,None,host,2.026,None,None,None,Gütner Jauch,"['lshift', 'g', u'\xfc', 't', 'n', 'e', 'r', 'space', 'lshift', 'j', 'a', 'u', 'c', 'h', 'return']","[1.0499581060066703, 1.183178759681141, 1.4663969112643827, 1.6163180633047887, 1.6996361060782874, 1.8994386974754889, 2.1328142241982277, 2.199414767215785, 2.882442759845617, 2.9657720299537687, 3.1159392209901853, 3.1992049764676267, 3.3157046017959146, 3.415723463715949, 3.798857185750421]",2017_Jan_30_1434,59.9867610837,famFaceGrey,001,7,
126,./greyInner/KatjaBurkard1_1_cut.png,0,123,123,125,,,2.nein,1.725,None,None,None,host,0.661,None,None,None,,['return'],[1.1667704927704108],2017_Jan_30_1434,59.9867610837,famFaceGrey,001,7,
37,./greyInner/CarenMiosga13_1_cut.png,0,124,124,36,,,2.nein,1.761,None,None,None,host,0.494,None,None,None,,['return'],[0.2504750766029247],2017_Jan_30_1434,59.9867610837,famFaceGrey,001,7,
28,./greyInner/Beyonce3_2_cut.png,0,125,125,27,,,1.ja,1.195,None,None,None,music,1.094,None,None,None,Beyonce Knowles,"['lshift', 'b', 'e', 'y', 'o', 'n', 'c', 'e', 'space', 'lshift', 'k', 'n', 'o', 'w', 'l', 'e', 's', 'return']","[0.6502724071915509, 0.7502168479286411, 1.0334539255891286, 1.2833095741571015, 1.3834724667285627, 1.549922820100619, 1.6663836309326143, 1.833185239456725, 1.9663619461398412, 2.1496821702239686, 2.249619553780576, 2.3496332832055487, 2.4996952580877405, 2.5660866519192496, 2.7327698922690615, 2.816111352052758, 2.9826890554668353, 3.0993320698835305]",2017_Jan_30_1434,59.9867610837,famFaceGrey,001,7,
103,./greyInner/JimParsons(SheldonCooper)6_1_cut.png,0,126,126,102,,,1.ja,1.727,None,act,0.446,None,None,None,None,None,Sheldon Cooper,"['lshift', 's', 'h', 'e', 'l', 'd', 'o', 'n', 'space', 'lshift', 'c', 'o', 'o', 'p', 'e', 'r', 'return']","[0.6837058027995226, 0.8837249213447649, 1.316862941843283, 1.4668966880008156, 1.6166872821895595, 1.7334512310289938, 1.8500483737689137, 2.0331616941339234, 2.183270503035601, 2.349813562105737, 2.5997349707704416, 2.9163534775225344, 3.0496078131973263, 3.1995225496184503, 3.882657683088837, 4.032355892361011, 4.149194903945499]",2017_Jan_30_1434,59.9867610837,famFaceGrey,001,7,
26,./greyInner/Beyonce1_1_cut.png,0,127,127,25,,,1.ja,1.232,None,None,None,music,0.839,None,None,None,Beyonce Knowles,"['lshift', 'b', 'e', 'y', 'o', 'n', 'c', 'e', 'space', 'lshift', 'k', 'n', 'o', 'w', 'backspace', 'backspace', 'w', 'backspace', 'o', 'w', 'l', 'e', 's', 'return']","[0.5336091835733896, 0.6504953499588737, 0.9002114588083714, 1.43341998696269, 1.8332522826767672, 1.999855327786463, 2.1165554412145866, 2.2830728378075946, 2.4495061897887354, 2.6661892376696414, 2.766140094026923, 2.8827426900434148, 3.0161076951499126, 3.149339896938727, 3.9323517863649613, 4.065601951887402, 4.931938941268527, 5.648355099390756, 5.881530138012749, 6.41468317106046, 6.581257025102786, 6.714695168268918, 6.897789883338191, 7.3476174956495015]",2017_Jan_30_1434,59.9867610837,famFaceGrey,001,7,
84,./greyInner/HughLaurie(DrHouse)8_1_cut.png,0,128,128,83,,,1.ja,2.991,None,dummy,0.625,None,None,None,None,None,,['return'],[0.5501810487739931],2017_Jan_30_1434,59.9867610837,famFaceGrey,001,7,
20,./greyInner/BastianSchweinsteiger6_2_cut.png,0,129,129,19,,,1.ja,0.976,None,None,None,None,None,sport,1.052,None,Bastian Schweinsteiger,"['lshift', 'b', 'a', 's', 't', 'i', 'a', 'n', 'space', 'lshift', 's', 'c', 'h', 'w', 'e', 'i', 'n', 's', 't', 'e', 'i', 'g', 'e', 'r', 'return']","[0.8004402397900776, 0.9003102593451331, 1.1000474114262033, 1.283684246318444, 1.4999849232945053, 1.5667096085444427, 1.7667274439663743, 1.8833313231061766, 2.0334051668833126, 2.299798357088548, 2.4998338354625957, 2.7330698224668595, 2.866308439874956, 2.9830582743525156, 3.1328424529219774, 3.232924829472722, 3.3661977704441597, 3.4993796096223377, 3.7160036338063946, 3.9156227384937665, 3.9991271550061356, 4.232574857444888, 4.332028182531758, 4.465781332601182, 4.69900031821453]",2017_Jan_30_1434,59.9867610837,famFaceGrey,001,7,
64,./greyInner/EmilyDeschanel6_12_cut.png,0,130,130,63,,,1.ja,2.559,None,dummy,0.691,None,None,None,None,None,,['return'],[0.4006563820012161],2017_Jan_30_1434,59.9867610837,famFaceGrey,001,7,
24,./greyInner/BenedictCumberbatch4_1_cut.png,0,131,131,23,,,1.ja,1.065,None,act,0.734,None,None,None,None,None,,['return'],[0.21720367538000573],2017_Jan_30_1434,59.9867610837,famFaceGrey,001,7,
70,./greyInner/EmmaWatson(HermioneGranger)9_1_cut.png,0,132,132,69,,,1.ja,1.079,None,dummy,0.546,None,None,None,None,None,Emma stone,"['lshift', 'e', 'm', 'm', 'a', 'space', 's', 't', 'o', 'n', 'e', 'return']","[0.8502562398316513, 0.9334626508316433, 1.5165750730102445, 1.6331433454633952, 1.7831841488014106, 1.9663266602337899, 2.232866126557383, 2.4495475705334684, 2.5662210591417534, 2.8492316654437673, 2.999352664021899, 3.1824903637398165]",2017_Jan_30_1434,59.9867610837,famFaceGrey,001,7,
118,./greyInner/JudithRakers4_3_cut.png,0,133,133,117,,,2.nein,1.845,None,None,None,host,0.979,None,None,None,,['return'],[0.6001532691425382],2017_Jan_30_1434,59.9867610837,famFaceGrey,001,7,
63,./greyInner/EmilyDeschanel5_1_cut.png,0,134,134,62,,,2.nein,1.277,None,act,1.277,None,None,None,None,None,,['return'],[0.18367725329335371],2017_Jan_30_1434,59.9867610837,famFaceGrey,001,7,
219,./greyInner/notfamousface4_2_cut.png,0,135,135,218,,,2.nein,1.9,None,None,None,None,None,sport,0.742,None,,['return'],[0.3839363159977438],2017_Jan_30_1434,59.9867610837,famFaceGrey,001,7,
10,./greyInner/AngelaMerkel6_1_cut.png,0,136,136,9,,,1.ja,1.203,None,None,None,None,None,polit,1.568,None,Angela Merkel,"['lshift', 'a', 'n', 'g', 'e', 'l', 'a', 'space', 'lshift', 'm', 'e', 'r', 'k', 'e', 'l', 'return']","[0.8668572960987149, 0.9997937378420829, 1.4000084044610048, 1.8162464008373718, 1.9996464993819245, 2.133191462607101, 2.2994948982995993, 2.4827269076204175, 2.63260507501127, 2.732682960629063, 3.015939926707688, 3.149218000174187, 3.2659004706501946, 3.36579936049111, 3.4823156664288035, 3.698950917946604]",2017_Jan_30_1434,59.9867610837,famFaceGrey,001,7,
100,./greyInner/JasonSegel(Marshall)9_1_cut.png,0,137,137,99,,,1.ja,1.446,None,act,0.663,None,None,None,None,None,,['return'],[0.6002068395637252],2017_Jan_30_1434,59.9867610837,famFaceGrey,001,7,
179,./greyInner/Shakira7_1_cut.png,0,138,138,178,,,1.ja,1.329,None,None,None,music,0.896,None,None,None,Beyonce Knowles,"['lshift', 'b', 'e', 'y', 'o', 'n', 'c', 'e', 'space', 'lshift', 'k', 'n', 'o', 'w', 'l', 'e', 's', 'return']","[0.6168297089361658, 0.7335391250117027, 0.9834326257332577, 1.266624794058771, 1.6498425607042009, 1.8829996355925687, 2.315900598961889, 2.4828128769177056, 2.6161592767284674, 2.8325873037456404, 2.949327514794277, 3.099220117328514, 3.3157546436250414, 3.449040095053533, 4.3986665777028975, 4.465224456853321, 4.648714053285403, 4.765335575378231]",2017_Jan_30_1434,59.9867610837,famFaceGrey,001,7,
13,./greyInner/BarackObama2_1_cut.png,0,139,139,12,,,1.ja,1.209,None,None,None,None,None,polit,0.947,None,Barrack Obama,"['lshift', 'b', 'a', 'r', 'r', 'a', 'c', 'k', 'space', 'lshift', 'o', 'b', 'm', 'a', 'backspace', 'a', 'backspace', 'backspace', 'a', 'm', 'a', 'return']","[0.5002646442926562, 0.6836993871802406, 0.8502049148773949, 0.9667706210839242, 1.0833789911566782, 1.2000197601073523, 1.4000199525762582, 1.5830088099282875, 1.9328493176353732, 2.0996143571292123, 2.2995850377501483, 2.56621111493223, 2.799372039192349, 2.8993613892644134, 3.149295308386172, 3.365882121978757, 3.648915824510368, 4.049015009983123, 4.232169069529846, 4.34881048004263, 4.498756652997145, 4.631842578668511]",2017_Jan_30_1434,59.9867610837,famFaceGrey,001,7,
174,./greyInner/SahraWagenknecht6_2_cut.png,0,140,140,173,,,1.ja,1.692,None,None,None,None,None,polit,0.87,None,Sara Wagenknecht,"['lshift', 's', 'a', 'r', 'a', 'space', 'lshift', 'w', 'a', 'g', 'e', 'n', 'k', 'n', 'e', 'c', 'h', 't', 'return']","[0.6334849771865265, 0.8002525829288061, 0.9998784240160603, 1.0998552636310706, 1.2500872524215083, 1.3498421116119061, 1.533250229679652, 1.6332293147606833, 1.7831312199432432, 2.0665014217020143, 2.1994795649698062, 2.3328192283806857, 2.8826817416611448, 3.082456104333687, 3.1658726268624378, 3.415589377274955, 4.032126533975315, 4.148944694796228, 4.498819526065745]",2017_Jan_30_1434,59.9867610837,famFaceGrey,001,7,
40,./greyInner/CarenMiosga9_1_cut.png,0,141,141,39,,,2.nein,4.379,None,None,None,host,0.562,None,None,None,,['return'],[0.5003846163717753],2017_Jan_30_1434,59.9867610837,famFaceGrey,001,7,
81,./greyInner/HughLaurie(DrHouse)2_1_cut.png,0,142,142,80,,,1.ja,1.232,None,act,0.966,None,None,None,None,None,Dr House,"['lshift', 'd', 'r', 'space', 'lshift', 'h', 'o', 'u', 's', 'e', 'return']","[0.6674723615124094, 0.7498367224916365, 0.8501606471054401, 1.050061718256984, 1.316505912634966, 1.3665948972738988, 1.6330872087955868, 2.7325148714053284, 2.9159954859705977, 3.13257620472541, 3.2657984623047014]",2017_Jan_30_1434,59.9867610837,famFaceGrey,001,7,
159,./greyInner/NicoleKidman7_1_cut.png,0,143,143,158,,,1.ja,1.595,None,dummy,0.479,None,None,None,None,None,Nicole Kidman,"['lshift', 'n', 'i', 'c', 'o', 'l', 'e', 'space', 'lshift', 'k', 'i', 'd', 'm', 'a', 'n', 'return']","[0.5672234996427505, 0.6671737144379222, 0.9004985577685147, 1.7834282631120004, 1.849999294281588, 2.0333419730332025, 2.116664185959962, 2.2163831176821986, 2.433135133470387, 2.5331068405894257, 2.683061995411663, 2.799693461714014, 2.9495010572936735, 3.032988472415127, 3.133033959155, 3.766035519433899]",2017_Jan_30_1434,59.9867610837,famFaceGrey,001,7,
155,./greyInner/NeilPatrickHarris(Barney)3_7_cut.png,0,144,144,154,,,1.ja,1.495,None,dummy,0.41,None,None,None,None,None,Barney Stinson,"['lshift', 'b', 'a', 'r', 'n', 'e', 'y', 'space', 'lshift', 's', 't', 'i', 'n', 's', 'o', 'n', 'return']","[1.0835294374273872, 1.2333777721896695, 1.416530548613082, 1.516677402136338, 1.7666411538884859, 1.8830669995950302, 2.2329832116083708, 2.41621746639521, 2.6162834189608475, 2.7996033222643746, 3.2159532711966676, 3.6658075083278163, 3.849043046238876, 3.9490542094163175, 4.115534395417853, 4.7985829180297515, 5.681701884139329]",2017_Jan_30_1434,59.9867610837,famFaceGrey,001,7,
151,./greyInner/NeilPatrickHarris(Barney)1_1_cut.png,0,145,145,150,,,1.ja,2.542,None,act,1.877,None,None,None,None,None,Barney Stinson,"['lshift', 'b', 'a', 'r', 'n', 'e', 'y', 'space', 'lshift', 's', 't', 'i', 'n', 's', 'o', 'n', 'return']","[1.066729496964399, 1.1668596698782494, 1.383175423558896, 1.4499764546771985, 1.7332664611958535, 2.5327931168103532, 2.7994374785075706, 3.116017491543971, 3.815499301980708, 3.982311175495852, 4.465430719011238, 4.5654585627989945, 4.698757807808761, 4.798841788264326, 4.932144882645844, 5.048753252719507, 5.681585761431052]",2017_Jan_30_1434,59.9867610837,famFaceGrey,001,7,
184,./greyInner/SigmarGabriel4_5_cut.png,0,146,146,183,,,1.ja,1.055,None,None,None,None,None,polit,0.789,None,Sigmar Gabriel,"['lshift', 's', 'i', 'g', 'm', 'a', 'r', 'space', 'lshift', 'g', 'a', 'b', 'r', 'i', 'e', 'l', 'return']","[0.550309681939325, 0.6670267967583641, 1.1501524351124317, 1.4000991854727545, 1.6665706462317758, 1.8331692004085198, 2.0831554068272453, 2.216378947529847, 2.416256280890593, 2.5160358402144993, 2.666332947540468, 2.7659604566888447, 2.882792411091941, 2.982792667717149, 3.0993840363989875, 3.248840376827502, 3.5657947412446447]",2017_Jan_30_1434,59.9867610837,famFaceGrey,001,7,
76,./greyInner/GeorgeClooney11_1_cut.png,0,147,147,75,,,1.ja,1.562,None,act,1.879,None,None,None,None,None,George Clooney,"['lshift', 'g', 'e', 'o', 'r', 'g', 'e', 'space', 'lshift', 'c', 'l', 'o', 'o', 'n', 'e', 'y', 'return']","[0.4172532681159282, 0.6505617516177153, 0.9337359562096026, 1.133657236561703, 1.2670129390207876, 1.4002153081801225, 1.5168698707120711, 1.6501084881201677, 1.8333000790398728, 1.9167047326736792, 2.266471139978421, 2.449916147856129, 2.5997285551511595, 2.783103953560385, 2.8831305142239216, 3.1496276374609806, 3.632709649604294]",2017_Jan_30_1434,59.9867610837,famFaceGrey,001,7,
61,./greyInner/EmilyDeschanel15_1_cut.png,0,148,148,60,,,1.ja,2.11,None,act,0.678,None,None,None,None,None,,['return'],[0.5004654531730921],2017_Jan_30_1434,59.9867610837,famFaceGrey,001,7,
161,./greyInner/OmarEpps(DrEricForeman)1_5_cut.png,0,149,149,160,,,1.ja,1.432,None,None,None,music,1.308,None,None,None,,['return'],[0.23361354619464691],2017_Jan_30_1434,59.9867610837,famFaceGrey,001,7,
47,./greyInner/CristinMilioti(Tracy_Mutter)2_1_cut.png,0,150,150,46,,,1.ja,2.362,None,dummy,0.513,None,None,None,None,None,,['return'],[0.2505132495371072],2017_Jan_30_1434,59.9867610837,famFaceGrey,001,7,
180,./greyInner/Shakira9_1_cut.png,0,151,151,179,,,1.ja,1.677,None,act,0.694,None,None,None,None,None,,['return'],[0.28349274008542125],2017_Jan_30_1434,59.9867610837,famFaceGrey,001,7,
56,./greyInner/ElvisPresley1_1_cut.png,0,152,152,55,,,1.ja,1.308,None,None,None,music,0.625,None,None,None,Elvis Presley,"['lshift', 'e', 'l', 'v', 'i', 's', 'space', 'lshift', 'p', 'r', 'e', 's', 'l', 'e', 'y', 'return']","[0.6333823272780137, 0.7499149930454223, 1.1165387606042714, 1.3998181813512929, 1.5164772348161932, 1.6830873371072812, 1.833030943814265, 1.966185837392004, 2.082917066572918, 2.3659761108001476, 2.5494278550786476, 3.1157377705458202, 3.3825239174284434, 3.549073071336352, 3.800512415506091, 3.9820423610499347]",2017_Jan_30_1434,59.9867610837,famFaceGrey,001,7,
51,./greyInner/DannFlorek(DonaldDonCragen)1_1_cut.png,0,153,153,50,,,2.nein,2.245,None,act,1.179,None,None,None,None,None,,['return'],[0.4337600147819103],2017_Jan_30_1434,59.9867610837,famFaceGrey,001,7,
60,./greyInner/ElvisPresley6_1_cut.png,0,154,154,59,,,1.ja,1.012,None,None,None,music,0.895,None,None,None,Elvis Presley,"['lshift', 'e', 'l', 'v', 'i', 's', 'space', 'lshift', 'p', 'r', 'e', 's', 'l', 'e', 'y', 'return']","[0.7999975620641635, 0.9003631882033005, 1.2667547103474135, 1.4335146173461908, 1.5833796327178788, 1.7499117852357813, 1.8832344472557452, 2.0829096886109255, 2.1329649912486275, 2.383043582583923, 2.549564186986572, 2.866174353433962, 3.0494429317841423, 3.149673509137756, 3.416127968506771, 3.582596606393963]",2017_Jan_30_1434,59.9867610837,famFaceGrey,001,7,
135,./greyInner/LeonardoDiCaprio7_1_cut.png,0,155,155,134,,,1.ja,1.352,None,dummy,1.338,None,None,None,None,None,Leonardo Di Caprio,"['lshift', 'l', 'e', 'o', 'n', 'a', 'r', 'd', 'o', 'space', 'lshift', 'd', 'i', 'space', 'lshift', 'c', 'a', 'p', 'r', 'i', 'o', 'return']","[0.5332467010885011, 0.6668654439354214, 0.9000934114155825, 0.9500393277457988, 1.5831611808844173, 1.6997320195860084, 1.8998444853905312, 2.0996650405213586, 2.199509397599286, 2.482801649583962, 2.8326787263204096, 3.315833876522447, 3.4157180104393774, 3.6157894162815865, 4.065513416342583, 4.23199841405858, 4.448628533081319, 4.68188697475307, 4.865300225316787, 5.548234229125228, 5.681422163141178, 5.964681374687643]",2017_Jan_30_1434,59.9867610837,famFaceGrey,001,7,
67,./greyInner/EmmaWatson(HermioneGranger)16_1_cut.png,0,156,156,66,,,1.ja,1.366,None,act,0.448,None,None,None,None,None,Emma Stone,"['lshift', 'e', 'm', 'm', 'a', 'space', 'lshift', 's', 't', 'o', 'n', 'e', 'return']","[0.6337053537063184, 0.7670036363733743, 1.4333506982757171, 1.5666659823336886, 1.7000483096126118, 1.783268193413278, 2.1329017974003364, 2.2663886992722837, 2.666232222319195, 2.8329401628025153, 3.0160188388244933, 3.182673850449646, 3.29931397783821]",2017_Jan_30_1434,59.9867610837,famFaceGrey,001,7,
168,./greyInner/RobertSeanLeonard(Wilson)11_2_cut.png,0,157,157,167,,,1.ja,1.242,None,dummy,1.26,None,None,None,None,None,,['return'],[1.5995437853180192],2017_Jan_30_1434,59.9867610837,famFaceGrey,001,7,
127,./greyInner/KatjaBurkard10_1_cut.png,0,158,158,126,,,1.ja,2.53,None,dummy,0.413,None,None,None,None,None,,['return'],[0.5003031380083485],2017_Jan_30_1434,59.9867610837,famFaceGrey,001,7,
31,./greyInner/BritneySpears1_1_cut.png,0,159,159,30,,,1.ja,1.01,None,None,None,music,1.443,None,None,None,Britney Spears,"['lshift', 'b', 'r', 't', 'i', 'n', 'e', 'y', 'backspace', 'backspace', 'backspace', 'backspace', 'o', 'backspace', 'backspace', 'i', 't', 'n', 'e', 'y', 'space', 'lshift', 's', 'p', 'e', 'a', 'r', 's', 'return']","[0.7505876707191419, 0.8503864769008942, 1.1503295062020698, 1.3837136940110213, 1.8334996047979075, 2.016523748055988, 2.0834290329867144, 2.350078206397484, 2.733251705270959, 2.866283418959938, 3.016382283652092, 3.216038278150336, 3.56617967839793, 3.8827263302146093, 4.382578770972032, 4.66584792672802, 4.848883618101354, 4.948977221984933, 5.132292955137018, 5.765277834805602, 5.881993666500421, 6.115118342511778, 6.198433177476545, 6.5483365582513215, 6.781621303961401, 7.131584670775737, 7.314685480683693, 7.531345432335911, 7.664487173893576]",2017_Jan_30_1434,59.9867610837,famFaceGrey,001,7,
87,./greyInner/Ice-T(OdafinFinTutuola)12_1_cut.png,0,160,160,86,,,1.ja,2.029,None,None,None,music,0.562,None,None,None,,['return'],[0.5169404425241737],2017_Jan_30_1434,59.9867610837,famFaceGrey,001,7,
129,./greyInner/KatjaBurkard5_3_cut.png,0,161,161,128,,,1.ja,4.731,None,None,None,host,0.702,None,None,None,punkt 12,"['p', 'u', 'n', 'k', 't', 'space', '1', '2', 'return']","[2.5827537890645544, 2.849218192643093, 2.9991175315772125, 3.165854342347302, 3.2659912516610348, 3.349385961085318, 3.548951495352412, 3.7156629644268833, 3.86558507880909]",2017_Jan_30_1434,59.9867610837,famFaceGrey,001,7,
162,./greyInner/OmarEpps(DrEricForeman)2_2_cut.png,0,162,162,161,,,1.ja,1.453,None,None,None,music,0.72,None,None,None,,['return'],[0.43365896877912746],2017_Jan_30_1434,59.9867610837,famFaceGrey,001,7,
44,./greyInner/CobieSmulders(Robin)4_7_cut.png,0,163,163,43,,,1.ja,1.392,None,dummy,0.688,None,None,None,None,None,Himym,"['lshift', 'h', 'i', 'm', 'y', 'm', 'return']","[0.9504268311457054, 1.0668927744727625, 1.316796219403841, 1.5502310906040293, 2.0501970878221982, 2.5331001041895433, 2.8996850572530093]",2017_Jan_30_1434,59.9867610837,famFaceGrey,001,7,
52,./greyInner/DannFlorek(DonaldDonCragen)10_1_cut.png,0,164,164,51,,,2.nein,2.519,None,None,None,host,2.569,None,None,None,,['return'],[0.7835382909815962],2017_Jan_30_1434,59.9867610837,famFaceGrey,001,7,
119,./greyInner/JudithRakers7_1_cut.png,0,165,165,118,,,2.nein,2.728,None,act,0.546,None,None,None,None,None,,['return'],[0.5505079245731395],2017_Jan_30_1434,59.9867610837,famFaceGrey,001,7,
25,./greyInner/BenedictCumberbatch6_5_cut.png,0,166,166,24,,,1.ja,1.196,None,act,0.629,None,None,None,None,None,,['return'],[0.2837705363972418],2017_Jan_30_1434,59.9867610837,famFaceGrey,001,7,
39,./greyInner/CarenMiosga6_2_cut.png,0,167,167,38,,,2.nein,2.929,None,None,None,host,0.863,None,None,None,,['return'],[0.2840525028614138],2017_Jan_30_1434,59.9867610837,famFaceGrey,001,7,
53,./greyInner/DannFlorek(DonaldDonCragen)2_1_cut.png,0,168,168,52,,,2.nein,1.177,None,None,None,None,None,polit,0.745,None,,['return'],[0.31706695853517886],2017_Jan_30_1434,59.9867610837,famFaceGrey,001,7,
110,./greyInner/JoachimLoew8_1_cut.png,0,169,169,109,,,1.ja,1.058,None,None,None,None,None,sport,1.191,None,Jogi Löw,"['lshift', 'j', 'o', 'g', 'i', 'space', 'lshift', 'l', u'\xf6', 'w', 'return']","[1.0998985690594054, 1.2332507429282487, 1.3997466471973894, 1.6497328536152054, 1.749852119976822, 1.9664074970351066, 2.0827807346649934, 2.3325327709826524, 2.5327100345411964, 2.782654539435498, 3.1324857444933514]",2017_Jan_30_1434,59.9867610837,famFaceGrey,001,7,
128,./greyInner/KatjaBurkard4_1_cut.png,0,170,170,127,,,1.ja,3.067,None,None,None,host,1.064,None,None,None,Punkt 12,"['lshift', 'p', 'u', 'n', 'k', 't', 'space', '1', '2', 'return']","[0.7666469279447483, 0.8330338308433056, 1.0499622761590217, 1.1999661896861653, 1.299665232989355, 1.4165568526514107, 1.583021961947452, 1.7663790758424511, 1.9162505068334212, 2.1161111595847615]",2017_Jan_30_1434,59.9867610837,famFaceGrey,001,7,
164,./greyInner/OmarEpps(DrEricForeman)5_2_cut.png,0,171,171,163,,,1.ja,1.369,None,None,None,music,0.958,None,None,None,,['return'],[1.0169481412667665],2017_Jan_30_1434,59.9867610837,famFaceGrey,001,7,
14,./greyInner/BarackObama4_1_cut.png,0,172,172,13,,,1.ja,1.197,None,None,None,None,None,polit,1.996,None,Barrack Obama,"['lshift', 'b', 'a', 'r', 'r', 'a', 'c', 'k', 'space', 'lshift', 'o', 'b', 'a', 'm', 'a', 'return']","[0.750266568978077, 0.8500393919021008, 1.050184577365144, 1.1999985885640854, 1.2834635490180517, 1.4667754327974762, 1.6499003012777393, 1.7998981199671107, 1.9664151957795184, 2.0831502743321835, 2.1664423338479537, 2.7328712590524447, 2.816195396664625, 2.9661258513524444, 3.0827970944947083, 3.1992999276317278]",2017_Jan_30_1434,59.9867610837,famFaceGrey,001,7,
104,./greyInner/JimParsons(SheldonCooper)8_1_cut.png,0,173,173,103,,,1.ja,1.426,None,dummy,0.461,None,None,None,None,None,Sheldon Cooper,"['lshift', 's', 'h', 'e', 'd', 'backspace', 'l', 'd', 'o', 'n', 'space', 'lshift', 'c', 'o', 'o', 'p', 'e', 'r', 'return']","[0.6167087745143363, 0.8167625374035197, 1.2332003803185216, 1.3331878057042559, 1.6660246770379672, 2.0660038904316025, 2.549368510601198, 2.682605203323874, 2.7826811642553366, 3.232403239630912, 3.515684264282754, 3.7155837315294775, 3.8488415957954203, 4.1485780421580785, 4.315368423349355, 4.465174094242684, 4.565217014735936, 4.748590809240341, 4.898466410384572]",2017_Jan_30_1434,59.9867610837,famFaceGrey,001,7,
77,./greyInner/GeorgeClooney15_1_cut.png,0,174,174,76,,,1.ja,2.156,None,dummy,0.692,None,None,None,None,None,George Clooney,"['lshift', 'g', 'e', 'o', 'r', 'g', 'e', 'space', 'lshift', 'c', 'o', 'backspace', 'l', 'o', 'o', 'n', 'e', 'y', 'return']","[0.4667064648911037, 0.650058446291041, 0.8999888368225584, 1.0165859795624783, 1.2832582492037545, 1.3832601097328734, 1.4830637276290872, 1.6163382725053452, 1.9661489475820417, 2.099614677910722, 2.366040908555078, 2.7159821414825274, 2.9659032293666314, 3.1657077454492537, 3.2991118858326445, 3.48233619641087, 3.6487448482585023, 4.165483840338311, 4.698253540139376]",2017_Jan_30_1434,59.9867610837,famFaceGrey,001,7,
188,./greyInner/TaylorSwift3_1_cut.png,0,175,175,187,,,1.ja,1.578,None,None,None,music,1.028,None,None,None,Taylor swift,"['lshift', 't', 'a', 'y', 'l', 'o', 'r', 'space', 'w', 'backspace', 's', 'w', 'i', 'r', 'f', 'backspace', 'backspace', 'f', 't', 'return']","[0.6002248032973512, 0.7836649994615073, 0.9668841775437613, 1.1835033900133567, 1.3668114244219396, 1.533461303551121, 1.9498491046360868, 2.3331002325021473, 2.59957714653774, 2.9159800884845026, 2.9994771270348792, 3.1493912218929836, 3.4157975641173834, 3.6825243665216476, 4.198972089489871, 4.581934835272477, 4.7653936367323695, 4.791170953155415, 5.731701050108313, 5.848284078486358]",2017_Jan_30_1434,59.9867610837,famFaceGrey,001,7,
33,./greyInner/BritneySpears5_1_cut.png,0,176,176,32,,,1.ja,1.828,None,None,None,music,0.544,None,None,None,Britney Spaers,"['lshift', 'b', 'r', 'i', 't', 'n', 'e', 'y', 'space', 'lshift', 's', 'p', 'a', 'e', 'r', 's', 'return']","[0.7001044462804202, 0.8168414495194156, 1.1001211910470374, 1.4998995955593273, 1.866388955896582, 2.1496664519572732, 2.249622761590217, 2.499528451988226, 2.6660650954390803, 2.9326863609067004, 3.0825760764128063, 3.4158383033000064, 3.849100786811505, 4.165600283827189, 4.348430033823206, 4.532092851974085, 4.681994757155735]",2017_Jan_30_1434,59.9867610837,famFaceGrey,001,7,
2,./greyInner/AlysonHannigan(Lily)12_2_cut.png,0,177,177,1,,,1.ja,1.295,None,act,1.065,None,None,None,None,None,Amercian Pie,"['lshift', 'a', 'm', 'e', 'r', 'c', 'i', 'a', 'n', 'space', 'lshift', 'p', 'i', 'e', 'return']","[3.31565905089883, 3.582256257795052, 3.998819846846345, 4.132086692979101, 4.282160857536837, 4.4654480411827535, 4.565217977077737, 4.714664694077328, 4.764631461170211, 4.931260489536726, 5.097814775940606, 5.181128327781153, 5.364814562942229, 5.464936395550467, 5.631595577328881]",2017_Jan_30_1434,59.9867610837,famFaceGrey,001,7,
144,./greyInner/MariskaHargitay(Liv)6_5_cut.png,0,178,178,143,,,2.nein,1.697,None,None,None,host,1.079,None,None,None,,['return'],[0.6170690115332036],2017_Jan_30_1434,59.9867610837,famFaceGrey,001,7,
136,./greyInner/LisaEdelstein(DrLisaCuddy)1_1_cut.png,0,179,179,135,,,2.nein,2.263,None,None,None,None,None,sport,1.713,None,,['return'],[0.2841971750749508],2017_Jan_30_1434,59.9867610837,famFaceGrey,001,7,
8,./greyInner/AngelaMerkel4_1_cut.png,0,180,180,7,,,1.ja,1.792,None,None,None,None,None,polit,1.309,None,Angela Merkel,"['lshift', 'a', 'n', 'g', 'e', 'l', 'a', 'space', 'lshift', 'm', 'e', 'r', 'k', 'e', 'l', 'return']","[0.7167475248543269, 0.8169296642836343, 1.316401338041942, 1.5331838280208103, 1.6331905002643907, 1.8164568331485498, 1.9663840800258185, 2.099630075396817, 2.2329325282162245, 2.316204057750838, 2.5328027402392763, 2.7159840661688577, 2.8160722167767744, 2.8992632302906713, 3.0159527579471614, 3.265864222401433]",2017_Jan_30_1434,59.9867610837,famFaceGrey,001,7,
36,./greyInner/CarenMiosga1_1_cut.png,0,181,181,35,,,2.nein,2.342,None,None,None,host,0.677,None,None,None,,['return'],[0.483550031564846],2017_Jan_30_1434,59.9867610837,famFaceGrey,001,7,
211,./greyInner/notfamousface10_4_cut.png,0,182,182,210,,,1.ja,3.994,None,act,1.231,None,None,None,None,None,,['return'],[0.20064399985585624],2017_Jan_30_1434,59.9867610837,famFaceGrey,001,7,
166,./greyInner/RobertSeanLeonard(Wilson)1_1_cut.png,0,183,183,165,,,1.ja,2.568,None,None,None,None,None,sport,0.626,None,Roger Federer,"['lshift', 'r', 'o', 'g', 'e', 'r', 'space', 'lshift', 'f', 'e', 'd', 'e', 'backspace', 'e', 'r', 'e', 'r', 'return']","[2.549394814639527, 2.716090565446393, 3.0659544901636764, 3.3992048481550228, 3.5158100104190453, 3.632608282820911, 3.7991362651855525, 4.21565237865434, 4.282206729214522, 4.54882157906286, 4.731947730667343, 4.882102090465196, 5.581791766963761, 6.064916442975118, 6.231458860483144, 6.414849014817264, 6.548021230566519, 6.664533687133371]",2017_Jan_30_1434,59.9867610837,famFaceGrey,001,7,
221,./greyInner/notfamousface6_8_cut.png,0,184,184,220,,,2.nein,3.129,None,None,None,host,1.304,None,None,None,,['return'],[0.23365717240631056],2017_Jan_30_1434,59.9867610837,famFaceGrey,001,7,
82,./greyInner/HughLaurie(DrHouse)4_1_cut.png,0,185,185,81,,,1.ja,1.142,None,act,0.959,None,None,None,None,None,Dr house,"['lshift', 'd', 'r', 'space', 'h', 'o', 'u', 's', 'e', 'return']","[0.5999986527194778, 1.549761146497076, 1.7668034690532295, 1.9996339889239607, 2.6993554227383356, 2.832699577082167, 3.0491433223669446, 3.1492186417362973, 3.3491126557073585, 3.748837810579971]",2017_Jan_30_1434,59.9867610837,famFaceGrey,001,7,
92,./greyInner/JanHofer3_1_cut.png,0,186,186,91,,,2.nein,3.813,None,None,None,host,1.379,None,None,None,,['return'],[0.7335805057564357],2017_Jan_30_1434,59.9867610837,famFaceGrey,001,7,
69,./greyInner/EmmaWatson(HermioneGranger)4_1_cut.png,0,187,187,68,,,1.ja,1.223,None,dummy,1.759,None,None,None,None,None,Emma Stone,"['lshift', 'e', 'm', 'm', 'a', 'space', 'lshift', 's', 't', 'o', 'n', 'e', 'return']","[0.8500717907791113, 0.9499565662581517, 1.4829148852631988, 1.6164107690019591, 1.7497427336693363, 1.8330986285973268, 2.032871387364139, 2.182825900624266, 2.6324183804917993, 2.715930174966161, 2.882639077793101, 3.0659195250382254, 3.56568920430891]",2017_Jan_30_1434,59.9867610837,famFaceGrey,001,7,
107,./greyInner/JoachimLoew12_1_cut.png,0,188,188,106,,,2.nein,6.178,None,act,1.129,None,None,None,None,None,,['return'],[0.6671448441520624],2017_Jan_30_1434,59.9867610837,famFaceGrey,001,7,
206,./greyInner/WillSmith1_1_cut.png,0,189,189,205,,,1.ja,1.396,None,act,1.995,None,None,None,None,None,Will smith,"['lshift', 'w', 'i', 'l', 'l', 'space', 's', 'm', 'i', 't', 'h', 'return']","[0.7668785317982838, 0.8501272858848097, 1.2664063422243999, 1.4666330060508699, 1.5999563096329439, 1.7663797174045612, 1.9165151511260774, 1.999695258086831, 2.132902118180027, 2.24969333340141, 2.349594789490766, 2.6328142241973183]",2017_Jan_30_1434,59.9867610837,famFaceGrey,001,7,
93,./greyInner/JanHofer5_1_cut.png,0,190,190,92,,,2.nein,1.928,None,None,None,None,None,polit,0.961,None,,['return'],[0.6004339524833995],2017_Jan_30_1434,59.9867610837,famFaceGrey,001,7,
190,./greyInner/TaylorSwift8_1_cut.png,0,191,191,189,,,1.ja,1.512,None,None,None,music,0.979,None,None,None,Taylor swift,"['lshift', 't', 'a', 'y', 'l', 'o', 'r', 'space', 's', 'w', 'i', 'f', 't', 'pound', 'return']","[0.6503269399554483, 0.766968350467323, 1.1668449139542645, 1.366701717332944, 1.4834380790098294, 1.6332905839244631, 1.7332093621853346, 1.866527212490837, 2.133111267366985, 2.3330120177379285, 2.5004959273655913, 2.915830283775904, 3.0660744622427956, 3.6824444920630413, 4.432231493505242]",2017_Jan_30_1434,59.9867610837,famFaceGrey,001,7,
80,./greyInner/GeorgeClooney4_2_cut.png,0,192,192,79,,,1.ja,1.364,None,act,3.033,None,None,None,None,None,George Clooney,"['lshift', 'g', 'e', 'o', 'r', 'h', 'e', 'backspace', 'backspace', 'g', 'e', 'space', 'lshift', 'c', 'l', 'o', 'o', 'n', 'e', 'y', 'return']","[0.49996856346569984, 0.6834010608863537, 1.5497720530493098, 1.7497010321449125, 1.99963270580065, 2.1661302139737018, 2.316213039617651, 2.699294153574556, 2.8494096988761157, 3.4991030964347374, 3.6988614200590746, 3.7988639221503036, 4.048494703264623, 4.182046723671192, 4.665153756729524, 5.448258993415038, 5.59816635187326, 5.84804445510872, 6.097938918172986, 6.381061477029107, 6.5476093478137045]",2017_Jan_30_1434,59.9867610837,famFaceGrey,001,7,
210,./greyInner/WillSmith6_1_cut.png,0,193,193,209,,,1.ja,1.229,None,act,0.712,None,None,None,None,None,Will smith,"['lshift', 'w', 'i', 'l', 'l', 'space', 's', 'm', 'i', 't', 'h', 'return']","[0.6835611305868952, 0.8170040854665785, 1.433315091589975, 1.6832098754348408, 1.8499450823001098, 1.983231496071312, 2.133075339899733, 2.2330618029436664, 2.38275937065373, 2.5995819582531112, 2.716260579356458, 3.0327802855726986]",2017_Jan_30_1434,59.9867610837,famFaceGrey,001,7,
79,./greyInner/GeorgeClooney3_1_cut.png,0,194,194,78,,,1.ja,1.246,None,dummy,0.579,None,None,None,None,None,george clooney,"['g', 'e', 'o', 'r', 'g', 'e', 'space', 'c', 'l', 'o', 'o', 'n', 'm', 'backspace', 'n', 'backspace', 'e', 'y', 'return']","[0.5671256614505182, 0.6500231603858992, 0.883501337015332, 1.0499815230168679, 1.150142170122308, 1.3002291659186085, 1.416698637835907, 2.016539466323593, 2.3829845588879834, 2.549761146497076, 2.682862790435138, 2.899494513362697, 2.92817746372657, 3.415999014560839, 3.665864286557735, 4.065430013293735, 4.232388483706927, 4.548999291715518, 4.682320029050061]",2017_Jan_30_1434,59.9867610837,famFaceGrey,001,7,
175,./greyInner/SahraWagenknecht9_1_cut.png,0,195,195,174,,,1.ja,1.24,None,None,None,None,None,polit,0.724,None,sara wagenknecht,"['s', 'a', 'r', 'a', 'space', 'w', 'a', 'g', 'e', 'n', 'k', 'n', 'e', 'c', 'h', 't', 'return']","[0.4335649799577368, 0.666893672659171, 0.7167199376908684, 0.8667767800770889, 0.9999541283223152, 1.1001888758291898, 1.2998445495459237, 1.4498969009991924, 1.5664873073383205, 1.6664128219999839, 1.9497316988044986, 2.1324523832736304, 2.2828976914033774, 2.466001709120974, 2.5994427393152364, 2.7159292126234504, 2.882716065223576]",2017_Jan_30_1434,59.9867610837,famFaceGrey,001,7,
45,./greyInner/CobieSmulders(Robin)5_1_cut.png,0,196,196,44,,,1.ja,1.929,None,act,1.113,None,None,None,None,None,Himym,"['lshift', 'h', 'i', 'm', 'y', 'm', 'return']","[0.6169012430900693, 0.8666115778833046, 1.0668414495194156, 1.3166441692283115, 1.6997971381206298, 2.166287396644293, 2.899373578939958]",2017_Jan_30_1434,59.9867610837,famFaceGrey,001,7,
122,./greyInner/KaleyCuoco(Penny)14_2_cut.png,0,197,197,121,,,1.ja,1.06,None,act,1.526,None,None,None,None,None,penny,"['p', 'e', 'n', 'n', 'y', 'return']","[0.5834659227966768, 0.7667579181570545, 1.8164106406893552, 1.9663353213200025, 2.0995543710896527, 2.2828835770415026]",2017_Jan_30_1434,59.9867610837,famFaceGrey,001,7,
143,./greyInner/MariskaHargitay(Liv)4_4_cut.png,0,198,198,142,,,2.nein,3.093,None,act,0.412,None,None,None,None,None,,['return'],[0.617283613994914],2017_Jan_30_1434,59.9867610837,famFaceGrey,001,7,
57,./greyInner/ElvisPresley2_1_cut.png,0,199,199,56,,,1.ja,1.679,None,None,None,music,0.6,None,None,None,Elvis Presley,"['lshift', 'e', 'l', 'v', 'i', 's', 'space', 'lshift', 'p', 'r', 'e', 's', 'l', 'e', 'y', 'return']","[0.6329778224871916, 0.7334367958856092, 1.3500477322068036, 1.7659386435843771, 1.8495030461363058, 2.199328477136987, 2.349604412919689, 2.5161593408847693, 2.68271619353618, 2.932702720735506, 3.0994100196576255, 3.299299863475426, 3.965575070443265, 4.098960926312429, 4.3822150053638325, 4.515512004906668]",2017_Jan_30_1434,59.9867610837,famFaceGrey,001,7,
1,./greyInner/AlysonHannigan(Lily)1_1_cut.png,0,200,200,0,,,1.ja,1.294,None,act,0.813,None,None,None,None,None,american pie,"['a', 'm', 'e', 'r', 'i', 'c', 'n', 'backspace', 'a', 'n', 'space', 'p', 'i', 'e', 'return']","[0.3835706257032143, 0.5499767113024063, 0.7167125597297854, 0.849911400298879, 0.9831849828324266, 1.116604199921312, 1.4664934663333042, 1.7330050247137478, 1.8662673799126424, 1.9826646761139273, 2.149491626334566, 2.6993252693282557, 2.8825303330477254, 3.049096167565949, 3.182350824022251]",2017_Jan_30_1434,59.9867610837,famFaceGrey,001,7,
192,./greyInner/TomCruise4_1_cut.png,0,201,201,191,,,1.ja,1.859,None,act,0.641,None,None,None,None,None,tom cruise,"['t', 'o', 'm', 'space', 'c', 'r', 'u', 'i', 's', 'e', 'return']","[0.3836258000274029, 0.9000282928800516, 1.0665909195886343, 1.2999353305576733, 1.5164618373300982, 1.7497956625275037, 1.8994999666383592, 2.1161416337754417, 2.1995716291048666, 2.3827125366324253, 2.615959109409232]",2017_Jan_30_1434,59.9867610837,famFaceGrey,001,7,
217,./greyInner/notfamousface2_cut.png,0,202,202,216,,,2.nein,4.928,None,None,None,None,None,sport,0.929,None,,['return'],[0.3837781709835326],2017_Jan_30_1434,59.9867610837,famFaceGrey,001,7,
21,./greyInner/BenedictCumberbatch16_1_cut.png,0,203,203,20,,,1.ja,1.777,None,dummy,0.577,None,None,None,None,None,,['return'],[0.34986713252601476],2017_Jan_30_1434,59.9867610837,famFaceGrey,001,7,
15,./greyInner/BarackObama5_2_cut.png,0,204,204,14,,,1.ja,0.978,None,None,None,None,None,polit,1.178,None,Barrack Obama,"['lshift', 'b', 'a', 'r', 'r', 'a', 'c', 'k', 'space', 'lshift', 'o', 'b', 'a', 'm', 'a', 'return']","[0.6165939349302789, 0.7166727828898729, 0.883424028803347, 0.9999477127030332, 1.1333133593725506, 1.2999709372452344, 1.4997988703380543, 1.616449262716742, 1.7830677053125328, 1.8994691716661691, 1.9828972423101732, 2.2161412488385395, 2.5660475166423566, 2.6993592721091773, 2.865841703577644, 2.965839073173811]",2017_Jan_30_1434,59.9867610837,famFaceGrey,001,7,
200,./greyInner/UrsulavonderLeyen8_2_cut.png,0,205,205,199,,,1.ja,2.692,None,None,None,None,None,polit,0.709,None,Ursula von der Leyen,"['lshift', 'u', 'r', 'd', 'u', 'backspace', 's', 'backspace', 'backspace', 's', 'u', 'l', 'a', 'space', 'v', 'o', 'n', 'space', 'd', 'e', 'r', 'space', 'lshift', 'l', 'e', 'y', 'e', 'n', 'return']","[0.41686191534427053, 0.6500391994331949, 0.866760420249193, 1.0666069586368394, 1.1666258205577833, 1.4665589056494355, 1.683019331543619, 2.1494775119717815, 2.2994124575925525, 2.416161008945892, 3.2325257779575622, 3.448927180155806, 3.5823120736822602, 3.6824082438142796, 3.8155102085329418, 3.9156076617891813, 4.082173817088005, 4.215413717620322, 4.398698014237198, 4.5815957697977865, 4.71525204401587, 4.865220671638781, 5.098403088222767, 5.281691875773504, 5.481480032026411, 5.764753678716261, 6.081284933046845, 6.197981197103218, 6.414609391439626]",2017_Jan_30_1434,59.9867610837,famFaceGrey,001,7,
49,./greyInner/CristinMilioti(Tracy_Mutter)8_1_cut.png,0,206,206,48,,,2.nein,1.753,None,None,None,music,0.871,None,None,None,,['return'],[0.36736926251160185],2017_Jan_30_1434,59.9867610837,famFaceGrey,001,7,
220,./greyInner/notfamousface5_1_cut.png,0,207,207,219,,,2.nein,1.72,None,None,None,None,None,polit,0.599,None,,['return'],[0.15037056616529298],2017_Jan_30_1434,59.9867610837,famFaceGrey,001,7,
137,./greyInner/LisaEdelstein(DrLisaCuddy)10_1_cut.png,0,208,208,136,,,2.nein,2.129,None,None,None,host,0.561,None,None,None,,['return'],[0.38357415429254615],2017_Jan_30_1434,59.9867610837,famFaceGrey,001,7,
163,./greyInner/OmarEpps(DrEricForeman)3_1_cut.png,0,209,209,162,,,1.ja,3.174,None,None,None,music,0.691,None,None,None,,['return'],[0.21732910073569656],2017_Jan_30_1434,59.9867610837,famFaceGrey,001,7,
99,./greyInner/JasonSegel(Marshall)7_1_cut.png,0,210,210,98,,,1.ja,1.227,None,act,0.478,None,None,None,None,None,Himym,"['lshift', 'i', 'backspace', 'lshift', 'h', 'i', 'm', 'y', 'm', 'return']","[0.9165831566897396, 1.1165564035582065, 1.6495743878213034, 1.8164196225561682, 2.14962603355616, 2.332978977298808, 2.5993699220371127, 3.2825708156051405, 3.7823145116171872, 4.415458177861183]",2017_Jan_30_1434,59.9867610837,famFaceGrey,001,7,
139,./greyInner/LisaEdelstein(DrLisaCuddy)6_3_cut.png,0,211,211,138,,,2.nein,2.892,None,None,None,host,0.692,None,None,None,,['return'],[0.21693454015439784],2017_Jan_30_1434,59.9867610837,famFaceGrey,001,7,
59,./greyInner/ElvisPresley5_2_cut.png,0,212,212,58,,,1.ja,1.112,None,None,None,music,1.314,None,None,None,Elvis Presley,"['lshift', 'e', 'l', 'v', 'i', 's', 'space', 'lshift', 'p', 'r', 'e', 's', 'l', 'e', 'y', 'return']","[0.5499709372452344, 0.7335262937740481, 1.4498827866373176, 1.8329587680991608, 1.9497435677003523, 2.1996284073356946, 2.3995512915926156, 2.998945913764146, 3.0991453753649694, 3.4322610053532117, 3.632266009536579, 4.215202322967343, 4.665226574008557, 4.815095117970486, 5.1151263620358804, 5.215015628448782]",2017_Jan_30_1434,59.9867610837,famFaceGrey,001,7,
88,./greyInner/Ice-T(OdafinFinTutuola)5_1_cut.png,0,213,213,87,,,2.nein,3.028,None,None,None,music,0.479,None,None,None,,['return'],[0.5002591910160845],2017_Jan_30_1434,59.9867610837,famFaceGrey,001,7,
123,./greyInner/KaleyCuoco(Penny)3_1_cut.png,0,214,214,122,,,1.ja,0.98,None,act,0.629,None,None,None,None,None,Penny,"['lshift', 'p', 'e', 'n', 'n', 'y', 'return']","[0.5503635731402028, 0.6669190143547894, 0.9334802937837594, 1.066814183137467, 1.183534505766147, 1.4333766815334457, 1.5333240092995766]",2017_Jan_30_1434,59.9867610837,famFaceGrey,001,7,
213,./greyInner/notfamousface12_2_cut.png,0,215,215,212,,,2.nein,4.465,None,act,0.719,None,None,None,None,None,,['return'],[0.4835779395079953],2017_Jan_30_1434,59.9867610837,famFaceGrey,001,7,
108,./greyInner/JoachimLoew15_1_cut.png,0,216,216,107,,,1.ja,1.111,None,None,None,None,None,sport,0.896,None,Jogi Löw,"['lshift', 'j', 'o', 'g', 'i', 'space', 'lshift', 'l', u'\xf6', 'w', 'delete', 'return']","[0.9168218177246672, 1.0167473323863305, 1.1500356708429536, 1.3332442631535741, 1.4165446629749567, 1.5831326313791578, 1.849740103266413, 1.932921172569877, 2.116316459399968, 2.232909752768137, 2.3661737118727615, 3.282522377679925]",2017_Jan_30_1434,59.9867610837,famFaceGrey,001,7,
16,./greyInner/BastianSchweinsteiger1_1_cut.png,0,217,217,15,,,1.ja,1.392,None,None,None,None,None,sport,0.891,None,Bastian Schweinsteiger,"['lshift', 'b', 'a', 's', 't', 'i', 'a', 'n', 'space', 'lshift', 's', 'c', 'h', 'w', 'e', 'i', 'n', 's', 't', 'e', 'i', 'g', 'e', 'r', 'return']","[0.6666027243290955, 0.900027651318851, 1.0998494895738986, 2.149481682124133, 2.382724726309789, 2.44945967654985, 2.6326265673360467, 2.7492750350293136, 2.915791469279611, 3.2323005897242183, 3.3988734814229247, 3.6488179863172263, 3.832123775257969, 3.9820882327276195, 4.131764628895326, 4.198676008663824, 4.331947024948931, 4.498572845506715, 4.715122448508737, 4.9150507860422294, 5.015217848766042, 5.198297807911331, 5.331639716789141, 5.4481521733550835, 5.631407599686099]",2017_Jan_30_1434,59.9867610837,famFaceGrey,001,7,
214,./greyInner/notfamousface1_2_cut.png,0,218,218,213,,,2.nein,4.704,None,None,None,host,1.173,None,None,None,,['return'],[0.6335414346349353],2017_Jan_30_1434,59.9867610837,famFaceGrey,001,7,
193,./greyInner/TomCruise5_1_cut.png,0,219,219,192,,,1.ja,1.262,None,act,1.611,None,None,None,None,None,Tom Cruise,"['lshift', 't', 'o', 'm', 'space', 'lshift', 'v', 'backspace', 'lshift', 'c', 'r', 'u', 'i', 's', 'e', 'return']","[0.550182011117613, 0.7332844249294794, 1.1832438782166719, 1.366423279459923, 1.5164878205887362, 1.616185901548306, 1.783132503066554, 2.09963905726363, 2.5494377992890804, 2.715987594759099, 3.0160496337966833, 3.1325046705705972, 3.299083657108895, 3.432422678957664, 3.5821827989557278, 3.765667583672439]",2017_Jan_30_1434,59.9867610837,famFaceGrey,001,7,
172,./greyInner/SahraWagenknecht2_2_cut.png,0,220,220,171,,,1.ja,1.943,None,None,None,None,None,polit,0.757,None,Sara Wagenknecht,"['lshift', 's', 'a', 'r', 'a', 'space', 'lshift', 'w', 'a', 'g', 'e', 'n', 'k', 'n', 'e', 'c', 'h', 't', 'return']","[0.8668082166122986, 1.0501354978778181, 1.2502059413773168, 1.366800197088196, 1.5000144351433846, 1.6332363719420755, 1.9332458029020927, 2.066543123226438, 2.216373815035695, 2.815852802599693, 2.999415537090499, 3.915126811129994, 4.182245928648626, 4.51557872734702, 5.198485143992912, 5.4151483034538614, 5.565152858544025, 5.681745510350083, 5.848359141231413]",2017_Jan_30_1434,59.9867610837,famFaceGrey,001,7,
218,./greyInner/notfamousface3_3_cut.png,0,221,221,217,,,2.nein,1.644,None,None,None,None,None,sport,0.447,None,,['return'],[0.4502606666083011],2017_Jan_30_1434,59.9867610837,famFaceGrey,001,7,
185,./greyInner/SigmarGabriel8_2_cut.png,0,222,222,184,,,1.ja,1.397,None,None,None,None,None,polit,0.565,None,Sigmar Gabriel,"['lshift', 's', 'i', 'g', 'm', 'a', 'r', 'space', 'lshift', 'g', 'a', 'b', 'r', 'i', 'e', 'l', 'return']","[0.716652252908716, 0.8334976801115772, 1.200171489501372, 1.4354640032433963, 1.6999796624868395, 1.8331740121229814, 2.0663929977363296, 2.199781419853025, 2.366179485929024, 2.4496816569744624, 2.5995473139082605, 2.732813197698306, 2.8493946221715305, 2.9493300810418077, 3.0826222688710914, 3.1660554720092478, 3.3992189625168976]",2017_Jan_30_1434,59.9867610837,famFaceGrey,001,7,
94,./greyInner/JanHofer7_1_cut.png,0,223,223,93,,,2.nein,2.224,None,None,None,None,None,polit,1.676,None,,['return'],[0.9332733900637322],2017_Jan_30_1434,59.9867610837,famFaceGrey,001,7,
