num,pic,trials.thisRepN,trials.thisTrialN,trials.thisN,trials.thisIndex,key_resp_2.keys,key_resp_2.rt,ratingBekannt.response,ratingBekannt.rt,key_resp_5.keys,ratingK1.response,ratingK1.rt,ratingK2.response,ratingK2.rt,ratingK3.response,ratingK3.rt,key_resp_6.keys,inputText,key_resp_4.keys,key_resp_4.rt,key_resp_5.rt,key_resp_6.rt,date,frameRate,expName,session,participant,
,,,,,,space,58.2204195045,,,,,,,,,,,,,,,,2017_Feb_01_1624,59.8540796268,famFaceGrey,001,8,
210,./greyInner/WillSmith6_1_cut.png,0,0,0,209,,,1.ja,6.732,None,act,3.335,None,None,None,None,None,Will Smith,"['lshift', 'w', 'i', 'l', 'l', 'space', 'lshift', 's', 'm', 'i', 't', 'h', 'return']","[3.7092014735389967, 3.9765146635381825, 4.895474807146456, 5.129418436948981, 5.262912396001411, 5.496803096946678, 5.680472972278949, 5.998078201264434, 6.332272296842348, 6.499366778383774, 6.716416158122229, 6.833290455611859, 9.155615334868344]",,,2017_Feb_01_1624,59.8540796268,famFaceGrey,001,8,
115,./greyInner/JoshRadnor(Ted)9_1_cut.png,0,1,1,114,,,1.ja,7.43,None,act,3.454,None,None,None,None,None,Ted Mosby,"['lshift', 't', 'e', 'd', 'space', 'lshift', 'm', 'o', 's', 'b', 'y', 'return']","[5.664368164158077, 6.616592972586659, 7.184576081544947, 7.43489301313457, 7.618934994379742, 7.836164973798077, 8.070027446019594, 8.604672752095212, 8.955511209369433, 9.339759324460829, 9.523288376951314, 10.442441951478031]",,,2017_Feb_01_1624,59.8540796268,famFaceGrey,001,8,
77,./greyInner/GeorgeClooney15_1_cut.png,0,2,2,76,,,1.ja,16.832,None,dummy,4.969,None,None,None,None,None,George Clooney,"['lshift', 'g', 'e', 'o', 'r', 'g', 'e', 'space', 'lshift', 'c', 'o', 'l', 'backspace', 'backspace', 'l', 'o', 'o', 'n', 'e', 'y', 'return']","[1.1866377407786786, 1.5375413165875216, 1.872499512412105, 2.506539119880472, 2.990919974132339, 3.1078276328426, 3.2415913686818385, 3.475267467165395, 3.759303930977694, 4.394566676246541, 4.594879309372118, 4.928653502671295, 5.29652478738717, 5.446979718944931, 5.714169729055357, 5.964720189183936, 6.131772648419428, 7.00064412816937, 7.134215074651365, 7.401511584041145, 7.952839424749982]",,,2017_Feb_01_1624,59.8540796268,famFaceGrey,001,8,
30,./greyInner/Beyonce8_3_cut.png,0,3,3,29,,,1.ja,3.637,None,None,None,music,1.8,None,None,None,Beyonce,"['lshift', 'b', 'e', 'y', 'o', 'n', 'c', 'lshift', 'e', 'backspace', 'e', 'return']","[1.0698041824707616, 1.370083710999097, 1.70464381765305, 2.0552423307690333, 2.757246121116623, 3.0410538681062462, 3.6258975451273727, 4.39429272930829, 6.7500715341539035, 8.019705895185325, 10.742839527400065, 13.282346268932088]",,,2017_Feb_01_1624,59.8540796268,famFaceGrey,001,8,
20,./greyInner/BastianSchweinsteiger6_2_cut.png,0,4,4,19,,,1.ja,2.968,None,None,None,None,None,sport,3.503,None,Bastian Schweinsteiger,"['lshift', 'b', 'a', 's', 't', 'i', 'a', 'n', 'space', 'lshift', 's', 'c', 'w', 'e', 'backspace', 'backspace', 'h', 'w', 'e', 'i', 'n', 's', 't', 'e', 'i', 'g', 'e', 'r', 'return']","[1.3035466826113407, 1.4205098364272999, 1.6209324974206538, 2.171627437293864, 2.673406167719804, 2.8405288779849798, 3.00751365243741, 3.124371269317635, 3.30808380851704, 3.3582837833673693, 3.492152735363561, 3.5590150356456434, 3.893048099180305, 3.9766182757903152, 4.394250065439337, 4.544568985869773, 5.1794358874340105, 5.380018618126996, 5.496838703635149, 5.5634767780247785, 5.764175631426042, 5.8311008047749056, 5.9812942998505605, 6.0817452537248755, 6.21531491708447, 6.315437391254818, 6.415647438629094, 6.566061310222722, 8.06964443355173]",,,2017_Feb_01_1624,59.8540796268,famFaceGrey,001,8,
76,./greyInner/GeorgeClooney11_1_cut.png,0,5,5,75,,,1.ja,1.749,None,act,0.964,None,None,None,None,None,George Clooney,"['lshift', 'g', 'e', 'o', 'r', 'g', 'e', 'space', 'lshift', 'c', 'o', 'backspace', 'l', 'o', 'o', 'n', 'e', 'y', 'return']","[1.1195508938235434, 1.2534580187548272, 1.437200069802202, 1.554123767558849, 1.7879426135696121, 1.9885494028349058, 2.072043554355332, 2.255512300025657, 2.573234614061221, 2.7404083285000524, 2.940860180560776, 3.609081565617089, 4.026771095839649, 4.293906252405577, 4.4609927144229005, 4.82860095875003, 4.912116602596143, 5.17928095022944, 7.534667439962504]",,,2017_Feb_01_1624,59.8540796268,famFaceGrey,001,8,
13,./greyInner/BarackObama2_1_cut.png,0,6,6,12,,,1.ja,2.032,None,None,None,None,None,polit,0.949,None,Barack Obama,"['lshift', 'b', 'a', 'a', 'c', 'k', 'backspace', 'backspace', 'backspace', 'e', 'backspace', 'r', 'a', 'c', 'k', 'space', 'lshift', 'o', 'b', 'a', 'm', 'a', 'return']","[0.83593080369792, 1.1534539127587777, 1.3201355492037692, 2.456130958185895, 2.673660547021427, 2.7906650815821195, 3.1749119135492947, 3.308543166853269, 3.4755757376678957, 3.97684795495843, 4.310827448072814, 4.427867589318339, 4.544832667819719, 4.76186793319539, 4.995779805683924, 5.614161452907865, 5.797739905665367, 6.215185642358847, 6.349185152204882, 6.917070102188518, 7.050736320617943, 7.167669000242313, 7.952888825018817]",,,2017_Feb_01_1624,59.8540796268,famFaceGrey,001,8,
15,./greyInner/BarackObama5_2_cut.png,0,7,7,14,,,1.ja,3.018,None,None,None,None,None,polit,0.862,None,Barack Obama,"['lshift', 'b', 'a', 'r', 'a', 'a', 'backspace', 'c', 'k', 'space', 'lshift', 'o', 'b', 'a', 'm', 'a', 'return']","[0.635248310125462, 0.9192032955743343, 1.2198145116162777, 1.4203994877771038, 1.5204703162125952, 1.7559427880732983, 2.255699636105419, 2.4229028623922204, 2.823768072797975, 3.0910915277891036, 3.224819015382309, 3.3750394560574932, 3.709221041177443, 3.8093935571778275, 3.943107571969449, 4.076748769482947, 4.895378893637826]",,,2017_Feb_01_1624,59.8540796268,famFaceGrey,001,8,
9,./greyInner/AngelaMerkel5_1_cut.png,0,8,8,8,,,1.ja,1.9,None,None,None,None,None,polit,1.298,None,Angela Merkel,"['lshift', 'a', 'n', 'g', 'e', 'l', 'a', 'space', 'lshift', 'm', 'e', 'r', 'k', 'e', 'l', 'return']","[0.66833590385977, 1.1697373958759272, 1.3869012944160204, 1.5706564974825596, 1.6207621627308981, 1.7377859441494365, 1.9048335916704673, 2.021586313176158, 2.3224076407459506, 2.506204224557223, 2.8403983201351366, 2.9407174330353882, 3.1074314683573903, 3.224667606769799, 3.358320352397641, 13.048233266783427]",,,2017_Feb_01_1624,59.8540796268,famFaceGrey,001,8,
126,./greyInner/KatjaBurkard1_1_cut.png,0,9,9,125,,,2.nein,15.882,None,None,None,host,5.206,None,None,None,,['return'],[2.8905934832710045],,,2017_Feb_01_1624,59.8540796268,famFaceGrey,001,8,
14,./greyInner/BarackObama4_1_cut.png,0,10,10,13,,,1.ja,1.316,None,None,None,None,None,polit,1.634,None,Barack Obama,"['lshift', 'b', 'a', 'r', 'a', 'c', 'k', 'space', 'lshift', 'o', 'b', 'a', 'm', 'a', 'return']","[0.7859014843179466, 1.003186317280779, 1.2538144064019434, 1.4376087447471946, 1.5043315053098922, 1.988857994119826, 2.222678764814191, 2.423248022707412, 2.606906670705939, 2.9578711948979617, 3.258671992487507, 3.8600172836795537, 4.027175600631381, 4.177500615900499, 5.647658683927148]",,,2017_Feb_01_1624,59.8540796268,famFaceGrey,001,8,
124,./greyInner/KaleyCuoco(Penny)5_2_cut.png,0,11,11,123,,,1.ja,7.717,None,dummy,2.808,None,None,None,None,None,Penny,"['lshift', 'k', 'a', 'i', 'l', 'e', 'y', 'space', 'backspace', 'backspace', 'backspace', 'backspace', 'backspace', 'backspace', 'backspace', 'lshift', 'p', 'e', 'n', 'n', 'y', 'lshift', '7', 'space', 'backspace', 'return']","[25.74505804852197, 26.02909932405055, 26.363209054234176, 26.463525600885987, 26.680789903868572, 27.649680245538548, 27.883509677320035, 28.033901735809195, 37.70709041403825, 38.84283304762357, 39.461311249915525, 39.628293458121334, 39.795342709547185, 39.94567766902583, 40.09613773307865, 40.4299648552369, 40.73095330968863, 41.064995996654034, 41.41571672731516, 41.58286606240108, 41.71660189029717, 43.22019014612124, 43.38701196384682, 44.556594422516355, 46.878907432879714, 47.98141876286354]",,,2017_Feb_01_1624,59.8540796268,famFaceGrey,001,8,
80,./greyInner/GeorgeClooney4_2_cut.png,0,12,12,79,,,1.ja,1.835,None,act,1.522,None,None,None,None,None,George Clooney,"['lshift', 'g', 'e', 'o', 'r', 'g', 'e', 'space', 'lshift', 'c', 'l', 'o', 'o', 'n', 'e', 'y', 'return']","[1.1364473893554532, 1.5038237090484472, 1.6543453630456497, 1.838121737657275, 2.072134335367082, 2.1887491210600274, 2.289227020533872, 2.523109701955036, 2.8237504298467684, 3.0075550331803242, 3.341643271041903, 3.5588838362309616, 3.7090866339549393, 4.260646399297912, 4.494395315057773, 4.661501986274743, 4.962249213444011]",,,2017_Feb_01_1624,59.8540796268,famFaceGrey,001,8,
102,./greyInner/JimParsons(SheldonCooper)10_1_cut.png,0,13,13,101,,,1.ja,3.17,None,act,2.769,None,None,None,None,None,Sheldon Cooper,"['lshift', 's', 'h', 'e', 'l', 'd', 'o', 'n', 'space', 'lshift', 'c', 'o', 'o', 'p', 'e', 'r', 'return']","[11.327846802712884, 11.52836890580329, 11.762304836864132, 11.962844582907564, 12.59755494336423, 12.747913961415179, 12.88168796224636, 13.082151683202028, 13.282674107074854, 13.466376702064736, 13.716954749355864, 14.08452097137706, 14.218160885766338, 14.40198633986438, 14.552233405360312, 14.686025049144519, 17.96065300738701]",,,2017_Feb_01_1624,59.8540796268,famFaceGrey,001,8,
36,./greyInner/CarenMiosga1_1_cut.png,0,14,14,35,,,2.nein,10.837,None,None,None,host,1.18,None,None,None,,['return'],[1.4372196374406485],,,2017_Feb_01_1624,59.8540796268,famFaceGrey,001,8,
62,./greyInner/EmilyDeschanel3_1_cut.png,0,15,15,61,,,1.ja,6.387,None,act,1.906,None,None,None,None,None,,['return'],[1.5208385727564746],,,2017_Feb_01_1624,59.8540796268,famFaceGrey,001,8,
50,./greyInner/CristinMilioti(Tracy_Mutter)9_1_cut.png,0,16,16,49,,,1.ja,6.318,None,dummy,0.938,None,None,None,None,None,Lilly,"['lshift', 'l', 'i', 'l', 'l', 'y', 'return']","[1.1862495958157524, 1.386977319503785, 1.6538953073595621, 2.021864109487069, 2.372339121933692, 2.9573929104844865, 3.9931962358277815]",,,2017_Feb_01_1624,59.8540796268,famFaceGrey,001,8,
39,./greyInner/CarenMiosga6_2_cut.png,0,17,17,38,,,1.ja,8.567,None,act,15.049,None,None,None,None,None,Robin,"['lshift', 'r', 'o', 'b', 'i', 'n', 'return']","[0.8858975707898935, 1.08638984125173, 1.3537197118621407, 1.6043166852286959, 1.6877710599110287, 1.8713591360992723, 2.639855366280244]",,,2017_Feb_01_1624,59.8540796268,famFaceGrey,001,8,
133,./greyInner/LeonardoDiCaprio3_1_cut.png,0,18,18,132,,,1.ja,1.531,None,act,0.917,None,None,None,None,None,Leonardo diCaprio,"['lshift', 'l', 'e', 'o', 'n', 'a', 'r', 'd', 'o', 'space', 'd', 'i', 'lshift', 'c', 'a', 'p', 'r', 'i', 'o', 'return']","[1.2867098523383902, 1.5040267633976327, 1.8548963364246447, 1.971792767801162, 2.4226603519855416, 2.5397672156723274, 2.6565491282453877, 2.857258567417375, 3.074402898320841, 3.558804924115975, 4.343975990186664, 4.477748066332424, 4.828469117775967, 4.9786039099344634, 5.4132386943947495, 6.16505335228976, 6.282044093268269, 6.4992776012768445, 6.733207758279605, 7.618322623526183]",,,2017_Feb_01_1624,59.8540796268,famFaceGrey,001,8,
59,./greyInner/ElvisPresley5_2_cut.png,0,19,19,58,,,1.ja,1.57,None,None,None,music,0.801,None,None,None,Elvis Presley,"['lshift', 'e', 'l', 'v', 'i', 's', 'space', 'lshift', 'p', 'r', 'e', 's', 'l', 'e', 'y', 'return']","[0.7356007842445251, 1.0026262337232765, 1.5039552292419103, 1.8549181495291123, 2.0051851034440915, 2.0887135785287683, 2.2557025231344596, 2.506204224555404, 2.6733683155653125, 2.8738432638547238, 2.9573239425772044, 3.208131348254028, 3.37506158994438, 3.709246382872152, 3.9428791759255546, 4.5444939231238095]",,,2017_Feb_01_1624,59.8540796268,famFaceGrey,001,8,
74,./greyInner/GuentherJauch7_1_cut.png,0,20,20,73,,,1.ja,1.449,None,None,None,host,2.165,None,None,None,Günther Jauch,"['lshift', 'g', u'\xfc', 'n', 't', 'h', 'e', 'r', 'space', 'lshift', 'j', 'a', 'c', 'u', 'h', 'backspace', 'backspace', 'backspace', 'u', 'c', 'h', 'return']","[30.456584221681624, 30.840629603206253, 31.70972851665647, 32.17741400504019, 32.34459958837397, 32.57843928514558, 32.76230194983509, 32.862497882844764, 33.113141369451114, 33.29685775802318, 33.48050357478314, 33.59748469233273, 33.76451309299591, 33.792794425597094, 33.99844549546469, 34.4997485077256, 34.70025970426468, 34.86741545496989, 35.418528693215194, 35.585731277938976, 35.68582199479533, 36.437791589893095]",,,2017_Feb_01_1624,59.8540796268,famFaceGrey,001,8,
56,./greyInner/ElvisPresley1_1_cut.png,0,21,21,55,,,1.ja,1.644,None,None,None,music,0.877,None,None,None,Elvis Presley,"['lshift', 'e', 'l', 'v', 'i', 's', 'space', 'lshift', 'p', 'r', 'e', 's', 'l', 'e', 'y', 'return']","[0.5014717430476594, 0.7188175243918522, 1.0026089115526702, 1.3703217304719146, 1.5038984510138107, 1.6041976754931966, 1.7712825336056994, 1.9049452234430646, 2.088773885350747, 2.2557641130788397, 2.3726534872748744, 2.9907987189289997, 3.208020999605651, 3.475056393292107, 3.7091937747973134, 3.8762818407176383]",,,2017_Feb_01_1624,59.8540796268,famFaceGrey,001,8,
94,./greyInner/JanHofer7_1_cut.png,0,22,22,93,,,1.ja,5.071,None,act,2.194,None,None,None,None,None,,['return'],[1.5707950748565054],,,2017_Feb_01_1624,59.8540796268,famFaceGrey,001,8,
86,./greyInner/Ice-T(OdafinFinTutuola)10_1_cut.png,0,23,23,85,,,1.ja,3.121,None,None,None,music,1.232,None,None,None,,['return'],[1.6215769463706238],,,2017_Feb_01_1624,59.8540796268,famFaceGrey,001,8,
179,./greyInner/Shakira7_1_cut.png,0,24,24,178,,,1.ja,3.203,None,None,None,music,0.982,None,None,None,Shakira,"['lshift', 's', 'h', 'a', 'k', 'i', 'r', 'a', 'return']","[0.9525879324773996, 1.1029543284894316, 1.286760535729627, 1.3872503041002346, 1.6374671520297852, 1.838081640036762, 1.905069686456045, 2.4227164886542596, 3.0909888778824097]",,,2017_Feb_01_1624,59.8540796268,famFaceGrey,001,8,
211,./greyInner/notfamousface10_4_cut.png,0,25,25,210,,,2.nein,4.961,None,None,None,None,None,sport,7.583,None,,['return'],[1.28695460821109],,,2017_Feb_01_1624,59.8540796268,famFaceGrey,001,8,
19,./greyInner/BastianSchweinsteiger3_1_cut.png,0,26,26,18,,,1.ja,5.91,None,None,None,None,None,sport,1.649,None,Bastian Schweinsteiger,"['lshift', 'b', 'a', 's', 't', 'i', 'a', 'n', 'space', 'lshift', 's', 'c', 'h', 'w', 'e', 'i', 'n', 's', 't', 'e', 'i', 'g', 'e', 'r', 'return']","[2.206097917747684, 2.4233692779107514, 2.8242402623745875, 3.125034002781831, 3.358981161176416, 3.6095611331529653, 3.7599159810524725, 3.893635128339156, 4.077206844696775, 4.177538147272571, 4.361330560930583, 4.428172652013018, 4.628776554249271, 4.795713532337686, 4.9126641756956815, 5.113196864558631, 5.313492496292383, 5.664282194860789, 5.848366839974915, 5.948462368543915, 6.115556850085341, 6.232436921633052, 6.382685270253205, 6.499845704358449, 7.28499335341985]",,,2017_Feb_01_1624,59.8540796268,famFaceGrey,001,8,
103,./greyInner/JimParsons(SheldonCooper)6_1_cut.png,0,27,27,102,,,1.ja,6.278,None,act,1.616,None,None,None,None,None,Sheldon Cooper,"['lshift', 's', 'h', 'e', 'l', 'd', 'o', 'n', 'space', 'lshift', 'c', 'o', 'o', 'p', 'e', 'r', 'return']","[1.1868792888417374, 1.5543852040427737, 1.771547177897446, 1.9885452326816448, 2.1556332986037887, 2.3727153979998548, 2.890768950457641, 3.0913670786358125, 3.275194778199875, 3.4254723178873974, 3.508813136109893, 3.709482798441968, 3.8763520917491405, 4.060132636512208, 4.160500187337675, 4.2606855345766235, 6.1320507655127585]",,,2017_Feb_01_1624,59.8540796268,famFaceGrey,001,8,
122,./greyInner/KaleyCuoco(Penny)14_2_cut.png,0,28,28,121,,,1.ja,3.236,None,act,0.962,None,None,None,None,None,Cailey Cuoco,"['lshift', 'lshift', 'c', 'a', 'i', 'l', 'e', 'y', 'space', 'lshift', 'c', 'u', 'o', 'c', 'o', 'return']","[9.773590231834532, 13.281934386179273, 13.716342699281086, 13.883318491867612, 14.100589852028861, 14.768944681964058, 14.902500872523888, 15.136446427011833, 16.305922707186255, 16.50628666526245, 16.690038660521168, 17.091132908533837, 17.341686255689638, 17.47536851316727, 17.89306157198007, 20.29875710208944]",,,2017_Feb_01_1624,59.8540796268,famFaceGrey,001,8,
208,./greyInner/WillSmith4_1_cut.png,0,29,29,207,,,1.ja,1.341,None,dummy,0.759,None,None,None,None,None,Will Smith,"['lshift', 'w', 'i', 'l', 'l', 'space', 'lshift', 's', 'm', 'i', 't', 'h', 'return']","[0.8356523658239894, 0.935888717234775, 1.1363704019258876, 1.320189440404647, 1.4871206444368, 1.8046488859927194, 1.9215834903025097, 2.0552660685607407, 2.205541362780423, 2.3893703454687056, 2.5063848242371023, 2.6233053141859273, 2.9574365366952406]",,,2017_Feb_01_1624,59.8540796268,famFaceGrey,001,8,
54,./greyInner/DannFlorek(DonaldDonCragen)5_1_cut.png,0,30,30,53,,,2.nein,4.438,None,None,None,None,None,polit,4.371,None,,['return'],[1.2701735938244383],,,2017_Feb_01_1624,59.8540796268,famFaceGrey,001,8,
149,./greyInner/MilaKunis5_2_cut.png,0,31,31,148,,,1.ja,2.516,None,dummy,1.614,None,None,None,None,None,Milla Kunis,"['lshift', 'm', 'i', 'l', 'l', 'a', 'space', 'lshift', 'k', 'u', 'n', 'i', 's', 'return']","[1.2364463628564408, 1.4036986686314776, 1.5874914030700893, 1.771193998059971, 1.9380870291570318, 2.0051648942444444, 2.2056087267828843, 2.5062504170145985, 2.873907099266944, 3.141074013150501, 3.34175650672114, 3.4752934504231234, 3.5755695786738215, 5.012322800597758]",,,2017_Feb_01_1624,59.8540796268,famFaceGrey,001,8,
196,./greyInner/UrsulavonderLeyen1_1_cut.png,0,32,32,195,,,1.ja,1.964,None,None,None,None,None,polit,2.469,None,Truppen Uschi,"['lshift', 'lshift', 't', 'r', 'u', 'p', 'p', 'e', 'n', 'space', 'lshift', 'u', 's', 'backspace', 's', 'c', 'h', 'o', 'backspace', 'i', 'return']","[10.775959840790165, 17.70918703839743, 18.026754736010844, 18.193833820065265, 18.511205520511794, 18.745050991341486, 18.895414821106897, 19.0125707642801, 19.162772599660457, 19.34638505519979, 19.530170090896718, 19.647126187532194, 20.33197268742697, 20.766522785714187, 21.150469366701145, 21.234325679928588, 21.367867114562614, 21.551717268794164, 22.219621401480254, 22.670981384439074, 27.666409934970943]",,,2017_Feb_01_1624,59.8540796268,famFaceGrey,001,8,
182,./greyInner/SigmarGabriel11_3_cut.png,0,33,33,181,,,1.ja,2.76,None,None,None,None,None,polit,1.514,None,Sigmar Gabriel,"['lshift', 's', 'i', 'g', 'm', 'a', 'r', 'space', 'lshift', 'g', 'a', 'b', 'r', 'e', 'i', 'backspace', 'backspace', 'i', 'e', 'l', 'return']","[0.8526242448824632, 0.9528352545985399, 1.1362427311032661, 1.302982108121796, 1.420679529555855, 1.4873522482903354, 1.6210614513674955, 1.7379001421704743, 2.038680409779772, 2.189051938286866, 2.389528490482917, 3.02413652181167, 3.1581017080952734, 3.4254367112007458, 3.6926725929879467, 4.010034990787972, 4.160432502554613, 4.54471429964542, 4.695048617562861, 4.795281119602805, 5.41345746701154]",,,2017_Feb_01_1624,59.8540796268,famFaceGrey,001,8,
51,./greyInner/DannFlorek(DonaldDonCragen)1_1_cut.png,0,34,34,50,,,2.nein,6.446,None,act,2.453,None,None,None,None,None,,['return'],[1.0364407171109633],,,2017_Feb_01_1624,59.8540796268,famFaceGrey,001,8,
173,./greyInner/SahraWagenknecht5_1_cut.png,0,35,35,172,,,1.ja,5.474,None,act,2.049,None,None,None,None,None,,['return'],[0.93572126957406],,,2017_Feb_01_1624,59.8540796268,famFaceGrey,001,8,
70,./greyInner/EmmaWatson(HermioneGranger)9_1_cut.png,0,36,36,69,,,1.ja,1.633,None,act,1.149,None,None,None,None,None,Emma Watson,"['lshift', 'e', 'm', 'm', 'a', 'space', 'lshift', 'w', 'a', 't', 's', 'o', 'n', 'return']","[2.2393783008355967, 2.4395677540705947, 2.5735310156687774, 2.7405462643127976, 2.82412189419847, 2.9411091065867367, 3.158253116707783, 3.29186031143945, 3.408848486171337, 3.609226879390917, 3.7763492688754923, 3.9432076556295215, 4.093883926050694, 4.427788997983953]",,,2017_Feb_01_1624,59.8540796268,famFaceGrey,001,8,
60,./greyInner/ElvisPresley6_1_cut.png,0,37,37,59,,,1.ja,1.415,None,None,None,music,0.713,None,None,None,Elvis Presley,"['lshift', 'e', 'l', 'v', 'i', 's', 'space', 'lshift', 'lshift', 'p', 'r', 'e', 's', 'l', 'e', 'y', 'return']","[1.1698916915156587, 1.3869529401490581, 2.0887690736344666, 2.2725079168740194, 2.372878033946108, 2.5231546112900105, 2.67348315514937, 2.8405372182896826, 3.491951284919196, 3.642559228996106, 4.160188388241295, 4.243761451880346, 4.494518174165933, 4.6615321396857325, 4.811931576137795, 4.995787504425607, 5.413465165753223]",,,2017_Feb_01_1624,59.8540796268,famFaceGrey,001,8,
176,./greyInner/Shakira1_1_cut.png,0,38,38,175,,,1.ja,15.647,None,None,None,music,72.681,None,None,None,Shakira,"['lshift', 's', 'h', 'a', 'k', 'i', 'r', 'a', 'return']","[38.27507961783522, 38.40874519470162, 38.62594951164283, 38.776148459995966, 39.962422114384026, 40.1629573694936, 40.263140471266524, 40.396884318686716, 40.697480778804675]",,,2017_Feb_01_1624,59.8540796268,famFaceGrey,001,8,
99,./greyInner/JasonSegel(Marshall)7_1_cut.png,0,39,39,98,,,1.ja,3.986,None,act,3.035,None,None,None,None,None,,['return'],[4.477745820864584],,,2017_Feb_01_1624,59.8540796268,famFaceGrey,001,8,
12,./greyInner/BarackObama11_2_cut.png,0,40,40,11,,,1.ja,1.025,None,None,None,None,None,polit,1.011,None,Barack Obama,"['lshift', 'b', 'a', 'r', 'a', 'c', 'k', 'space', 'lshift', 'o', 'b', 'a', 'm', 'a', 'return']","[1.1197626092580322, 1.387269871738681, 1.5041836252876237, 1.8716677273823734, 2.005507809091796, 2.2560236248773435, 2.372999609930048, 2.5734556321440323, 2.9576559508714126, 3.392101474566516, 3.626004685967928, 3.793029558040871, 3.9433645175195124, 4.077048699682564, 6.532846687230631]",,,2017_Feb_01_1624,59.8540796268,famFaceGrey,001,8,
110,./greyInner/JoachimLoew8_1_cut.png,0,41,41,109,,,1.ja,1.779,None,None,None,None,None,sport,1.863,None,Joachim Loew,"['lshift', 'j', 'o', 'a', 'c', 'h', 'i', 'm', 'space', 'lshift', 'l', 'o', 'e', 'w', 'return']","[0.7521078516911075, 1.2534057314569509, 1.4704823775773548, 1.5373757936122274, 1.7211576214995148, 1.821626859888056, 1.9550653238347877, 2.155383410234208, 2.3226459809993685, 2.5564638646665117, 2.9237785944151256, 3.157960564471068, 3.575274460188666, 3.692549733879787, 7.367982916488472]",,,2017_Feb_01_1624,59.8540796268,famFaceGrey,001,8,
8,./greyInner/AngelaMerkel4_1_cut.png,0,42,42,7,,,1.ja,2.048,None,None,None,None,None,polit,2.148,None,Angela Merkel,"['lshift', 'a', 'n', 'g', 'e', 'l', 'l', 'backspace', 'a', 'space', 'lshift', 'm', 'e', 'r', 'k', 'e', 'l', 'return']","[0.6352130242194107, 0.7522740162294212, 0.9360571272391098, 1.1028067692477634, 1.1363319082101953, 1.220093591053228, 1.4538123534039187, 1.921698329886567, 2.0386140081191115, 2.2390735589233373, 2.4061959484079125, 2.5565238507060712, 2.823809453542708, 2.9407591345589026, 3.05771523119256, 3.1746498355041695, 3.2915501162515284, 4.126935592315931]",,,2017_Feb_01_1624,59.8540796268,famFaceGrey,001,8,
4,./greyInner/AlysonHannigan(Lily)5_4_cut.png,0,43,43,3,,,1.ja,4.579,None,act,0.904,None,None,None,None,None,Lilly,"['lshift', 'l', 'i', 'l', 'l', 'y', 'return']","[1.2198857249914, 1.353730618413465, 1.6041646350531664, 1.9546550449867937, 2.088622155955818, 2.406039728080941, 3.0742498858016916]",,,2017_Feb_01_1624,59.8540796268,famFaceGrey,001,8,
28,./greyInner/Beyonce3_2_cut.png,0,44,44,27,,,1.ja,30.267,None,None,None,music,0.98,None,None,None,Beyonce,"['lshift', 'b', 'e', 'y', 'o', 'n', 'c', 'e', 'return']","[9.18906476952543, 9.406094260844839, 9.556651521528693, 9.807237909124524, 9.924112206614154, 10.124701673707023, 10.976779628614167, 11.177233084579711, 11.57814192119622]",,,2017_Feb_01_1624,59.8540796268,famFaceGrey,001,8,
191,./greyInner/TomCruise1_1_cut.png,0,45,45,190,,,1.ja,2.803,None,act,1.233,None,None,None,None,None,Tom Cruise,"['lshift', 't', 'o', 'm', 'space', 'lshift', 'c', 'r', 'u', 'i', 's', 'e', 'return']","[0.8025108808888035, 1.003053834743696, 1.2370590544906008, 1.4040473575332726, 1.671327186313647, 1.8049424005694163, 1.9718116938765888, 2.6736149961234332, 2.8241129123307473, 2.9911406714327313, 3.0747576820613176, 3.208102798749678, 4.076862325942784]",,,2017_Feb_01_1624,59.8540796268,famFaceGrey,001,8,
193,./greyInner/TomCruise5_1_cut.png,0,46,46,192,,,1.ja,3.452,None,dummy,1.213,None,None,None,None,None,Tom Cruise,"['lshift', 't', 'o', 'm', 'space', 'lshift', 'c', 'r', 'u', 'i', 's', 'e', 'return']","[0.7521623844550049, 0.8857477660822042, 1.0196427013361244, 1.2366243962896988, 1.453916607215433, 1.6209017024484638, 1.771426243474707, 2.2058175551883323, 2.389347570020618, 2.5732952416638, 2.6401299547833332, 2.756981476824876, 3.893057401828628]",,,2017_Feb_01_1624,59.8540796268,famFaceGrey,001,8,
48,./greyInner/CristinMilioti(Tracy_Mutter)4_2_cut.png,0,47,47,47,,,1.ja,4.989,None,act,0.696,None,None,None,None,None,Lilly,"['lshift', 'l', 'i', 'l', 'l', 'y', 'return']","[0.6686265314074262, 0.9024158655702195, 1.0863924075001705, 1.3199851029312413, 1.437227656964751, 1.5873695063055493, 2.00521333216966]",,,2017_Feb_01_1624,59.8540796268,famFaceGrey,001,8,
47,./greyInner/CristinMilioti(Tracy_Mutter)2_1_cut.png,0,48,48,46,,,1.ja,5.092,None,act,1.768,None,None,None,None,None,Penelope Cruz,"['lshift', 'p', 'e', 'n', 'e', 'l', 'o', 'p', 'e', 'space', 'lshift', 'c', 'r', 'u', 'z', 'return']","[1.1702679675836407, 1.4877776038429147, 1.65477809656295, 1.821530304820044, 1.922124327002166, 2.206201850778598, 2.907755906218881, 3.0915653212687175, 3.1751563486413943, 3.3421969389801234, 3.659510257291913, 3.7430849248357845, 3.9936562357252114, 4.160461372839563, 4.327755700920534, 5.4974119392118155]",,,2017_Feb_01_1624,59.8540796268,famFaceGrey,001,8,
3,./greyInner/AlysonHannigan(Lily)14_2_cut.png,0,49,49,2,,,1.ja,2.652,None,act,0.748,None,None,None,None,None,Lilly,"['lshift', 'l', 'i', 'l', 'l', 'y', 'return']","[0.736249403347756, 1.254153151096034, 1.471452419200432, 1.6551425037341687, 1.8222767621136882, 1.9222244106604194, 2.4903480216798926]",,,2017_Feb_01_1624,59.8540796268,famFaceGrey,001,8,
106,./greyInner/JoachimLoew1_1_cut.png,0,50,50,105,,,1.ja,1.673,None,None,None,None,None,sport,0.773,None,Joachim Loew,"['lshift', 'j', 'o', 'a', 'c', 'h', 'i', 'm', 'space', 'lshift', 'l', 'o', 'e', 'w', 'return']","[0.7018751571831672, 1.1028333940685116, 1.3200319369534554, 1.4200905757134024, 1.5540734049500315, 1.6708617331423739, 1.8379388925113744, 2.055250671073736, 2.2389115645401034, 2.5394823621809337, 2.740205594933286, 3.2747257964365417, 3.358182737365496, 3.508688031535712, 4.12678129667438]",,,2017_Feb_01_1624,59.8540796268,famFaceGrey,001,8,
128,./greyInner/KatjaBurkard4_1_cut.png,0,51,51,127,,,1.ja,3.573,None,None,None,host,2.157,None,None,None,,['return'],[0.8858574731711997],,,2017_Feb_01_1624,59.8540796268,famFaceGrey,001,8,
162,./greyInner/OmarEpps(DrEricForeman)2_2_cut.png,0,52,52,161,,,1.ja,2.176,None,None,None,music,3.579,None,None,None,,['return'],[0.8358948762306682],,,2017_Feb_01_1624,59.8540796268,famFaceGrey,001,8,
204,./greyInner/Usher4_1_cut.png,0,53,53,203,,,1.ja,4.355,None,None,None,music,0.914,None,None,None,Usher,"['lshift', 'u', 's', 'h', 'e', 'r', 'return']","[0.969352587035246, 1.1363367199246568, 1.3533350954912748, 1.4872714114881092, 1.6041720130160684, 1.704469954373053, 2.2891410512384027]",,,2017_Feb_01_1624,59.8540796268,famFaceGrey,001,8,
198,./greyInner/UrsulavonderLeyen5_1_cut.png,0,54,54,197,,,1.ja,3.117,None,None,None,None,None,polit,1.328,None,Zensursula,"['lshift', 'z', 'n', 'e', 'backspace', 'backspace', 'e', 'n', 's', 'u', 'r', 's', 'u', 'l', 'a', 'return']","[0.9024986270578665, 1.102716309016614, 1.4204617192826845, 1.4449584781123122, 1.8548042722886748, 1.9885218156705378, 2.0886616120133112, 2.2723128820489364, 2.9574843330574367, 3.1577998532102356, 3.3082871836450067, 4.343953214738576, 4.5111031913857005, 5.162670912095564, 5.296194703778383, 8.788066114238973]",,,2017_Feb_01_1624,59.8540796268,famFaceGrey,001,8,
105,./greyInner/JimParsons(SheldonCooper)9_3_cut.png,0,55,55,104,,,1.ja,2.246,None,act,1.926,None,None,None,None,None,Jim Parsons,"['lshift', 'j', 'i', 'm', 'space', 'lshift', 'p', 'a', 'r', 's', 'o', 'n', 's', 'return']","[3.659066938005708, 3.79311937671082, 4.260917459210759, 4.42793367019658, 4.645173914606858, 5.079558810699382, 5.630860668148671, 5.79805683725499, 5.981654536870337, 6.1152758459647885, 6.265595407956425, 6.449436580322072, 6.549642778323687, 9.38981558944215]",,,2017_Feb_01_1624,59.8540796268,famFaceGrey,001,8,
217,./greyInner/notfamousface2_cut.png,0,56,56,216,,,2.nein,15.806,None,None,None,None,None,sport,8.2,None,,['return'],[1.3706255100423732],,,2017_Feb_01_1624,59.8540796268,famFaceGrey,001,8,
145,./greyInner/MariskaHargitay(Liv)8_8_cut.png,0,57,57,144,,,1.ja,3.469,None,None,None,host,1.364,None,None,None,,['return'],[0.8025942839412892],,,2017_Feb_01_1624,59.8540796268,famFaceGrey,001,8,
22,./greyInner/BenedictCumberbatch2_2_cut.png,0,58,58,21,,,1.ja,3.723,None,act,2.348,None,None,None,None,None,Benedict Cumberbatch,"['lshift', 'b', 'e', 'n', 'e', 'd', 'i', 'c', 't', 'space', 'lshift', 'c', 'u', 'm', 'b', 'e', 'r', 'b', 'a', 't', 'c', 'h', 'return']","[1.1362879612188408, 1.3367314729748614, 1.5039173770892376, 1.620738745719791, 1.754080975379111, 2.4227164886542596, 2.7235009264149994, 2.807073669271631, 3.0241618635063787, 3.191311840153503, 3.5921632569788926, 3.8428298398139304, 4.0599712836883555, 4.2436074770193954, 4.444109050129555, 4.5778009310342895, 4.661359559528137, 5.145794304982701, 5.529826855268766, 5.880934126987995, 6.198494446640325, 6.365380741337503, 7.701814529580588]",,,2017_Feb_01_1624,59.8540796268,famFaceGrey,001,8,
224,./greyInner/notfamousface9_1_cut.png,0,59,59,223,,,2.nein,4.037,None,None,None,music,1.479,None,None,None,,['return'],[1.3035854971076333],,,2017_Feb_01_1624,59.8540796268,famFaceGrey,001,8,
197,./greyInner/UrsulavonderLeyen4_1_cut.png,0,60,60,196,,,1.ja,5.058,None,None,None,None,None,polit,1.099,None,Ursula von der Leyen,"['lshift', 'u', 'r', 's', 'u', 'l', 'a', 'space', 'v', 'o', 'n', 'space', 'd', 'e', 'r', 'space', 'lshift', 'l', 'e', 'y', 'e', 'n', 'return']","[10.10804191452371, 10.776307567351978, 11.01018126690542, 11.177039653659449, 11.344289393184226, 11.561354811970887, 11.678463279562493, 12.045948344000863, 12.329973901261837, 12.430257086693018, 12.613970267453624, 12.78100155514585, 12.864674060881953, 12.96470286701151, 13.115223237886312, 13.265402939379783, 13.465901625460901, 13.716565642049318, 13.866734116209045, 14.084161696700903, 14.267961488321816, 14.40165304844595, 14.752439859985316]",,,2017_Feb_01_1624,59.8540796268,famFaceGrey,001,8,
170,./greyInner/RobertSeanLeonard(Wilson)8_1_cut.png,0,61,61,169,,,2.nein,2.952,None,dummy,2.635,None,None,None,None,None,,['return'],[0.9695347906199459],,,2017_Feb_01_1624,59.8540796268,famFaceGrey,001,8,
27,./greyInner/Beyonce11_2_cut.png,0,62,62,26,,,1.ja,7.045,None,None,None,music,0.962,None,None,None,Beyonce,"['lshift', 'b', 'e', 'y', 'o', 'n', 'c', 'e', 'return']","[1.9382923289722385, 2.2723597160711506, 2.4895159158695606, 2.7400747163028427, 2.9407020355483837, 3.1245162623126816, 3.258092020510958, 3.3918612096276775, 4.711616312610204]",,,2017_Feb_01_1624,59.8540796268,famFaceGrey,001,8,
7,./greyInner/AngelaMerkel3_1_cut.png,0,63,63,6,,,1.ja,1.624,None,None,None,None,None,polit,1.09,None,Angela Merkel,"['lshift', 'a', 'n', 'g', 'e', 'l', 'a', 'space', 'lshift', 'm', 'e', 'r', 'k', 'e', 'l', u'\xf6', 'backspace', 'return']","[1.102862585134062, 1.3035370591824176, 1.470569629998863, 1.5874702315268223, 1.6874980753145792, 1.7711850161922484, 1.9717276492647215, 2.1051439793263853, 2.272462045197244, 2.3727587034281896, 2.606590701458117, 2.773497526137362, 2.907382837962359, 3.040914969948062, 3.12456951195054, 3.3250531213270733, 3.959564597585995, 4.4943802383531875]",,,2017_Feb_01_1624,59.8540796268,famFaceGrey,001,8,
216,./greyInner/notfamousface14_6_cut.png,0,64,64,215,,,2.nein,2.442,None,None,None,None,None,sport,4.615,None,,['return'],[1.003078214096604],,,2017_Feb_01_1624,59.8540796268,famFaceGrey,001,8,
97,./greyInner/JasonSegel(Marshall)14_1_cut.png,0,65,65,96,,,1.ja,1.876,None,act,0.806,None,None,None,None,None,,['return'],[5.262994195147257],,,2017_Feb_01_1624,59.8540796268,famFaceGrey,001,8,
125,./greyInner/KaleyCuoco(Penny)7_1_cut.png,0,66,66,124,,,1.ja,2.866,None,act,1.546,None,None,None,None,None,Penny,"['lshift', 'p', 'e', 'n', 'n', 'y', 'return']","[3.3086368348922406, 3.5423623336428136, 3.7432119540953863, 4.010342940508053, 4.194126372300161, 5.112899500607455, 6.3827260094330995]",,,2017_Feb_01_1624,59.8540796268,famFaceGrey,001,8,
83,./greyInner/HughLaurie(DrHouse)5_3_cut.png,0,67,67,82,,,1.ja,4.288,None,act,1.481,None,None,None,None,None,Dr House,"['lshift', 'd', 'r', 'period', 'space', 'lshift', 'h', 'o', 'u', 's', 'e', 'return']","[4.126875285495771, 4.310555105037565, 4.594708012338742, 4.811814170307116, 4.9955844500800595, 5.162654873049178, 5.296373057992241, 5.530239058804, 5.713974694232093, 5.864312861520375, 5.981177214800482, 8.520623970292945]",,,2017_Feb_01_1624,59.8540796268,famFaceGrey,001,8,
139,./greyInner/LisaEdelstein(DrLisaCuddy)6_3_cut.png,0,68,68,138,,,1.ja,2.548,None,None,None,host,0.994,None,None,None,,['return'],[1.086286870562617],,,2017_Feb_01_1624,59.8540796268,famFaceGrey,001,8,
68,./greyInner/EmmaWatson(HermioneGranger)3_1_cut.png,0,69,69,67,,,1.ja,2.45,None,dummy,0.98,None,None,None,None,None,Emma Watson,"['lshift', 'e', 'm', 'm', 'a', 'space', 'lshift', 'w', 'a', 't', 's', 'o', 'n', 'return']","[0.9023144987877458, 1.0529304623869393, 1.2033786575448175, 1.3535753604301135, 1.43710255239057, 1.5704964277847466, 1.7543052012715634, 1.8380396177326475, 2.5731441538318904, 2.8404711374132603, 3.241403070260276, 3.491973418807902, 3.675698789245871, 4.093482629070422]",,,2017_Feb_01_1624,59.8540796268,famFaceGrey,001,8,
180,./greyInner/Shakira9_1_cut.png,0,70,70,179,,,1.ja,3.402,None,None,None,music,0.678,None,None,None,Shakira,"['lshift', 's', 'h', 'a', 'k', 'i', 'r', 'a', 'return']","[0.651912881023236, 0.8023957205259649, 0.9693461714141449, 1.119575914739471, 1.6542933965320117, 1.8380396177308285, 1.9384716455297166, 2.072057989498717, 3.1412741804688267]",,,2017_Feb_01_1624,59.8540796268,famFaceGrey,001,8,
215,./greyInner/notfamousface13_1_cut.png,0,71,71,214,,,2.nein,6.624,None,act,3.939,None,None,None,None,None,,['return'],[1.0527761667453888],,,2017_Feb_01_1624,59.8540796268,famFaceGrey,001,8,
137,./greyInner/LisaEdelstein(DrLisaCuddy)10_1_cut.png,0,72,72,136,,,1.ja,4.023,None,None,None,host,1.165,None,None,None,,['return'],[1.1701162381887116],,,2017_Feb_01_1624,59.8540796268,famFaceGrey,001,8,
206,./greyInner/WillSmith1_1_cut.png,0,73,73,205,,,1.ja,1.918,None,act,1.017,None,None,None,None,None,Will Smith,"['lshift', 'w', 'i', 'l', 'l', 'space', 'lshift', 's', 'm', 'i', 't', 'h', 'return']","[0.8190060794422607, 0.9192664894253539, 1.1698397250020207, 1.3871081981360476, 1.5375294476925774, 1.7043778902370832, 1.8213760091784934, 1.9382814224209142, 2.4897754276662454, 2.7571537362000527, 3.5756090347331337, 3.6926947268748336, 3.8594456520077074]",,,2017_Feb_01_1624,59.8540796268,famFaceGrey,001,8,
130,./greyInner/KatjaBurkard7_1_cut.png,0,74,74,129,,,2.nein,8.33,None,None,None,None,None,sport,1.196,None,,['return'],[1.0362767980404897],,,2017_Feb_01_1624,59.8540796268,famFaceGrey,001,8,
64,./greyInner/EmilyDeschanel6_12_cut.png,0,75,75,63,,,2.nein,5.761,None,None,None,host,3.933,None,None,None,,['return'],[1.4874276318168995],,,2017_Feb_01_1624,59.8540796268,famFaceGrey,001,8,
113,./greyInner/JoshRadnor(Ted)6_2_cut.png,0,76,76,112,,,2.nein,7.396,None,act,4.423,None,None,None,None,None,,['return'],[1.0864475818252686],,,2017_Feb_01_1624,59.8540796268,famFaceGrey,001,8,
150,./greyInner/MilaKunis7_3_cut.png,0,77,77,149,,,1.ja,2.848,None,act,0.893,None,None,None,None,None,Milla Kunis,"['lshift', 'm', 'i', 'l', 'l', 'a', 'space', 'lshift', 'k', 'u', 'n', 'i', 's', 'return']","[1.1364708063647413, 1.3035781191447313, 1.5373433947333979, 1.7880613025245111, 1.9050151536921476, 2.523016033914246, 2.7069136637273914, 2.823757487027251, 2.9409349225243204, 3.391763050651207, 3.5922999096674175, 3.725941748742116, 4.060115635120383, 4.327521530816739]",,,2017_Feb_01_1624,59.8540796268,famFaceGrey,001,8,
194,./greyInner/TomCruise6_1_cut.png,0,78,78,193,,,1.ja,2.084,None,act,0.664,None,None,None,None,None,Tom Cruise,"['lshift', 't', 'o', 'm', 'space', 'lshift', 'c', 'r', 'u', 'i', 's', 'e', 'return']","[0.4687665202181961, 0.7193586818721087, 0.9031517370931397, 1.0868344436621555, 1.2707147513046948, 1.4881448980431742, 1.77189586680106, 2.0223247509456996, 2.423542820408329, 2.607237395874108, 2.6907876840632525, 2.8076953427735134, 3.342223243018452]",,,2017_Feb_01_1624,59.8540796268,famFaceGrey,001,8,
84,./greyInner/HughLaurie(DrHouse)8_1_cut.png,0,79,79,83,,,1.ja,3.551,None,act,0.946,None,None,None,None,None,,['return'],[0.7017247109124582],,,2017_Feb_01_1624,59.8540796268,famFaceGrey,001,8,
91,./greyInner/JanHofer1_3_cut.png,0,80,80,90,,,1.ja,13.145,None,None,None,host,12.677,None,None,None,,['return'],[1.2200419453183713],,,2017_Feb_01_1624,59.8540796268,famFaceGrey,001,8,
148,./greyInner/MilaKunis4_1_cut.png,0,81,81,147,,,1.ja,1.351,None,act,0.749,None,None,None,None,None,Milla Kunis,"['lshift', 'm', 'i', 'l', 'l', 'a', 'space', 'lshift', 'k', 'u', 'n', 'i', 's', 'pound', 'return']","[1.169841008124422, 1.387118142345571, 1.604231999055628, 1.8047807269667828, 1.955186579038127, 2.055125566499555, 2.2056478620597773, 2.4728641762085317, 3.0076400401358114, 3.224797843839042, 3.3916713072976563, 3.542215415962346, 3.5923919738033874, 4.1269641418221, 5.329843022629575]",,,2017_Feb_01_1624,59.8540796268,famFaceGrey,001,8,
2,./greyInner/AlysonHannigan(Lily)12_2_cut.png,0,82,82,1,,,1.ja,2.088,None,act,0.802,None,None,None,None,None,Lilly,"['lshift', 'l', 'i', 'l', 'l', 'y', 'return']","[0.5018409619333397, 0.8194022439274704, 1.0366059193074761, 1.2536880187035422, 1.4039976364856557, 1.587842016660943, 2.673802332206833]",,,2017_Feb_01_1624,59.8540796268,famFaceGrey,001,8,
151,./greyInner/NeilPatrickHarris(Barney)1_1_cut.png,0,83,83,150,,,1.ja,4.204,None,act,1.215,None,None,None,None,None,Barney Stinson,"['lshift', 'b', 'a', 'r', 'n', 'e', 'y', 'space', 'lshift', 's', 't', 'i', 'n', 's', 'o', 'n', 'return']","[16.52248385830171, 17.22460986619626, 17.37521107387147, 17.542246210934536, 17.69240666557198, 18.327351837690003, 18.544545248078066, 18.728324188936313, 18.811800697505532, 18.945577264585154, 19.162731539696324, 19.279726130047493, 19.429912567940846, 19.54682920851701, 19.64732026001184, 19.8309577364671, 20.41573084167794]",,,2017_Feb_01_1624,59.8540796268,famFaceGrey,001,8,
147,./greyInner/MilaKunis10_1_cut.png,0,84,84,146,,,1.ja,3.321,None,act,1.016,None,None,None,None,None,Milla Kunis,"['lshift', 'm', 'i', 'l', 'l', 'a', 'space', 'lshift', 'k', 'n', 'backspace', 'u', 'n', 'i', 's', 'return']","[0.8361845414365234, 0.9699521266502416, 1.1370235119611607, 1.3374429651448736, 1.4878975759220339, 1.7886948449213378, 1.9723541344810656, 2.2726853087460768, 2.540318958925127, 2.7573221462043875, 3.208579800037114, 3.4757781504540617, 3.6763672967663297, 3.810022608642612, 3.9436516164787463, 4.361360072778552]",,,2017_Feb_01_1624,59.8540796268,famFaceGrey,001,8,
154,./greyInner/NeilPatrickHarris(Barney)2_2_cut.png,0,85,85,153,,,1.ja,1.517,None,act,1.867,None,None,None,None,None,Barney Stinson,"['lshift', 'b', 'a', 'r', 'n', 'e', 'y', 'space', 'lshift', 's', 't', 'i', 'n', 's', 'o', 'n', 'return']","[0.8694469607926294, 1.2037555751721811, 1.4545604146023834, 1.654888445213146, 1.8218244609597605, 1.955611613810106, 2.1895084095922357, 2.3565550947714655, 2.4733389320299466, 2.5904159630863433, 2.8241555761997006, 2.8911757007135748, 3.0582352171295497, 3.1417976949960575, 3.308856569850832, 3.49266983427151, 3.9270351627255877]",,,2017_Feb_01_1624,59.8540796268,famFaceGrey,001,8,
172,./greyInner/SahraWagenknecht2_2_cut.png,0,86,86,171,,,1.ja,2.155,None,None,None,None,None,polit,1.399,None,Sahra Wagenknecht,"['lshift', 's', 'a', 'h', 'r', 'a', 'space', 'lshift', 'w', 'a', 'g', 'e', 'n', 'k', 'n', 'e', 'c', 'h', 't', 'return']","[0.6685915662837942, 0.9862035316709807, 1.1699327514797915, 1.3705568629175104, 1.470748625773922, 1.5876594922938239, 1.754762634920553, 2.1221511442909105, 2.2892350400597934, 2.439670083198507, 2.6734084131876443, 2.740335832004348, 2.8570885535100388, 3.3919279320671194, 3.5756924377819814, 3.6037171456137003, 3.8262752967875713, 3.959976801121229, 4.1102816071907, 4.594834720817744]",,,2017_Feb_01_1624,59.8540796268,famFaceGrey,001,8,
221,./greyInner/notfamousface6_8_cut.png,0,87,87,220,,,2.nein,4.954,None,None,None,None,None,sport,2.293,None,,['return'],[1.1033453604813985],,,2017_Feb_01_1624,59.8540796268,famFaceGrey,001,8,
202,./greyInner/Usher11_1_cut.png,0,88,88,201,,,1.ja,5.842,None,None,None,music,1.615,None,None,None,Usher,"['lshift', 'u', 's', 'h', 'e', 'r', 'return']","[0.9195407571460237, 1.1368134004314925, 1.3372658940552355, 1.4707492673369416, 1.5879388925095554, 1.68805110168978, 2.07240571606053]",,,2017_Feb_01_1624,59.8540796268,famFaceGrey,001,8,
120,./greyInner/JudithRakers8_1_cut.png,0,89,89,119,,,1.ja,4.917,None,None,None,host,0.978,None,None,None,,['return'],[0.7688843751457171],,,2017_Feb_01_1624,59.8540796268,famFaceGrey,001,8,
101,./greyInner/JimParsons(SheldonCooper)1_1_cut.png,0,90,90,100,,,1.ja,1.434,None,act,0.665,None,None,None,None,None,Jim Parsons,"['lshift', 'j', 'i', 'o', 'm', 'backspace', 'backspace', 'm', 'space', 'lshift', 'p', 'a', 'r', 's', 'o', 'n', 's', 'return']","[0.6353422989468527, 0.8525899213182129, 1.06988951020503, 1.2033873186301207, 1.9550685316444287, 2.139006900639288, 2.372891506745873, 2.623295369974585, 2.8740739053664583, 3.024453774180074, 3.2249393082420283, 3.4253090403763053, 3.525618850628234, 3.67602823128982, 3.8429963251328445, 3.9599729517485684, 4.260819300234289]",,,2017_Feb_01_1624,59.8540796268,famFaceGrey,001,8,
43,./greyInner/CobieSmulders(Robin)3_4_cut.png,0,91,91,42,,,1.ja,2.715,None,act,1.246,None,None,None,None,None,Robin,"['lshift', 'r', 'o', 'v', 'b', 'i', 'backspace', 'backspace', 'backspace', 'b', 'i', 'n', 'return']","[0.5851343045724207, 0.869186807434744, 1.102832752505492, 1.3705857332024607, 1.4371282148658793, 1.9215883020169713, 2.0720438751359325, 2.2893941474158055, 2.406129867529671, 2.5895415141894773, 2.757087334541211, 3.007567543638288]",,,2017_Feb_01_1624,59.8540796268,famFaceGrey,001,8,
218,./greyInner/notfamousface3_3_cut.png,0,92,92,217,,,2.nein,3.411,None,act,2.602,None,None,None,None,None,,['return'],[0.8857926754153596],,,2017_Feb_01_1624,59.8540796268,famFaceGrey,001,8,
205,./greyInner/Usher7_1_cut.png,0,93,93,204,,,1.ja,2.133,None,None,None,music,1.13,None,None,None,Usher,"['lshift', 'u', 's', 'h', 'e', 'r', 'return']","[0.7019425211856287, 0.9693856274734571, 1.0863125330415642, 1.203261572494739, 1.3368979582937754, 1.4539647243600484, 1.7212188906632946]",,,2017_Feb_01_1624,59.8540796268,famFaceGrey,001,8,
55,./greyInner/DannFlorek(DonaldDonCragen)8_1_cut.png,0,94,94,54,,,2.nein,6.55,None,None,None,None,None,polit,0.784,None,,['return'],[1.3202324250523816],,,2017_Feb_01_1624,59.8540796268,famFaceGrey,001,8,
34,./greyInner/BritneySpears7_1_cut.png,0,95,95,33,,,1.ja,1.734,None,None,None,music,0.731,None,None,None,Britney Spears,"['lshift', 'lshift', 'b', 'r', 'i', 't', 'n', 'e', 'y', 'space', 'lshift', 's', 'p', 'e', 'a', 'r', 's', 'return']","[0.7353024579533667, 1.3535849838590366, 1.5204738448046555, 1.7210479144105193, 1.821288756756985, 1.9884326385654276, 2.3562243696014775, 2.4395430539370864, 2.5731804020797426, 2.7569513234138867, 2.890318253206715, 3.0242792693388765, 3.157975320396872, 3.291757340752156, 3.675861104411524, 3.8761044488474, 4.109985847144344, 4.544416294133043]",,,2017_Feb_01_1624,59.8540796268,famFaceGrey,001,8,
98,./greyInner/JasonSegel(Marshall)6_1_cut.png,0,96,96,97,,,1.ja,3.537,None,act,1.395,None,None,None,None,None,,['return'],[1.8884667055026512],,,2017_Feb_01_1624,59.8540796268,famFaceGrey,001,8,
112,./greyInner/JoshRadnor(Ted)3_1_cut.png,0,97,97,111,,,1.ja,3.894,None,act,1.385,None,None,None,None,None,Ted Mosby,"['lshift', 't', 'e', 'd', 'space', 'lshift', 'm', 'o', 's', 'b', 'y', 'return']","[1.0025113941392192, 1.1867692609721416, 1.4039604258941836, 1.671280673075671, 1.871724505612292, 2.0387516231512564, 2.1557199094622774, 2.356224048820877, 3.0244457546559715, 3.2248568675349816, 3.3082416327488318, 3.6925506962234067]",,,2017_Feb_01_1624,59.8540796268,famFaceGrey,001,8,
167,./greyInner/RobertSeanLeonard(Wilson)10_1_cut.png,0,98,98,166,,,2.nein,3.03,None,dummy,0.791,None,None,None,None,None,,['return'],[1.019515992855304],,,2017_Feb_01_1624,59.8540796268,famFaceGrey,001,8,
53,./greyInner/DannFlorek(DonaldDonCragen)2_1_cut.png,0,99,99,52,,,2.nein,2.602,None,None,None,None,None,polit,4.306,None,,['return'],[1.019797959319476],,,2017_Feb_01_1624,59.8540796268,famFaceGrey,001,8,
5,./greyInner/AlysonHannigan(Lily)8_3_cut.png,0,100,100,4,,,1.ja,1.594,None,act,1.019,None,None,None,None,None,Lilly,"['lshift', 'l', 'i', 'l', 'l', 'y', 'return']","[0.7523487581911468, 0.919426559123167, 1.1531045822903252, 1.3370958801460802, 1.4875010906544048, 1.6042714551131212, 1.8883454502993118]",,,2017_Feb_01_1624,59.8540796268,famFaceGrey,001,8,
118,./greyInner/JudithRakers4_3_cut.png,0,101,101,117,,,2.nein,2.769,None,None,None,host,3.086,None,None,None,,['return'],[1.0702263302136998],,,2017_Feb_01_1624,59.8540796268,famFaceGrey,001,8,
132,./greyInner/LeonardoDiCaprio2_1_cut.png,0,102,102,131,,,1.ja,1.33,None,act,0.711,None,None,None,None,None,Leonardo diCaprio,"['lshift', 'l', 'e', 'o', 'n', 'a', 'r', 'd', 'o', 'space', 'c', 'backspace', 'd', 'i', 'lshift', 'c', 'a', 'r', 'p', 'backspace', 'backspace', 'o', 'r', 'backspace', 'backspace', 'p', 'r', 'i', 'o', 'return']","[0.6685780934822105, 0.8688018702796398, 1.0855538860687375, 1.3034398625513859, 2.188921380435204, 2.873963235935662, 3.0241179165132053, 3.224704496578852, 3.358119222733876, 3.542192961294859, 3.6924499710003147, 4.093459853620516, 4.193671184117193, 4.327391614528096, 4.678161424677455, 4.795155694246205, 4.945495144658707, 5.6135141169270355, 5.830846746253883, 6.064870250516833, 6.231975317828983, 6.465738027171028, 6.599309935996644, 7.134122368954195, 7.284432628299328, 7.518077931808875, 8.103109586474602, 8.386849648679345, 8.57087238306849, 9.322296650532735]",,,2017_Feb_01_1624,59.8540796268,famFaceGrey,001,8,
104,./greyInner/JimParsons(SheldonCooper)8_1_cut.png,0,103,103,103,,,1.ja,3.451,None,act,0.861,None,None,None,None,None,Jim Parsons,"['lshift', 'j', 'i', 'm', 'space', 'lshift', 'p', 'e', 'r', 'backspace', 'backspace', 'a', 'r', 's', 'o', 'n', 's', 'return']","[0.601756853164261, 0.7354583574979188, 0.9358861509881535, 1.1029777454987197, 1.2867672721295094, 1.3535131289227138, 1.470333214430866, 1.754525257008936, 1.9549562583069928, 2.639876537823511, 2.8069553010973323, 2.907225976072368, 3.10782442503114, 3.2915777034122584, 4.026502602175242, 4.19369395956528, 4.360536307271104, 4.64477999558585]",,,2017_Feb_01_1624,59.8540796268,famFaceGrey,001,8,
35,./greyInner/BritneySpears8_5_cut.png,0,104,104,34,,,1.ja,1.71,None,None,None,music,1.96,None,None,None,Britney Spears,"['lshift', 'b', 'r', 'i', 't', 'n', 'e', 'e', 'backspace', 'y', 'space', 'lshift', 's', 'p', 'r', 'a', 'r', 's', 'backspace', 'backspace', 'backspace', 'backspace', 'e', 'a', 'r', 's', 'return']","[1.036106463350734, 1.220052210308495, 1.4371647838961508, 1.6374822287343704, 2.188960836494516, 2.4895730148782604, 2.5898626159305422, 2.690058869720815, 3.191261156762266, 3.3250130237065605, 3.5420399487775285, 3.7593023270728736, 4.07676031759911, 4.243875970681984, 4.394117903682854, 4.511042563783121, 4.6947993707563, 4.828498950404537, 5.196077682883697, 5.37956984556331, 5.513420833824057, 5.663958206090683, 6.399048307046542, 6.883282564400361, 7.067246595872348, 7.217426938928838, 7.735439431422492]",,,2017_Feb_01_1624,59.8540796268,famFaceGrey,001,8,
185,./greyInner/SigmarGabriel8_2_cut.png,0,105,105,184,,,1.ja,1.534,None,None,None,None,None,polit,0.884,None,Sigmar Gabriel,"['lshift', 's', 'i', 'g', 'm', 'a', 'r', 'space', 'lshift', 'g', 'a', 'b', 'r', 'i', 'e', 'l', 'return']","[1.103008861253329, 1.236946781154984, 1.437213863384386, 1.58749525244275, 1.7877956958891446, 1.8548863922151213, 1.9720317496157804, 2.1222807397989527, 2.3729091496988985, 2.5232457130841794, 2.7403512294895336, 3.0410593213819084, 3.1748660418707004, 3.308401060887263, 3.441999594533627, 3.609234257353819, 4.61138284822664]",,,2017_Feb_01_1624,59.8540796268,famFaceGrey,001,8,
160,./greyInner/NicoleKidman8_2_cut.png,0,106,106,159,,,1.ja,7.195,None,act,1.264,None,None,None,None,None,Nicole Kidman,"['lshift', 'n', 'i', 'o', 'backspace', 'c', 'o', 'l', 'e', 'space', 'lshift', 'k', 'i', 'd', 'm', 'a', 'n', 'return']","[0.7852650548920792, 0.9024893244095438, 1.1029424595944874, 1.3368854478358116, 1.7211457526045706, 1.8713584945362527, 2.0218625055822486, 2.2389869480648485, 2.756891016593727, 2.924074675242082, 3.141141056370543, 3.341774470454766, 4.043413532850536, 4.177059542078496, 4.344020899521638, 4.461069381073685, 4.711537721275818, 5.045710003747445]",,,2017_Feb_01_1624,59.8540796268,famFaceGrey,001,8,
45,./greyInner/CobieSmulders(Robin)5_1_cut.png,0,107,107,44,,,2.nein,4.324,None,act,1.683,None,None,None,None,None,,['return'],[0.9858917325764196],,,2017_Feb_01_1624,59.8540796268,famFaceGrey,001,8,
188,./greyInner/TaylorSwift3_1_cut.png,0,108,108,187,,,1.ja,1.801,None,None,None,music,0.564,None,None,None,Taylor Swift,"['lshift', 't', 't', 'backspace', 'a', 'i', 'backspace', 'y', 'l', 'o', 'r', 'space', 'lshift', 'w', 'backspace', 'lshift', 's', 'w', 'i', 'f', 't', 'return']","[0.9359066809684009, 1.0863215149074676, 3.157946770890703, 3.8095347008002136, 3.9762557933045173, 4.310674435553665, 4.79517301641863, 5.0290832850023435, 5.363082987318194, 5.580290512069041, 5.647147679856062, 5.83089839198874, 5.981327019508171, 6.215311709274829, 6.649501570544089, 6.699607877353628, 6.799961955377512, 6.966896687999906, 7.668708009772672, 7.785625291910037, 8.019466913368888, 8.470567705313442]",,,2017_Feb_01_1624,59.8540796268,famFaceGrey,001,8,
61,./greyInner/EmilyDeschanel15_1_cut.png,0,109,109,60,,,1.ja,4.32,None,act,2.132,None,None,None,None,None,,['return'],[0.7353743128878705],,,2017_Feb_01_1624,59.8540796268,famFaceGrey,001,8,
212,./greyInner/notfamousface11_1_cut.png,0,110,110,211,,,2.nein,2.524,None,None,None,None,None,sport,7.988,None,,['return'],[0.651954261767969],,,2017_Feb_01_1624,59.8540796268,famFaceGrey,001,8,
87,./greyInner/Ice-T(OdafinFinTutuola)12_1_cut.png,0,111,111,86,,,1.ja,3.372,None,None,None,music,0.965,None,None,None,,['return'],[0.9027327971598424],,,2017_Feb_01_1624,59.8540796268,famFaceGrey,001,8,
136,./greyInner/LisaEdelstein(DrLisaCuddy)1_1_cut.png,0,112,112,135,,,2.nein,2.269,None,act,2.953,None,None,None,None,None,,['return'],[0.8024977288714581],,,2017_Feb_01_1624,59.8540796268,famFaceGrey,001,8,
187,./greyInner/TaylorSwift2_1_cut.png,0,113,113,186,,,1.ja,1.498,None,None,None,music,0.812,None,None,None,Taylor Swift,"['lshift', 't', 'a', 'y', 'l', 'o', 'r', 'space', 'lshift', 's', 'w', 'i', 'f', 't', 'return']","[0.7520536397096294, 0.9525949896578823, 1.7378067949102842, 1.9885054558417323, 2.1221235571265424, 2.3059842971306352, 2.406091694596398, 2.539821748436225, 2.6900819659513218, 2.940692732900061, 3.157983660701575, 3.3750949511631916, 3.5418449139542645, 3.7426958175292384, 4.210381305911142]",,,2017_Feb_01_1624,59.8540796268,famFaceGrey,001,8,
219,./greyInner/notfamousface4_2_cut.png,0,114,114,218,,,2.nein,4.507,None,None,None,music,2.496,None,None,None,,['return'],[1.036558122943461],,,2017_Feb_01_1624,59.8540796268,famFaceGrey,001,8,
107,./greyInner/JoachimLoew12_1_cut.png,0,115,115,106,,,1.ja,4.859,None,None,None,None,None,sport,1.017,None,Joachim Loew,"['lshift', 'j', 'o', 'a', 'c', 'h', 'i', 'm', 'space', 'lshift', 'l', 'o', 'e', 'w', 'return']","[0.8695438366412418, 1.1368127588702919, 1.3706530972031032, 1.4373457043566304, 1.6213427762686479, 1.7716103717466467, 2.1893005435304076, 2.406527315139101, 2.6069621658098185, 2.9243787755913218, 3.0576392061047954, 3.291605932137827, 3.5425246488084667, 3.6592638975143927, 4.3612551774040185]",,,2017_Feb_01_1624,59.8540796268,famFaceGrey,001,8,
111,./greyInner/JoshRadnor(Ted)1_2_cut.png,0,116,116,110,,,1.ja,2.028,None,act,2.034,None,None,None,None,None,Ted Mosby,"['lshift', 'j', 'backspace', 'lshift', 't', 'e', 'd', 'space', 'lshift', 'm', 'o', 's', 'b', 'b', 'backspace', 'y', 'return']","[0.718578863357834, 1.3035620800965262, 2.038678164311932, 2.65646444207232, 2.874065885842356, 3.057701437612195, 3.542272835755284, 3.742279764623163, 3.909663590589844, 4.260637096649589, 4.561110376878787, 5.346359071942061, 5.864499876819536, 6.215212908738977, 6.616294646293682, 6.783387523930287, 6.9503819218116405]",,,2017_Feb_01_1624,59.8540796268,famFaceGrey,001,8,
82,./greyInner/HughLaurie(DrHouse)4_1_cut.png,0,117,117,81,,,1.ja,1.58,None,dummy,1.028,None,None,None,None,None,Dr House,"['lshift', 'd', 'r', 'period', 'space', 'lshift', 'h', 'o', 'u', 's', 'e', 'return']","[1.152922057925025, 1.8883486581089528, 2.138847151722075, 2.389473316156, 2.67320792508508, 2.8906069560707692, 3.140984194480552, 3.341645516507924, 3.5588710049942165, 3.6590874679859553, 3.7927597812522436, 4.243892009730189]",,,2017_Feb_01_1624,59.8540796268,famFaceGrey,001,8,
207,./greyInner/WillSmith14_1_cut.png,0,118,118,206,,,1.ja,2.7,None,act,1.863,None,None,None,None,None,Will Smith,"['lshift', 'w', 'i', 'l', 'l', 'space', 'lshift', 's', 'm', 'i', 't', 'h', 'return']","[0.718617998634727, 0.9024829087902617, 1.1195868212907953, 1.3368418216250575, 1.4703569522207545, 1.7045530366394814, 1.8546964898851002, 1.9885301559752406, 2.2549060240089602, 2.455429410223587, 2.6225835570239724, 2.7230842319477233, 3.4753431714707403]",,,2017_Feb_01_1624,59.8540796268,famFaceGrey,001,8,
199,./greyInner/UrsulavonderLeyen7_1_cut.png,0,119,119,198,,,1.ja,1.516,None,None,None,None,None,polit,1.62,None,Panzer Uschi,"['lshift', 'p', 'a', 'n', 'z', 'e', 'r', 'space', 'lshift', 'u', 's', 'h', 'i', 'backspace', 'backspace', 'c', 'h', 'i', 'return']","[0.7193413596996834, 0.8863838747256523, 1.103625723038931, 1.220547175331376, 1.4209563635231461, 1.537696574572692, 1.6550491564739787, 1.855384244265224, 1.9889526245005982, 2.1393478908012185, 2.306194087877884, 2.423414187243907, 2.607206600901918, 3.0749485467331397, 3.2755473164743307, 3.809605272612316, 4.010447515101987, 4.194353164439235, 6.098800535832197]",,,2017_Feb_01_1624,59.8540796268,famFaceGrey,001,8,
190,./greyInner/TaylorSwift8_1_cut.png,0,120,120,189,,,1.ja,1.533,None,None,None,music,0.981,None,None,None,Taylor Swift,"['lshift', 't', 'a', 'y', 'l', 'o', 'r', 'space', 'lshift', 's', 'w', 'i', 'f', 't', 'return']","[1.1033052628608857, 1.2534127886392525, 1.620944366317417, 1.854893449397423, 2.0218317106100585, 2.239051104257669, 2.3393676509094803, 2.4896862505593162, 2.656665892516685, 2.7737172610959533, 3.024370050350626, 3.2081114598368003, 3.35831971083644, 3.5755156874729437, 3.9934265565589158]",,,2017_Feb_01_1624,59.8540796268,famFaceGrey,001,8,
214,./greyInner/notfamousface1_2_cut.png,0,121,121,213,,,2.nein,4.65,None,act,4.365,None,None,None,None,None,,['return'],[1.2199819592788117],,,2017_Feb_01_1624,59.8540796268,famFaceGrey,001,8,
142,./greyInner/MariskaHargitay(Liv)14_1_cut.png,0,122,122,141,,,2.nein,11.106,None,None,None,host,4.655,None,None,None,,['return'],[2.6403419909984223],,,2017_Feb_01_1624,59.8540796268,famFaceGrey,001,8,
164,./greyInner/OmarEpps(DrEricForeman)5_2_cut.png,0,123,123,163,,,2.nein,4.71,None,None,None,music,0.85,None,None,None,,['return'],[0.6184576723098871],,,2017_Feb_01_1624,59.8540796268,famFaceGrey,001,8,
114,./greyInner/JoshRadnor(Ted)7_1_cut.png,0,124,124,113,,,1.ja,5.188,None,act,1.295,None,None,None,None,None,Ted Mosby,"['lshift', 't', 'e', 'd', 'space', 'lshift', 'm', 'o', 's', 'b', 'y', 'return']","[6.48285522000333, 6.8672666126039985, 7.0677582415046345, 7.284797035470547, 7.535424483028692, 7.668996391856126, 7.80277809143081, 7.969757412605759, 8.18694889831022, 8.504303597364924, 8.671556865481762, 8.921999222426166]",,,2017_Feb_01_1624,59.8540796268,famFaceGrey,001,8,
163,./greyInner/OmarEpps(DrEricForeman)3_1_cut.png,0,125,125,162,,,2.nein,1.948,None,None,None,music,0.828,None,None,None,,['return'],[0.9025910119744367],,,2017_Feb_01_1624,59.8540796268,famFaceGrey,001,8,
31,./greyInner/BritneySpears1_1_cut.png,0,126,126,30,,,1.ja,1.58,None,None,None,music,0.611,None,None,None,Britney Spears,"['lshift', 'b', 'r', 'i', 't', 'n', 'e', 'y', 'space', 'lshift', 's', 'p', 'w', 'backspace', 'e', 'a', 'r', 's', 'return']","[0.4180946765754925, 0.6687792231459753, 0.8690941017357545, 1.1365057714901923, 1.8049090393506049, 1.9719249295558257, 2.138979634257339, 2.3728007257341233, 2.5900810677649133, 2.7236366167617234, 2.8740944353485247, 3.124636234389982, 3.442103527564541, 3.876449288380172, 4.010026971263869, 4.1938723137791385, 4.410869727002137, 4.577799006348869, 4.945434196277347]",,,2017_Feb_01_1624,59.8540796268,famFaceGrey,001,8,
223,./greyInner/notfamousface8_9_cut.png,0,127,127,222,,,2.nein,1.834,None,act,5.027,None,None,None,None,None,,['return'],[0.9026975112519722],,,2017_Feb_01_1624,59.8540796268,famFaceGrey,001,8,
73,./greyInner/GuentherJauch4_1_cut.png,0,128,128,72,,,1.ja,1.181,None,None,None,host,1.365,None,None,None,Günther Jauch,"['lshift', 'g', u'\xfc', 'n', 't', 'h', 'e', 'r', 'space', 'lshift', 'j', 'a', 'c', 'u', 'h', 'backspace', 'backspace', 'backspace', 'u', 'c', 'h', 'return']","[0.6854874202545034, 1.0865941787251359, 1.4541844593186397, 1.704565226318664, 1.9049545260913874, 2.3561143417318817, 2.590262950569013, 2.7069001909294457, 2.857408051346283, 3.0244784743154014, 3.225031051597398, 3.3585237275274267, 3.5423953740828438, 3.6761571852384805, 3.9769024877205084, 4.260839509437574, 4.427906403814632, 4.561586415826241, 5.163044301134505, 5.313092161653913, 5.380091756187539, 5.7476175598076225]",,,2017_Feb_01_1624,59.8540796268,famFaceGrey,001,8,
67,./greyInner/EmmaWatson(HermioneGranger)16_1_cut.png,0,129,129,66,,,1.ja,1.483,None,act,0.648,None,None,None,None,None,Emma Watson,"['lshift', 'e', 'm', 'm', 'a', 'space', 'lshift', 'w', 'backspace', 'lshift', 'w', 'a', 't', 's', 'o', 'n', 'return']","[0.4015763817969855, 0.5184163557241845, 0.6855464439504431, 0.8526884010734648, 0.9525125489508355, 1.0865152666083304, 1.3203501516654796, 1.4540048219805612, 1.8882456874216587, 2.6568487376625853, 2.807338634345797, 2.957726201902915, 3.1748172831648844, 3.3418883476952033, 3.676037854720562, 3.85982032416905, 4.1438869413923385]",,,2017_Feb_01_1624,59.8540796268,famFaceGrey,001,8,
158,./greyInner/NicoleKidman5_1_cut.png,0,130,130,157,,,1.ja,2.964,None,dummy,1.079,None,None,None,None,None,Nicole Kidman,"['lshift', 'n', 'i', 'c', 'l', 'backspace', 'o', 'l', 'e', 'space', 'lshift', 'k', 'i', 'd', 'm', 'a', 'n', 'return']","[1.2533505571318528, 2.339201807151767, 2.5730594676570036, 2.72350381344404, 2.8739330825246725, 3.52542124955653, 3.7425864312208432, 3.942947502271636, 4.110236697855726, 4.293940255187408, 4.594706408433922, 4.795225945277707, 4.978873045160071, 5.06240889820765, 5.212542407241926, 5.3131110877293395, 5.463396005377945, 5.914481399837314]",,,2017_Feb_01_1624,59.8540796268,famFaceGrey,001,8,
123,./greyInner/KaleyCuoco(Penny)3_1_cut.png,0,131,131,122,,,None,None,1,None,None,None,None,None,None,1,Penny,"['lshift', 'p', 'e', 'n', 'n', 'y', 'return']","[0.5523803230389603, 0.7194331030550529, 0.9030972043292422, 1.1203265421863762, 1.254020668558951, 1.5380744545436755, 1.9055758788126695]",3.97651658823,1.30303696167,2017_Feb_01_1624,59.8540796268,famFaceGrey,001,8,
116,./greyInner/JudithRakers1_1_cut.png,0,132,132,115,,,None,None,2,None,None,None,None,None,None,3,,['return'],[1.036073743693123],3.02432834883,1.72123108034,2017_Feb_01_1624,59.8540796268,famFaceGrey,001,8,
140,./greyInner/LisaEdelstein(DrLisaCuddy)9_1_cut.png,0,133,133,139,,,None,None,2,None,None,None,None,None,None,1,,['return'],[0.7023880859378551],3.39188173961,2.57313356806,2017_Feb_01_1624,59.8540796268,famFaceGrey,001,8,
79,./greyInner/GeorgeClooney3_1_cut.png,0,134,134,78,,,None,None,1,None,None,None,None,None,None,1,George Clooney,"['lshift', 'g', 'e', 'o', 'r', 'g', 'e', 'space', 'lshift', 'c', 'l', 'o', 'o', 'n', 'e', 'y', 'return']","[0.601738889430635, 0.9028822810869315, 1.0530539630562998, 1.220174107074854, 1.3706463608032209, 1.453900568167228, 2.022181041074873, 2.4565563137384743, 2.590235684187064, 2.807381298212931, 2.9578022269888606, 3.2250891129515367, 3.3418569111618126, 3.8762696510420938, 4.026983773615939, 4.227445249105585, 4.678499207029745]",1.73791072794,0.752002314755,2017_Feb_01_1624,59.8540796268,famFaceGrey,001,8,
165,./greyInner/OmarEpps(DrEricForeman)9_1_cut.png,0,135,135,164,,,None,None,2,None,None,None,None,None,None,2,,['return'],[0.7688301631624199],2.30580305589,1.15299262974,2017_Feb_01_1624,59.8540796268,famFaceGrey,001,8,
152,./greyInner/NeilPatrickHarris(Barney)11_2_cut.png,0,136,136,151,,,None,None,1,None,None,None,None,None,None,1,Barney Stinson,"['lshift', 'b', 'a', 'r', 'n', 'e', 'y', 'space', 'lshift', 's', 't', 'i', 'n', 's', 'o', 'n', 'return']","[0.7027980440070678, 1.0034544901645859, 1.187249790851638, 1.320824265925694, 1.4879684685147367, 1.6049450951304607, 1.7554353125942725, 2.0224803297114704, 2.2561785620800947, 2.40695652006616, 2.6574014432590047, 3.1754659022681153, 3.359222709239475, 3.476109196406469, 3.609794982472522, 3.76018158768602, 4.378060571145397]",3.10778464819,0.75212421152,2017_Feb_01_1624,59.8540796268,famFaceGrey,001,8,
181,./greyInner/SigmarGabriel1_2_cut.png,0,137,137,180,,,None,None,1,None,None,None,None,None,None,4,Sigmar Gabriel,"['lshift', 's', 'i', 'g', 'm', 'a', 'r', 'space', 'lshift', 'g', 'a', 'b', 'r', 'i', 'e', 'l', 'return']","[0.5352095597863809, 0.8860339026978181, 1.353758205576014, 1.9217846199644555, 2.6901008920267486, 2.8072533066097094, 2.9575055046007037, 3.0744641674828017, 3.3083683412278333, 3.709398112267081, 3.909735766306767, 4.678337854205893, 5.7138951405522675, 5.881137502117781, 6.031236366809026, 6.115148495922767, 6.566073179119485]",1.4372658299,1.82141418211,2017_Feb_01_1624,59.8540796268,famFaceGrey,001,8,
155,./greyInner/NeilPatrickHarris(Barney)3_7_cut.png,0,138,138,154,,,None,None,1,None,None,None,None,None,None,1,Barney Stinson,"['lshift', 'b', 'a', 'r', 'n', 'e', 'y', 'space', 'lshift', 's', 't', 'i', 'n', 'd', 'backspace', 's', 'o', 'n', 'return']","[0.5183942218354787, 0.7356161817315297, 0.9860408957229083, 1.086555043446424, 1.387218867565025, 1.504174322639301, 1.6545326991272304, 1.9050353628917946, 2.122137029926307, 2.3061405174576066, 2.5566066121937183, 2.8573535185823857, 3.041056755133468, 3.1749677294355934, 3.7261380666914192, 3.893177373907747, 4.009776762113688, 4.227192473708783, 4.811914253965369]",2.43952220317,0.802303335608,2017_Feb_01_1624,59.8540796268,famFaceGrey,001,8,
95,./greyInner/JanHofer9_2_cut.png,0,139,139,94,,,None,None,1,None,None,None,None,None,None,3,,['return'],[3.041380102342373],9.13881828144,1.23661316896,2017_Feb_01_1624,59.8540796268,famFaceGrey,001,8,
144,./greyInner/MariskaHargitay(Liv)6_5_cut.png,0,140,140,143,,,None,None,2,None,None,None,None,None,None,3,,['return'],[0.7859002011937264],3.45866961871,1.92178975246,2017_Feb_01_1624,59.8540796268,famFaceGrey,001,8,
78,./greyInner/GeorgeClooney16_1_cut.png,0,141,141,77,,,None,None,1,None,None,None,None,None,None,1,George Clooney,"['lshift', 'g', 'e', 'o', 'r', 'h', 'g', 'backspace', 'backspace', 'g', 'e', 'space', 'lshift', 'c', 'l', 'o', 'o', 'n', 'e', 'y', 'return']","[0.4513670401429408, 0.6852981594875018, 0.9025085712673899, 1.1197440039632056, 1.2701453651006887, 1.42035939015841, 1.4537700103173847, 2.055321563666439, 2.2223643994730082, 2.3225750884084846, 2.406108375207623, 2.673366711662311, 2.907181066739213, 3.0574868351504847, 3.2246140363495215, 3.408497872582302, 4.611321899845279, 4.8618880782414635, 4.978912180438783, 5.263047765569354, 5.713973090327272]",3.07447314935,0.46811886346,2017_Feb_01_1624,59.8540796268,famFaceGrey,001,8,
108,./greyInner/JoachimLoew15_1_cut.png,0,142,142,107,,,None,None,1,None,None,None,None,None,None,5,Joachim Loew,"['lshift', 'j', 'a', 'backspace', 'o', 'a', 'c', 'h', 'i', 'm', 'space', 'lshift', 'l', 'o', 'e', 'w', 'return']","[0.6189539204569883, 1.220017245184863, 1.404171820546253, 1.771839730132342, 2.0390348727396486, 2.6070766846132756, 2.807502874196871, 2.974685570501606, 3.141707876326109, 3.3420307744418096, 3.525764805965082, 3.642888029480673, 3.909963841570061, 4.110773685182721, 4.327869578159152, 4.678626557069947, 5.21332222575802]",2.79038119043,1.01923980045,2017_Feb_01_1624,59.8540796268,famFaceGrey,001,8,
171,./greyInner/SahraWagenknecht12_1_cut.png,0,143,143,170,,,None,None,1,None,None,None,None,None,None,4,Sahra Wagenknecht,"['lshift', 's', 'a', 'h', 'j', 'backspace', 'r', 'a', 'space', 'lshift', 'w', 'a', 'g', 'e', 'n', 'j', 'backspace', 'k', 'n', 'e', 'c', 'h', 't', 'return']","[0.33514745659158507, 0.5023195671237772, 0.7025218515991583, 0.8531750257898238, 1.3544119571743067, 1.7386392215030355, 1.888761182422968, 2.0060159261320223, 2.2565144197451446, 2.4569659510252677, 2.6908345180836477, 2.824299286068708, 3.0917751120159664, 3.208791515471603, 3.392532924957777, 4.010629077125486, 4.428375064797365, 5.012931322078657, 5.1967025641934015, 5.33040791789972, 5.514275715084295, 5.6477549182127404, 6.1154846743684175, 6.5666675862376]",3.60892117514,1.67088803718,2017_Feb_01_1624,59.8540796268,famFaceGrey,001,8,
40,./greyInner/CarenMiosga9_1_cut.png,0,144,144,39,,,None,None,2,None,None,None,None,None,None,4,,['return'],[1.5705936244139593],3.82645076397,4.89533590899,2017_Feb_01_1624,59.8540796268,famFaceGrey,001,8,
93,./greyInner/JanHofer5_1_cut.png,0,145,145,92,,,None,None,1,None,None,None,None,None,None,3,,['return'],[7.000333291418428],6.54910130006,2.05540496672,2017_Feb_01_1624,59.8540796268,famFaceGrey,001,8,
75,./greyInner/GuentherJauch9_1_cut.png,0,146,146,74,,,None,None,1,None,None,None,None,None,None,3,Günther Jauch,"['lshift', 'g', u'\xfc', 'n', 't', 'h', 'e', 'r', 'space', 'lshift', 'j', 'a', 'c', 'u', 'h', 'backspace', 'backspace', 'backspace', 'u', 'c', 'h', 'return']","[0.5350915123926825, 0.7355850659787393, 1.0863147785075853, 1.3537290145104635, 1.5376292105720495, 1.671132151490383, 1.8212191472885024, 1.9384463038331887, 2.08872288117891, 2.4561261464714335, 2.6065753039729316, 2.790310618620424, 2.974150187079431, 3.0911867997365334, 3.2916277452441136, 3.625880864517967, 3.776108362375453, 3.909661665906242, 4.1937568326356995, 4.3440882635241, 4.460852533144134, 5.8142389535878465]",1.80446090835,2.25583564723,2017_Feb_01_1624,59.8540796268,famFaceGrey,001,8,
117,./greyInner/JudithRakers2_1_cut.png,0,147,147,116,,,None,None,1,None,None,None,None,None,None,1,,['return'],[0.819065744699401],8.8047598762,6.18183468746,2017_Feb_01_1624,59.8540796268,famFaceGrey,001,8,
69,./greyInner/EmmaWatson(HermioneGranger)4_1_cut.png,0,148,148,68,,,None,None,1,None,None,None,None,None,None,1,Emma Watson,"['lshift', 'e', 'm', 'm', 'a', 'space', 'lshift', 'a', 'backspace', 'lshift', 'w', 'a', 't', 's', 'o', 'n', 'return']","[0.45139109871342953, 0.7188396582769201, 0.952549117979288, 1.1363752136385301, 1.2200294348604075, 1.386957110302319, 1.5707338056927256, 1.8214250886630907, 2.3393294779725693, 2.406057371032148, 2.4895293886675063, 2.639900917176419, 2.8903298013210588, 3.2079122548584564, 3.5085622853966925, 3.692192704669651, 4.661484664102318]",1.06985133727,0.635153038182,2017_Feb_01_1624,59.8540796268,famFaceGrey,001,8,
89,./greyInner/Ice-T(OdafinFinTutuola)6_1_cut.png,0,149,149,88,,,None,None,2,None,None,None,None,None,None,2,,['return'],[0.6685052762059058],4.19370711159,4.11003588897,2017_Feb_01_1624,59.8540796268,famFaceGrey,001,8,
16,./greyInner/BastianSchweinsteiger1_1_cut.png,0,150,150,15,,,None,None,1,None,None,None,None,None,None,5,Bastian Schweinsteiger,"['lshift', 'b', 'a', 's', 't', 'i', 'a', 'n', 'space', 'lshift', 's', 'c', 'h', 'w', 'e', 'i', 'n', 's', 't', 'e', 'i', 'g', 'e', 'r', 'return']","[0.484763225156712, 1.0529388026916422, 1.1530147636221955, 1.3702530833470519, 1.520375685830004, 2.2557022023538593, 2.3726281455783464, 2.472908764761087, 2.6730398358631646, 2.77343080369792, 3.0742245441051637, 3.1745831130629085, 3.291538247354765, 3.4585089074462303, 3.525417079405088, 3.6589553062294726, 3.8262650317956286, 3.9597695766206016, 4.09350219670705, 4.210423648997676, 4.32749747224625, 4.460920217925377, 4.560958968266277, 4.694870263347184, 5.296279389951451]",2.48987069961,1.92158316952,2017_Feb_01_1624,59.8540796268,famFaceGrey,001,8,
203,./greyInner/Usher2_1_cut.png,0,151,151,202,,,None,None,1,None,None,None,None,None,None,2,Usher,"['lshift', 'u', 's', 'h', 'e', 'r', 'return']","[0.4683649024573242, 0.7689713067848061, 1.002869385692975, 1.1031865739059867, 1.45387618881432, 1.5710414346358448, 1.8885639021336829]",2.62284242726,0.836247414505,2017_Feb_01_1624,59.8540796268,famFaceGrey,001,8,
222,./greyInner/notfamousface7_cut.png,0,152,152,221,,,None,None,2,None,None,None,None,None,None,1,,['return'],[0.5350356965063838],3.59240127645,6.28181409332,2017_Feb_01_1624,59.8540796268,famFaceGrey,001,8,
42,./greyInner/CobieSmulders(Robin)2_1_cut.png,0,153,153,41,,,None,None,1,None,None,None,None,None,None,1,Robin,"['lshift', 'r', 'o', 'b', 'i', 'n', 'return']","[0.5349949573228514, 0.6850447425276798, 1.0194338729306764, 1.2533281024661846, 1.3537463366810698, 1.5539656225464569, 1.9049580546816287]",3.07411868639,0.301250211716,2017_Feb_01_1624,59.8540796268,famFaceGrey,001,8,
17,./greyInner/BastianSchweinsteiger12_1_cut.png,0,154,154,16,,,None,None,1,None,None,None,None,None,None,5,Bastian Schweinsteiger,"['lshift', 'b', 'a', 's', 't', 'i', 'n', 'backspace', 'a', 'n', 'space', 'lshift', 's', 'c', 'h', 'w', 'e', 'i', 'n', 's', 't', 'e', 'i', 'g', 'e', 'r', 'return']","[2.1555790866204916, 2.506349538331051, 2.656747691658893, 2.8573153456472937, 3.007698743051151, 3.174591132587011, 3.3580909940101265, 3.7593741820073774, 3.8763245045847725, 4.010002271128542, 4.193468129769826, 4.377409065013126, 4.527897678572117, 4.661440075549763, 4.795361635622612, 4.8954863552608, 4.978985960058708, 5.212906814413145, 5.363244340140227, 5.430040559544068, 5.563608618998842, 5.680559583137438, 5.814303430559448, 5.931221675040433, 6.064845550383325, 6.198643930567414, 6.683104017716687]",1.45385886664,1.58742115204,2017_Feb_01_1624,59.8540796268,famFaceGrey,001,8,
138,./greyInner/LisaEdelstein(DrLisaCuddy)2_2_cut.png,0,155,155,137,,,None,None,1,None,None,None,None,None,None,1,,['return'],[0.33442024615396804],3.07444235438,0.735468301707,2017_Feb_01_1624,59.8540796268,famFaceGrey,001,8,
135,./greyInner/LeonardoDiCaprio7_1_cut.png,0,156,156,134,,,None,None,1,None,None,None,None,None,None,1,Leonardo diCaprio,"['lshift', 'l', 'e', 'o', 'n', 'a', 'r', 'd', 'o', 'space', 'd', 'i', 'lshift', 'c', 'a', 'p', 'r', 'i', 'o', 'return']","[0.5517442143936933, 0.7689430780592375, 0.9192520542801503, 1.0529939770149213, 1.2534942670026794, 1.6876478800222685, 1.887955701431565, 2.055286598540988, 2.2555668327877356, 2.439648590872821, 2.8739147980104462, 3.0072518951728853, 3.157947733232504, 3.3083590385795105, 3.525473216071987, 4.461091514956934, 4.561316318255194, 4.778371151269312, 4.9621725467950455, 5.2964676883748325]",1.01958913091,0.367656361472,2017_Feb_01_1624,59.8540796268,famFaceGrey,001,8,
85,./greyInner/HughLaurie(DrHouse)9_2_cut.png,0,157,157,84,,,None,None,1,None,None,None,None,None,None,1,Dr House,"['lshift', 'd', 'r', 'period', 'space', 'lshift', 'h', 'o', 'u', 's', 'e', 'return']","[0.5684572232185019, 0.7522826773147244, 0.9694869942577498, 1.3538246072366746, 1.5709349353564903, 1.7211893788153247, 1.9050783475431672, 2.1222124134546902, 2.3228336378615495, 2.4395738489092764, 2.539916058038216, 2.9408441415143898]",1.67113215149,0.251238214507,2017_Feb_01_1624,59.8540796268,famFaceGrey,001,8,
100,./greyInner/JasonSegel(Marshall)9_1_cut.png,0,158,158,99,,,None,None,1,None,None,None,None,None,None,1,,['return'],[0.7357281342865463],2.5062237922,0.451122605049,2017_Feb_01_1624,59.8540796268,famFaceGrey,001,8,
174,./greyInner/SahraWagenknecht6_2_cut.png,0,159,159,173,,,None,None,1,None,None,None,None,None,None,4,Sahra Wagenknecht,"['lshift', 's', 'a', 'h', 'r', 'a', 'space', 'lshift', 'w', 'a', 'g', 'e', 'n', 's', 'c', 'backspace', 'backspace', 'k', 'n', 'e', 'c', 'h', 't', 'return']","[0.40139931070734747, 0.6687622217559692, 0.9527621165398159, 1.1867333335048897, 1.671229668903834, 1.8382429928606143, 2.0053612121937476, 2.1055863362707896, 2.239080936886239, 2.3729036964232364, 2.673548915247011, 2.740321076080363, 3.174758580249545, 3.374981073924573, 3.458743719109407, 3.7927344395575346, 3.9934211032814346, 4.22733522123599, 4.427781940801651, 4.528065767795852, 4.745174492012666, 5.530337859339852, 5.647353621232469, 6.064822774935237]",1.90534331262,3.80919338986,2017_Feb_01_1624,59.8540796268,famFaceGrey,001,8,
178,./greyInner/Shakira3_1_cut.png,0,160,160,177,,,None,None,1,None,None,None,None,None,None,2,Shakira,"['lshift', 's', 'h', 'a', 'k', 'i', 'r', 'a', 'return']","[0.4181245092058816, 0.6351376406946656, 0.9024720022389374, 1.0195730918676418, 1.4372504324128386, 1.654268375617903, 1.704140191544866, 1.8214398445888946, 2.5566479929384514]",2.55655111709,0.919202974796,2017_Feb_01_1624,59.8540796268,famFaceGrey,001,8,
213,./greyInner/notfamousface12_2_cut.png,0,161,161,212,,,None,None,2,None,None,None,None,None,None,1,,['return'],[1.0363133670707612],3.20799501635,7.11708376746,2017_Feb_01_1624,59.8540796268,famFaceGrey,001,8,
134,./greyInner/LeonardoDiCaprio4_1_cut.png,0,162,162,133,,,None,None,1,None,None,None,None,None,None,1,Leonardo diCaprio,"['lshift', 'l', 'e', 'o', 'n', 'a', 'r', 'd', 'o', 'space', 'd', 'i', 'lshift', 'c', 'a', 'p', 'r', 'i', 'o', 'return']","[0.48497558215240133, 0.718979518776905, 0.9194608826855983, 1.1366934283523733, 1.387287835472307, 1.521021417902375, 1.6714157218593755, 1.9052765901742532, 2.1725105472778523, 2.4064654044141207, 3.041183142831869, 3.258386818211875, 3.442200082632553, 3.609264089982389, 3.8764768755409023, 4.8621530433119915, 4.995953027400901, 5.697781029783073, 5.864584562992604, 6.416074398086494]",3.79276491375,0.28456029912,2017_Feb_01_1624,59.8540796268,famFaceGrey,001,8,
71,./greyInner/GuentherJauch2_1_cut.png,0,163,163,70,,,None,None,1,None,None,None,None,None,None,3,Günther Jauch,"['lshift', 'g', u'\xfc', 'n', 't', 'h', 'e', 'r', 'space', 'lshift', 'j', 'a', 'c', 'u', 'h', 'backspace', 'backspace', 'backspace', 'u', 'c', 'h', 'return']","[0.6852939893342409, 1.0028363452529447, 1.4038109419670945, 1.671082430442766, 1.7712363411465049, 1.8714951472247776, 2.038656030425045, 2.1386248505168624, 2.339357706698138, 3.0075001796376455, 3.2745185719340952, 3.408168109754115, 3.542085178893103, 3.5923169110592426, 3.7927260992528318, 4.210298544423495, 4.394057276082094, 4.544542361050844, 4.811904309755846, 4.945573094431893, 5.079102980953394, 5.396601069098324]",1.52062749888,0.936005802287,2017_Feb_01_1624,59.8540796268,famFaceGrey,001,8,
90,./greyInner/Ice-T(OdafinFinTutuola)7_1_cut.png,0,164,164,89,,,None,None,2,None,None,None,None,None,None,2,,['return'],[0.8692381323871814],4.4108562542,2.18872249624,2017_Feb_01_1624,59.8540796268,famFaceGrey,001,8,
177,./greyInner/Shakira2_1_cut.png,0,165,165,176,,,None,None,1,None,None,None,None,None,None,2,Shakira,"['lshift', 's', 'h', 'a', 'k', 'i', 'r', 'a', 'return']","[0.5349311219124502, 1.6042291120265872, 1.78805905705849, 1.9384183958900394, 2.189011519885753, 2.3894592017950345, 2.5398926410289278, 2.740299904535277, 3.2748197852561134]",3.82608699836,0.652054345428,2017_Feb_01_1624,59.8540796268,famFaceGrey,001,8,
119,./greyInner/JudithRakers7_1_cut.png,0,166,166,118,,,None,None,1,None,None,None,None,None,None,3,,['return'],[0.5016350205551134],4.97875852636,1.05301226153,2017_Feb_01_1624,59.8540796268,famFaceGrey,001,8,
143,./greyInner/MariskaHargitay(Liv)4_4_cut.png,0,167,167,142,,,None,None,1,None,None,None,None,None,None,1,,['return'],[0.5517727638998622],9.10538552739,1.43699027905,2017_Feb_01_1624,59.8540796268,famFaceGrey,001,8,
10,./greyInner/AngelaMerkel6_1_cut.png,0,168,168,9,,,None,None,1,None,None,None,None,None,None,4,Angela Merkel,"['lshift', 'a', 'n', 'g', 'e', 'l', 'a', 'space', 'lshift', 'm', 'e', 'r', 'k', 'e', 'l', 'return']","[0.36791972263927164, 0.5517442143936933, 0.7520703203190351, 0.8692474350355042, 0.9194044252362801, 1.0530186771502485, 1.3538505904925842, 1.5709423133175733, 1.8717431109071185, 2.0053047547426104, 2.2726766476589546, 2.372979400728582, 2.4562939149127487, 2.606872347141689, 2.7070641099999193, 3.4922018148499774]",1.35372099499,1.26994134841,2017_Feb_01_1624,59.8540796268,famFaceGrey,001,8,
41,./greyInner/CobieSmulders(Robin)12_1_cut.png,0,169,169,40,,,None,None,1,None,None,None,None,None,None,1,Robin,"['lshift', 'r', 'o', 'v', 'backspace', 'b', 'i', 'n', 'return']","[0.35122724379834835, 0.6018444263663696, 0.8691733346331603, 1.0862660198017693, 1.4704480540149234, 1.6041097815086687, 1.7712116410129966, 1.9717337441034033, 2.355978972165758]",1.70420049837,0.21780161109,2017_Feb_01_1624,59.8540796268,famFaceGrey,001,8,
21,./greyInner/BenedictCumberbatch16_1_cut.png,0,170,170,20,,,None,None,1,None,None,None,None,None,None,1,Benedict Cumberbatch,"['lshift', 'b', 'e', 'n', 'e', 'd', 'i', 'c', 't', 'space', 'lshift', 'c', 'u', 'm', 'b', 'e', 'r', 'b', 'a', 't', 'c', 'h', 'return']","[0.4347784943311126, 0.6185962496856519, 0.7523083397918526, 0.9024511514744518, 1.0362947617759346, 1.5542915360019833, 1.7045690756895056, 1.8215139449894195, 2.0553626236287528, 2.2224368959687126, 2.389417500269701, 2.6567608436798764, 2.940740529262257, 3.157946770890703, 3.274584011251136, 3.508544963226086, 3.6425271508996957, 4.160504678269717, 4.845469546338791, 5.045794369139912, 5.296522862699931, 5.680702972227664, 6.365594060676813]",2.57316083444,0.618601702963,2017_Feb_01_1624,59.8540796268,famFaceGrey,001,8,
65,./greyInner/EmilyDeschanel8_3_cut.png,0,171,171,64,,,None,None,1,None,None,None,None,None,None,1,,['return'],[1.119914980214162],4.17696170389,1.75500610767,2017_Feb_01_1624,59.8540796268,famFaceGrey,001,8,
25,./greyInner/BenedictCumberbatch6_5_cut.png,0,172,172,24,,,None,None,1,None,None,None,None,None,None,1,Benedict Cumberbatch,"['lshift', 'b', 'e', 'n', 'e', 'd', 'i', 'c', 't', 'space', 'lshift', 'c', 'u', 'm', 'b', 'e', 'r', 'b', 'a', 't', 'c', 'h', 'return']","[0.702002186442769, 0.9528378208451613, 1.1198723163470277, 1.236765539912085, 1.7714592839147372, 2.0554829164884723, 2.3896170260268264, 3.091276618404663, 3.3251105411181925, 3.575649773913028, 3.7595060229832598, 4.060053403614802, 4.260712800956753, 4.444474740423175, 4.544685429358651, 4.728590437134699, 4.845390634221985, 5.19614761313278, 5.313139958016109, 5.496925956054838, 5.831180679233512, 5.947788728526575, 7.201143455811689]",2.3394504124,0.501472384609,2017_Feb_01_1624,59.8540796268,famFaceGrey,001,8,
184,./greyInner/SigmarGabriel4_5_cut.png,0,173,173,183,,,None,None,1,None,None,None,None,None,None,4,Sigmar Gabriel,"['lshift', 's', 'i', 'g', 'm', 'a', 'r', 'space', 'lshift', 'g', 'a', 'b', 'r', 'i', 'e', 'l', 'return']","[0.4009219886356732, 1.3536863506415102, 2.1055917895464518, 2.2391457346384414, 2.5397611208336457, 2.69032094776594, 2.8740857742614025, 3.0244553780848946, 3.3748999163399276, 3.8262172354316135, 4.009913735582813, 4.360974814844667, 4.845419183726335, 5.1963092867354135, 5.31314220348213, 5.44697554879167, 5.697336106590228]",1.27024512798,1.06936310865,2017_Feb_01_1624,59.8540796268,famFaceGrey,001,8,
23,./greyInner/BenedictCumberbatch3_9_cut.png,0,174,174,22,,,None,None,1,None,None,None,None,None,None,1,Benedict Cumberbatch,"['lshift', 'b', 'e', 'b', 'e', 'backspace', 'backspace', 'n', 'e', 'd', 'i', 'c', 't', 'space', 'lshift', 'c', 'u', 'm', 'b', 'e', 'r', 'b', 'a', 't', 'c', 'h', 'return']","[0.43494369652580644, 1.2201888629988389, 1.3370336486404995, 2.0383795172383543, 2.155597691917137, 2.590080746984313, 2.757156302448493, 3.0076932897754887, 3.10813173319184, 3.5923326293268474, 3.843868207783089, 3.909965766255482, 4.127176498817789, 4.845491038662658, 5.062604574593934, 5.179589862294961, 5.296616530740721, 5.49699524474272, 5.5806109722489055, 5.781022726689116, 5.897978823324593, 6.599643868978092, 6.699987361229432, 6.900376019442774, 7.184364366110458, 7.334561068995754, 7.652105991161079]",1.65455643692,0.117453948686,2017_Feb_01_1624,59.8540796268,famFaceGrey,001,8,
189,./greyInner/TaylorSwift7_1_cut.png,0,175,175,188,,,None,None,1,None,None,None,None,None,None,2,Taylor Swift,"['lshift', 't', 'a', 'y', 'l', 'o', 'r', 'space', 'lshift', 's', 'w', 'i', 'f', 't', 'return']","[0.5689059957803693, 0.8362817380675551, 1.070151267469555, 1.3540950255846838, 1.5042670283364714, 1.7049655609553156, 1.8386224767364183, 2.105806071229381, 2.4233513141753065, 2.690477809655931, 2.9412733464378107, 3.1750889846389327, 3.2753808311554167, 3.509306176445534, 3.709784974105787]",1.33684470865,0.551586390162,2017_Feb_01_1624,59.8540796268,famFaceGrey,001,8,
11,./greyInner/BarackObama1_3_cut.png,0,176,176,10,,,None,None,1,None,None,None,None,None,None,4,Barack Obama,"['lshift', 'b', 'a', 'r', 'a', 'c', 'k', 'space', 'lshift', 'o', 'b', 'm', 'a', 'm', 'backspace', 'backspace', 'backspace', 'm', 'backspace', 'a', 'm', 'a', 'return']","[0.4682263250815595, 1.220247245133578, 1.554237003238086, 1.7379662230468966, 1.8550464619147533, 2.222455180482939, 2.372885411907191, 2.5899075252636976, 3.024327386481673, 3.258397724765018, 3.4587783634524385, 3.659357244772764, 3.809719470633354, 3.943353610966369, 4.3276832044211915, 4.494606709711661, 4.661667188469437, 4.928937393820888, 5.396666508413546, 5.547046056446561, 5.647446326929639, 5.831000400334233, 6.048112973921889]",1.38718550635,1.18657775474,2017_Feb_01_1624,59.8540796268,famFaceGrey,001,8,
169,./greyInner/RobertSeanLeonard(Wilson)2_6_cut.png,0,177,177,168,,,None,None,2,None,None,None,None,None,None,1,,['return'],[0.535124873611494],3.49235418581,0.635384642035,2017_Feb_01_1624,59.8540796268,famFaceGrey,001,8,
96,./greyInner/JasonSegel(Marshall)11_1_cut.png,0,178,178,95,,,None,None,1,None,None,None,None,None,None,1,,['return'],[0.8528401304683939],1.55403170342,0.702083344027,2017_Feb_01_1624,59.8540796268,famFaceGrey,001,8,
109,./greyInner/JoachimLoew4_1_cut.png,0,179,179,108,,,None,None,1,None,None,None,None,None,None,5,Joachim Loew,"['lshift', 'j', 'o', 'a', 'c', 'h', 'i', 'm', 'space', 'lshift', 'l', 'o', 'e', 'w', 'return']","[0.4514013637035532, 0.6852670437328925, 0.9191484420298366, 1.0696588686951145, 1.2700510554968787, 1.4204273957202531, 1.570699161349694, 1.7879884852463874, 1.971862698050245, 2.5563618563210184, 2.7068122969449178, 2.974069671057805, 4.043400060048953, 4.193236525916291, 4.511099662795459]",0.853063073237,1.3534916366,2017_Feb_01_1624,59.8540796268,famFaceGrey,001,8,
195,./greyInner/TomCruise7_1_cut.png,0,180,180,194,,,None,None,1,None,None,None,None,None,None,1,Tom Cruise,"['lshift', 't', 'o', 'm', 'space', 'lshift', 'c', 'r', 'u', 'i', 's', 'e', 'return']","[0.43502998660369485, 0.8028319826316874, 1.0536563897003361, 1.2372653166494274, 1.421016670345125, 1.4878391937872948, 1.6546590868256317, 1.888777221471173, 2.2063064253707125, 2.4067188213739428, 2.5237448482566833, 2.690665145737512, 3.0748551994747686]",1.95500918717,0.284251387056,2017_Feb_01_1624,59.8540796268,famFaceGrey,001,8,
1,./greyInner/AlysonHannigan(Lily)1_1_cut.png,0,181,181,0,,,None,None,1,None,None,None,None,None,None,1,Lilly,"['lshift', 'l', 'i', 'l', 'l', 'y', 'return']","[0.46828182018725784, 0.6020186104287859, 0.8525912044424331, 1.0531492350019107, 1.2034498709181207, 1.3538486658071633, 1.75481363909239]",1.48754022593,0.167536517705,2017_Feb_01_1624,59.8540796268,famFaceGrey,001,8,
141,./greyInner/MariskaHargitay(Liv)13_1_cut.png,0,182,182,140,,,None,None,1,None,None,None,None,None,None,3,,['return'],[0.619363878524382],4.64468761067,1.62084203719,2017_Feb_01_1624,59.8540796268,famFaceGrey,001,8,
129,./greyInner/KatjaBurkard5_3_cut.png,0,183,183,128,,,None,None,1,None,None,None,None,None,None,3,,['return'],[0.5517698768726405],4.7618493279,1.47071173596,2017_Feb_01_1624,59.8540796268,famFaceGrey,001,8,
183,./greyInner/SigmarGabriel3_3_cut.png,0,184,184,182,,,None,None,1,None,None,None,None,None,None,4,Sigmar Gabriel,"['lshift', 's', 'i', 'g', 'm', 'a', 'r', 'space', 'lshift', 'g', 'a', 'b', 'r', 'i', 'e', 'l', 'return']","[0.568553778286514, 0.7189028521279397, 1.0029450899983203, 1.0864880002263817, 1.2701540261859918, 1.3370561033079866, 1.5040190646541305, 1.6545150561760238, 2.0053028300590086, 2.439610417939548, 2.62325302688987, 2.9574650862014096, 3.057857978721586, 3.893138880192055, 4.026752811325423, 4.16038855556144, 4.7783486966036435]",1.00268461586,1.78786979629,2017_Feb_01_1624,59.8540796268,famFaceGrey,001,8,
127,./greyInner/KatjaBurkard10_1_cut.png,0,185,185,126,,,None,None,1,None,None,None,None,None,None,3,,['return'],[0.36817730975053564],3.09090226702,1.1196102383,2017_Feb_01_1624,59.8540796268,famFaceGrey,001,8,
157,./greyInner/NicoleKidman3_1_cut.png,0,186,186,156,,,None,None,1,None,None,None,None,None,None,1,Nicole Kidman,"['lshift', 'n', 'i', 'c', 'l', 'backspace', 'o', 'l', 'e', 'space', 'lshift', 'k', 'i', 'd', 'm', 'a', 'n', 'return']","[0.6186209498191602, 1.2368919276104862, 1.504222119001497, 1.6544274829720962, 1.7882852076345443, 2.2560765537346015, 2.4564450027464773, 2.6570511504487513, 2.7572259119151568, 2.924231857912673, 3.275083146425459, 3.525657665124527, 3.7262041475696606, 3.8763075031947665, 3.96000952077884, 4.093703967932015, 4.210661668472312, 4.9958590385813295]",2.10550293322,0.601836086062,2017_Feb_01_1624,59.8540796268,famFaceGrey,001,8,
63,./greyInner/EmilyDeschanel5_1_cut.png,0,187,187,62,,,None,None,1,None,None,None,None,None,None,1,,['return'],[0.7187132705803378],3.60898789758,0.451234557606,2017_Feb_01_1624,59.8540796268,famFaceGrey,001,8,
72,./greyInner/GuentherJauch3_1_cut.png,0,188,188,71,,,None,None,1,None,None,None,None,None,None,3,Günther Jauch,"['lshift', 'g', u'\xfc', 'n', 't', 'h', 'e', 'r', 'space', 'lshift', 'j', 'a', 'u', 'c', 'h', 'return']","[0.4682253627379396, 0.7021757289421657, 1.0193809440697805, 1.2867733669681911, 1.4370618132070376, 1.5373709818977659, 1.6709993481726997, 1.8047537813654344, 1.9550576250912854, 2.2891449006092444, 2.4226911469577317, 2.6232565554782923, 2.7234419027172407, 3.174581509158088, 3.3250640278783976, 3.6925102778204746]",1.52064674574,1.32015832465,2017_Feb_01_1624,59.8540796268,famFaceGrey,001,8,
52,./greyInner/DannFlorek(DonaldDonCragen)10_1_cut.png,0,189,189,51,,,None,None,2,None,None,None,None,None,None,4,,['return'],[1.453839299005267],2.89057968969,1.65388055144,2017_Feb_01_1624,59.8540796268,famFaceGrey,001,8,
81,./greyInner/HughLaurie(DrHouse)2_1_cut.png,0,190,190,80,,,None,None,1,None,None,None,None,None,None,1,Dr House,"['lshift', 'd', 'r', 'space', 'lshift', 'h', 'o', 'u', 's', 'e', 'return']","[1.8046517730199412, 2.0047972792635846, 2.2390812576668395, 2.556535398820415, 2.7567572509324236, 2.840768501362618, 3.0744292023591697, 3.30820570528158, 3.5253394504125026, 3.6591554735496175, 4.110214563968839]",1.53692188855,0.568523304095,2017_Feb_01_1624,59.8540796268,famFaceGrey,001,8,
209,./greyInner/WillSmith5_1_cut.png,0,191,191,208,,,None,None,1,None,None,None,None,None,None,1,Will Smith,"['lshift', 'w', 'i', 'l', 'l', 'space', 'lshift', 's', 'm', 'i', 't', 'h', 'return']","[0.48481839948181005, 0.952754738576914, 1.1531126018162468, 1.3535583590382885, 1.4872874505363143, 1.6877524546162022, 1.7880025996091717, 1.8547263225154893, 2.2056905259269115, 2.4061449442360754, 2.5563660264742794, 2.6232260812885215, 2.8905880299935234]",1.98811121604,3.05762380862,2017_Feb_01_1624,59.8540796268,famFaceGrey,001,8,
29,./greyInner/Beyonce5_3_cut.png,0,192,192,28,,,None,None,1,None,None,None,None,None,None,2,Beyonce,"['lshift', 'b', 'e', 'y', 'o', 'n', 'c', 'e', 'return']","[0.4012899243971333, 0.6519010121282918, 0.8691813541572628, 1.3368812776825507, 1.5540512710613257, 1.7210511222201603, 1.8882610849068442, 2.005146609730218, 2.589951472255052]",2.52321267264,0.785980396433,2017_Feb_01_1624,59.8540796268,famFaceGrey,001,8,
33,./greyInner/BritneySpears5_1_cut.png,0,193,193,32,,,None,None,1,None,None,None,None,None,None,2,Britney Spears,"['lshift', 'lshift', 'b', 'r', 'i', 't', 'n', 'e', 'y', 'space', 'lshift', 's', 'p', 'e', 'a', 'r', 's', 'return']","[0.9360956209566211, 1.7211306758999854, 2.105442626401782, 2.3730605583132274, 2.9912147718350752, 3.291806420238572, 3.6089022490596108, 3.742950838393881, 3.96013462535484, 4.1105237968149595, 4.26091681764774, 4.361143545631421, 4.511603288903643, 4.7119117518759595, 4.995871549039293, 5.1294611008179345, 5.263060596807918, 5.697491043796617]",1.97139628253,0.534832000596,2017_Feb_01_1624,59.8540796268,famFaceGrey,001,8,
159,./greyInner/NicoleKidman7_1_cut.png,0,194,194,158,,,None,None,1,None,None,None,None,None,None,2,Nicole Kidman,"['backspace', 'lshift', 'n', 'i', 'c', 'o', 'l', 'e', 'space', 'lshift', 'k', 'i', 'd', 'm', 'a', 'n', 'return']","[1.6543665345907357, 4.527945795716732, 4.97905428640297, 5.245896569953402, 5.864395302227422, 6.064989581034752, 6.264924334187526, 6.83332285448887, 7.033636770736848, 7.184071493094962, 7.317966749129482, 7.635221043745332, 7.768252757434311, 8.00208668014784, 8.152991988175927, 8.270061320488821, 8.98846952837448]",1.80470053173,0.41799972541,2017_Feb_01_1624,59.8540796268,famFaceGrey,001,8,
37,./greyInner/CarenMiosga13_1_cut.png,0,195,195,36,,,None,None,2,None,None,None,None,None,None,1,,['return'],[1.0362395874490176],3.04124088341,2.28994556989,2017_Feb_01_1624,59.8540796268,famFaceGrey,001,8,
146,./greyInner/MilaKunis1_3_cut.png,0,196,196,145,,,None,None,1,None,None,None,None,None,None,1,Milla Kunis,"['lshift', 'm', 'i', 'l', 'l', 'a', 'space', 'lshift', 'k', 'u', 'n', 'i', 's', 'return']","[0.5012414223165251, 1.0028225516707607, 1.2029565098000603, 1.4038763812823163, 1.5709676550141012, 1.670891565770944, 1.788204370832318, 2.0051713098637265, 2.3227977103942976, 2.5732881844814983, 2.7568724112970813, 2.924077883051723, 3.0410625291915494, 3.458827763721274]",3.64250309233,0.702285436031,2017_Feb_01_1624,59.8540796268,famFaceGrey,001,8,
192,./greyInner/TomCruise4_1_cut.png,0,197,197,191,,,None,None,1,None,None,None,None,None,None,1,Tom Cruise,"['lshift', 't', 'o', 'm', 'space', 'lshift', 'c', 'r', 'u', 'i', 's', 'e', 'return']","[0.48496563794287795, 0.6852596657718095, 0.8190278925467283, 1.0027859826423082, 1.186594756129125, 1.3700763330380141, 1.4370380754171492, 1.7543350339001336, 1.9714947622887848, 2.1554985706006846, 2.305925594215296, 2.4729552780008817, 2.690080041265901]",1.38700330276,1.33681230978,2017_Feb_01_1624,59.8540796268,famFaceGrey,001,8,
166,./greyInner/RobertSeanLeonard(Wilson)1_1_cut.png,0,198,198,165,,,None,None,2,None,None,None,None,None,None,1,,['return'],[0.5351761985657504],3.25837077917,0.701935464003,2017_Feb_01_1624,59.8540796268,famFaceGrey,001,8,
24,./greyInner/BenedictCumberbatch4_1_cut.png,0,199,199,23,,,None,None,1,None,None,None,None,None,None,1,Benedict Cumberbatch,"['lshift', 'b', 'e', 'b', 'e', 'backspace', 'backspace', 'n', 'e', 'd', 'c', 'i', 'backspace', 'backspace', 'u', 'i', 'c', 't', 'backspace', 'backspace', 'backspace', 'backspace', 'i', 'c', 't', 'space', 'lshift', 'c', 'u', 'm', 'b', 'e', 'r', 'b', 'a', 't', 'c', 'h', 'return']","[0.7356222765702114, 1.1700200039012998, 1.3370605942400289, 1.5038942808605498, 1.6711866842542804, 2.2391977011557174, 2.4230738386449957, 2.706987443349135, 2.8240570964444487, 3.4754685968273407, 4.461097609797434, 4.628106122039753, 4.928843084218897, 5.062489093446857, 5.296559752510802, 5.379807865036128, 5.630621686332233, 5.847871233389014, 6.031582168683599, 6.165200590750828, 6.332359228483256, 6.816845298890257, 6.900219799113984, 7.13422822667053, 7.251208702658914, 7.451595756965617, 7.6520184179589705, 7.836045322499558, 8.002964978417367, 8.136640178712696, 8.320342132141377, 8.437287963784911, 8.687937866010543, 8.788060340180891, 9.022047275415389, 9.87410758736769, 10.04112315679231, 10.308403627133885]",1.20338026145,0.718798919095,2017_Feb_01_1624,59.8540796268,famFaceGrey,001,8,
46,./greyInner/CristinMilioti(Tracy_Mutter)10_1_cut.png,0,200,200,45,,,None,None,1,None,None,None,None,None,None,1,Lilly,"['lshift', 'l', 'i', 'l', 'l', 'y', 'return']","[0.5679407658699347, 0.818790193852692, 1.0193892843744834, 1.2366911187291407, 1.3701173930003279, 1.5206582938553765, 1.9047947771723557]",10.3083199033,0.685661604315,2017_Feb_01_1624,59.8540796268,famFaceGrey,001,8,
220,./greyInner/notfamousface5_1_cut.png,0,201,201,219,,,None,None,1,None,None,None,None,None,None,4,,['return'],[4.394468196491289],5.12954578699,1.83812366234,2017_Feb_01_1624,59.8540796268,famFaceGrey,001,8,
200,./greyInner/UrsulavonderLeyen8_2_cut.png,0,202,202,199,,,None,None,1,None,None,None,None,None,None,4,Heeres Uschi,"['lshift', 'h', 'e', 'e', 'r', 's', 'backspace', 'e', 's', 'space', 'lshift', 'u', 's', 'c', 'h', 'o', 'backspace', 'i', 'return']","[3.7259420695245353, 3.9261180499597685, 4.22709014458087, 4.394168266293491, 4.544576363830856, 4.694922871425661, 5.3464912336967245, 6.064783960437126, 6.1817952313977, 6.365481787339377, 6.699387180051417, 6.9501560920143675, 7.217600481426416, 7.685393431431294, 7.802381285380761, 7.986017157931201, 8.487354814536957, 8.83782790229634, 9.356041845234358]",1.75426670756,1.93823940011,2017_Feb_01_1624,59.8540796268,famFaceGrey,001,8,
121,./greyInner/KaleyCuoco(Penny)10_1_cut.png,0,203,203,120,,,None,None,1,None,None,None,None,None,None,1,Penny,"['lshift', 'p', 'e', 'n', 'n', 'y', 'return']","[1.3201191893731448, 1.6543023783979152, 1.854740757658874, 2.0218961875816603, 2.172209333955834, 2.3392755867716915, 2.706856885499292]",2.82377930013,0.719078960876,2017_Feb_01_1624,59.8540796268,famFaceGrey,001,8,
18,./greyInner/BastianSchweinsteiger14_1_cut.png,0,204,204,17,,,None,None,1,None,None,None,None,None,None,5,Bastian Schweinsteiger,"['lshift', 'b', 'a', 's', 't', 'i', 'a', 'n', 'space', 'lshift', 's', 'c', 'h', 'w', 'e', 'i', 'n', 's', 't', 'e', 'i', 'g', 'e', 'r', 'return']","[6.315245243458776, 6.683033125123984, 6.833308098563066, 7.016867946025741, 7.184137573971384, 7.368003446470539, 7.4679963251328445, 7.568406860606046, 7.752056205956251, 7.818827083663564, 7.935901869253939, 7.961191919399425, 8.052936557223802, 8.219850759865949, 8.303462958780074, 8.871405328556648, 9.038567815659917, 9.155614372526543, 9.28869869429218, 9.389416858706682, 9.489670211509292, 9.640048155637487, 9.756935284365682, 9.90738508342838, 10.425089626200133]",1.23670587465,3.64237830853,2017_Feb_01_1624,59.8540796268,famFaceGrey,001,8,
186,./greyInner/TaylorSwift1_2_cut.png,0,205,205,185,,,None,None,1,None,None,None,None,None,None,2,Taylor Swift,"['lshift', 't', 'a', 'y', 'l', 'o', 'r', 'space', 'lshift', 's', 'w', 'i', 'f', 't', 'return']","[0.6184528605972446, 0.7853417215428635, 1.0194194377872918, 1.2698682103509782, 1.4204164891689288, 1.6040151511260774, 1.7044279320671194, 1.9549116697544378, 2.3055820378067438, 2.4895297094499256, 2.740160685598312, 3.0074090778452955, 3.141167360408872, 3.358293086015692, 3.5586961793705996]",1.35380953053,0.434464449771,2017_Feb_01_1624,59.8540796268,famFaceGrey,001,8,
131,./greyInner/LeonardoDiCaprio1_1_cut.png,0,206,206,130,,,None,None,1,None,None,None,None,None,None,1,Leonardo diCaprio,"['lshift', 'l', 'e', 'o', 'n', 'a', 'r', 'd', 'o', 'space', 'd', 'i', 'lshift', 'c', 'a', 'p', 'r', 'i', 'o', 'return']","[0.952361461118926, 1.1364220476607443, 1.3535593213819084, 1.503923151147319, 1.7711481263831956, 1.9049214856531762, 2.0885451685262524, 2.2892244542872504, 2.4228412724496593, 2.723552572149856, 3.0910594496945123, 3.358340561599107, 3.5585806982253416, 3.7426143391658115, 3.926349653813304, 4.661475682238233, 4.761781001556301, 5.029078794070301, 5.195919858651905, 6.298720853843406]",2.40582159703,0.501528842058,2017_Feb_01_1624,59.8540796268,famFaceGrey,001,8,
32,./greyInner/BritneySpears14_2_cut.png,0,207,207,31,,,None,None,1,None,None,None,None,None,None,2,Britney Spears,"['lshift', 'b', 'r', 'i', 'n', 't', 'backspace', 'backspace', 't', 'n', 'e', 'y', 'space', 'lshift', 's', 'p', 'e', 'a', 'r', 's', 'return']","[0.5850496183975338, 0.7855665889946977, 1.019327373649503, 1.1864244214393693, 1.5206169131106435, 1.687537210591472, 2.23892920749131, 2.405956966591475, 2.5229852389420557, 2.7567931783996755, 2.9739833809799165, 3.224651888500375, 3.5419934355377336, 3.8926041383310803, 4.043018972268328, 4.176889848949941, 4.460991752079281, 4.57789331595086, 4.81170029306486, 5.446614349430092, 6.315542607409952]",1.85488318441,0.919393197903,2017_Feb_01_1624,59.8540796268,famFaceGrey,001,8,
66,./greyInner/EmmaWatson(HermioneGranger)11_2_cut.png,0,208,208,65,,,None,None,1,None,None,None,None,None,None,1,Emma Watson,"['lshift', 'e', 'm', 'm', 'a', 'space', 'lshift', 'w', 'a', 't', 's', 'o', 'n', 'return']","[0.43484457520935393, 0.6688472287096374, 0.8191263723019802, 0.9523864820330346, 1.019676062554936, 1.1533230341265153, 1.2534605850014486, 1.420364843434072, 1.6043734634586144, 1.8548110086885572, 2.1222573227878456, 2.7404731262540736, 2.9408194413790625, 3.2248007308680826]",1.57084864528,0.301223266115,2017_Feb_01_1624,59.8540796268,famFaceGrey,001,8,
44,./greyInner/CobieSmulders(Robin)4_7_cut.png,0,209,209,43,,,None,None,1,None,None,None,None,None,None,1,Robin,"['lshift', 'r', 'o', 'b', 'i', 'n', 'return']","[0.4680842191173724, 0.7516901948820305, 1.0361362959811231, 1.1695192648221564, 1.3201964975851297, 1.5037435138092405, 1.8882408757071971]",2.23885414475,0.952523776285,2017_Feb_01_1624,59.8540796268,famFaceGrey,001,8,
168,./greyInner/RobertSeanLeonard(Wilson)11_2_cut.png,0,210,210,167,,,None,None,2,None,None,None,None,None,None,1,,['return'],[0.4180876193950098],3.02415320242,1.08653740049,2017_Feb_01_1624,59.8540796268,famFaceGrey,001,8,
92,./greyInner/JanHofer3_1_cut.png,0,211,211,91,,,None,None,1,None,None,None,None,None,None,3,,['return'],[1.5543274634692352],2.77361364884,0.986030951513,2017_Feb_01_1624,59.8540796268,famFaceGrey,001,8,
175,./greyInner/SahraWagenknecht9_1_cut.png,0,212,212,174,,,None,None,1,None,None,None,None,None,None,4,Sahra Wagenknecht,"['lshift', 's', 'a', 'h', 'r', 'a', 'space', 'lshift', 'w', 'a', 'g', 'e', 'n', 'k', 'n', 'e', 'c', 'h', 't', 'return']","[0.7188457531174208, 1.08626794448719, 1.30348348876214, 1.587406396116421, 1.7879515954373346, 1.9049246934628172, 2.1388477932832757, 2.389338908935315, 2.589936395552286, 2.7235615540175786, 2.957286411205132, 3.04060509554256, 3.2246477183489333, 3.475228331888502, 3.6423690058873035, 3.725885612077036, 3.909670326991545, 4.043423156279459, 4.193667013965751, 4.527787650702521]",2.0556731396,2.60631547139,2017_Feb_01_1624,59.8540796268,famFaceGrey,001,8,
156,./greyInner/NicoleKidman14_1_cut.png,0,213,213,155,,,None,None,1,None,None,None,None,None,None,1,Nicole Kidman,"['lshift', 'n', 'i', 'c', 'o', 'l', 'e', 'space', 'lshift', 'k', 'i', 'd', 'm', 'a', 'n', 'return']","[0.6355389376767562, 0.9363124688843527, 1.4372988703380543, 1.788254091881754, 1.9051540518485126, 2.122321478980666, 2.3228772640723037, 2.4899406298609392, 2.757197683191407, 2.941171017311717, 3.258414405374424, 3.5258363401208044, 3.7763409285707894, 3.943398841083763, 4.076797848971182, 4.494712246647396]",1.77125334254,0.4846900871,2017_Feb_01_1624,59.8540796268,famFaceGrey,001,8,
88,./greyInner/Ice-T(OdafinFinTutuola)5_1_cut.png,0,214,214,87,,,None,None,2,None,None,None,None,None,None,2,,['return'],[0.651787776449055],3.09119064911,1.38691572956,2017_Feb_01_1624,59.8540796268,famFaceGrey,001,8,
