num,pic,trials.thisRepN,trials.thisTrialN,trials.thisN,trials.thisIndex,key_resp_2.keys,key_resp_2.rt,ratingBekannt.response,ratingBekannt.rt,key_resp_5.keys,ratingK1.response,ratingK1.rt,ratingK2.response,ratingK2.rt,ratingK3.response,ratingK3.rt,key_resp_6.keys,inputText,key_resp_4.keys,key_resp_4.rt,date,frameRate,expName,session,participant,
,,,,,,space,37.6324392313,,,,,,,,,,,,,,2017_Feb_02_1225,60.0717224368,famFaceGrey,001,9,
181,./greyInner/SigmarGabriel1_2_cut.png,0,0,0,180,,,1.ja,8.161,None,None,None,None,None,polit,4.943,None,Gabriel,"['lshift', 'g', 'a', 'b', 'r', 'i', 'e', 'l', 'return']","[4.065424239235654, 5.831546690309551, 6.2814015690037195, 6.4646906773350565, 6.664533045571261, 6.797592346422789, 6.980830129800779, 7.197403149812089, 7.94740507449751]",2017_Feb_02_1225,60.0717224368,famFaceGrey,001,9,
156,./greyInner/NicoleKidman14_1_cut.png,0,1,1,155,,,1.ja,19.953,None,dummy,2.594,None,None,None,None,None,Nicole Kidman,"['lshift', 'n', 'i', 'c', 'o', 'l', 'e', 'space', 'lshift', 'k', 'i', 'd', 'm', 'a', 'n', 'return']","[2.199654069812823, 2.383011825269932, 2.8163423143450927, 3.132745256291855, 3.6159058597704643, 3.849073199648956, 4.049068901184, 4.482069627432793, 4.765072214209795, 4.981749488033529, 5.181865161648602, 5.448451461991681, 5.59865650518168, 5.78168129000187, 5.84832128907783, 6.94755872857877]",2017_Feb_02_1225,60.0717224368,famFaceGrey,001,9,
154,./greyInner/NeilPatrickHarris(Barney)2_2_cut.png,0,2,2,153,,,1.ja,3.129,None,act,2.696,None,None,None,None,None,Neil Patrick Harris,"['lshift', 'n', 'e', 'i', 'l', 'space', 'lshift', 'p', 'a', 't', 't', 'backspace', 'r', 'i', 'c', 'k', 'space', 'lshift', 'h', 'a', 'r', 'r', 'i', 's', 'return']","[6.364728914425541, 6.514742130601007, 6.747950530442722, 6.914458624388317, 7.147613133029154, 7.247755495619458, 7.464046549166596, 7.547616084213587, 7.714174540769818, 7.980796127018948, 8.713776451597369, 9.979425750755581, 10.496324491754422, 10.729745248591826, 11.079690651672536, 11.179576710275796, 11.312885578714486, 11.629319636414039, 12.362442066958465, 12.545566935437819, 12.712271347330898, 12.862234842457838, 13.111927213516537, 13.295366447337983, 14.12831078029285]",2017_Feb_02_1225,60.0717224368,famFaceGrey,001,9,
210,./greyInner/WillSmith6_1_cut.png,0,3,3,209,,,1.ja,1.745,None,act,1.527,None,None,None,None,None,Will Smith,"['lshift', 'w', 'i', 'l', 'l', 'space', 'lshift', 's', 'm', 'i', 't', 'h', 'return']","[1.1498736764579007, 1.2663877369286638, 1.4330789968025783, 1.649730928930694, 1.7996174366262494, 2.016290861079142, 2.149358823015973, 2.34930127491225, 2.4493576682043567, 2.6493321981961344, 2.8159795110786945, 2.932527895111889, 4.115576738504387]",2017_Feb_02_1225,60.0717224368,famFaceGrey,001,9,
21,./greyInner/BenedictCumberbatch16_1_cut.png,0,4,4,20,,,1.ja,3.344,None,act,7.66,None,None,None,None,None,,['return'],[5.733203588127253],2017_Feb_02_1225,60.0717224368,famFaceGrey,001,9,
59,./greyInner/ElvisPresley5_2_cut.png,0,5,5,58,,,1.ja,1.915,None,None,None,music,0.833,None,None,None,Elvis Presley,"['lshift', 'e', 'l', 'v', 'i', 's', 'space', 'lshift', 'p', 'r', 'e', 's', 'l', 'e', 'y', 'return']","[1.1165993882068506, 1.2498242120336727, 1.4166447466341197, 1.8998954895632778, 2.09976127480968, 2.333011055395218, 2.4162482613674, 2.5828368713337113, 2.716180384116342, 2.849534482670606, 3.115937937865965, 3.4657989755542076, 3.665685611562367, 4.065552230838875, 4.548768650205602, 5.481842193731609]",2017_Feb_02_1225,60.0717224368,famFaceGrey,001,9,
68,./greyInner/EmmaWatson(HermioneGranger)3_1_cut.png,0,6,6,67,,,1.ja,2.825,None,dummy,2.226,None,None,None,None,None,Hermine Granger,"['lshift', 'h', 'e', 'r', 'm', 'i', 'n', 'e', 'space', 'lshift', 'g', 'r', 'a', 'n', 'g', 'e', 'r', 'return']","[11.579011558379534, 11.762294251092499, 11.9452885617211, 12.145982282626392, 12.245448759732426, 12.395103342794755, 12.528747427337294, 12.678657352043047, 12.795221454343846, 12.944935702664225, 13.111816544085741, 13.32826542186558, 13.478496127532708, 13.644774863090788, 13.844898235448454, 13.994577197862782, 14.161422753379156, 15.260649286326952]",2017_Feb_02_1225,60.0717224368,famFaceGrey,001,9,
125,./greyInner/KaleyCuoco(Penny)7_1_cut.png,0,7,7,124,,,1.ja,16.403,None,act,4.807,None,None,None,None,None,Penny,"['lshift', 'p', 'e', 'n', 'n', 'y', 'return']","[1.0500793612100097, 1.2165111092863299, 1.483301426320395, 1.8331871641430553, 1.9830457638954613, 2.09963873648303, 2.7161733269349497]",2017_Feb_02_1225,60.0717224368,famFaceGrey,001,9,
33,./greyInner/BritneySpears5_1_cut.png,0,8,8,32,,,1.ja,1.961,None,None,None,music,2.177,None,None,None,Britney Spears,"['lshift', 'b', 'r', 'i', 't', 'n', 'e', 'y', 'space', 'lshift', 's', 'p', 'e', 'a', 'r', 's', 'return']","[1.7338005614947178, 1.8838327037465206, 2.1668830868875375, 2.3668341998691176, 2.7332286090422713, 2.9164381636956023, 3.1165047578224403, 3.782877482202821, 4.18286888527291, 4.616000490153056, 5.032300718035913, 5.282242015119664, 5.532129421002537, 5.882073861740537, 6.215382601866622, 6.615276166744479, 6.8651507413887884]",2017_Feb_02_1225,60.0717224368,famFaceGrey,001,9,
148,./greyInner/MilaKunis4_1_cut.png,0,9,9,147,,,1.ja,6.344,None,None,None,music,6.162,None,None,None,,['return'],[2.666225165137803],2017_Feb_02_1225,60.0717224368,famFaceGrey,001,9,
91,./greyInner/JanHofer1_3_cut.png,0,10,10,90,,,2.nein,10.626,None,None,None,music,12.059,None,None,None,,['return'],[1.5503337405107231],2017_Feb_02_1225,60.0717224368,famFaceGrey,001,9,
55,./greyInner/DannFlorek(DonaldDonCragen)8_1_cut.png,0,11,11,54,,,2.nein,4.898,None,None,None,music,9.097,None,None,None,,['return'],[1.3499062678038172],2017_Feb_02_1225,60.0717224368,famFaceGrey,001,9,
35,./greyInner/BritneySpears8_5_cut.png,0,12,12,34,,,1.ja,1.505,None,None,None,music,1.472,None,None,None,Britney Spears,"['lshift', 'b', 'r', 'i', 't', 'n', 'e', 'y', 'space', 'lshift', 's', 'p', 'e', 'a', 'r', 's', 'return']","[1.0165057843223622, 1.1499647782502507, 1.4830326118753874, 1.7164944286760146, 1.8996510544711782, 2.0663253129532677, 2.2992703516265465, 2.7492936403250496, 2.9326924557444727, 3.165795960212563, 3.315857293531735, 3.9156686101714513, 4.232067381964953, 5.298399431319012, 5.514723846086781, 6.331158866129044, 6.780948626287682]",2017_Feb_02_1225,60.0717224368,famFaceGrey,001,9,
222,./greyInner/notfamousface7_cut.png,0,13,13,221,,,2.nein,10.565,None,None,None,None,None,sport,5.233,None,,['return'],[1.1517139968282208],2017_Feb_02_1225,60.0717224368,famFaceGrey,001,9,
32,./greyInner/BritneySpears14_2_cut.png,0,14,14,31,,,1.ja,1.476,None,None,None,music,1.044,None,None,None,Britney Spears,"['lshift', 'b', 'r', 'i', 't', 'n', 'e', 'y', 'space', 'lshift', 's', 'p', 'e', 'a', 'r', 's', 'return']","[1.0501229874198543, 1.2000361199361578, 1.5496049261682856, 1.7330749549619213, 1.899814652760142, 2.0497348424578377, 2.232767005240021, 2.5827265226826057, 2.699534097732794, 2.8493968676375516, 2.9159666156838284, 3.0823149607103915, 3.4825546482443315, 3.7990560699454363, 4.0822572201377625, 4.548665679516489, 5.831531292823456]",2017_Feb_02_1225,60.0717224368,famFaceGrey,001,9,
146,./greyInner/MilaKunis1_3_cut.png,0,15,15,145,,,2.nein,7.817,None,None,None,music,4.318,None,None,None,,['return'],[1.5333041208805298],2017_Feb_02_1225,60.0717224368,famFaceGrey,001,9,
114,./greyInner/JoshRadnor(Ted)7_1_cut.png,0,16,16,113,,,2.nein,9.291,None,dummy,2.443,None,None,None,None,None,,['return'],[1.3662433213403347],2017_Feb_02_1225,60.0717224368,famFaceGrey,001,9,
215,./greyInner/notfamousface13_1_cut.png,0,17,17,214,,,2.nein,9.094,None,None,None,None,None,sport,7.379,None,,['return'],[1.1330054096497406],2017_Feb_02_1225,60.0717224368,famFaceGrey,001,9,
71,./greyInner/GuentherJauch2_1_cut.png,0,18,18,70,,,2.nein,13.025,None,None,None,host,1.862,None,None,None,,['return'],[1.250125104574181],2017_Feb_02_1225,60.0717224368,famFaceGrey,001,9,
27,./greyInner/Beyonce11_2_cut.png,0,19,19,26,,,1.ja,4.359,None,None,None,music,2.493,None,None,None,,['return'],[3.098984984884737],2017_Feb_02_1225,60.0717224368,famFaceGrey,001,9,
56,./greyInner/ElvisPresley1_1_cut.png,0,20,20,55,,,1.ja,1.155,None,None,None,music,0.874,None,None,None,Elvis Presley,"['lshift', 'e', 'l', 'v', 'i', 's', 'space', 'lshift', 'p', 'r', 'e', 's', 'l', 'e', 'y', 'return']","[1.3996786416337272, 1.533218472363842, 1.7164552933991217, 2.0496729317328573, 2.3995403850394723, 2.582733579863998, 2.666100381344222, 2.8825996217346983, 3.0325669662333894, 3.199216845362571, 3.4323739202509387, 3.7489921062215217, 3.8655071290359047, 4.032102475402098, 4.398715336409623, 5.681652163089893]",2017_Feb_02_1225,60.0717224368,famFaceGrey,001,9,
64,./greyInner/EmilyDeschanel6_12_cut.png,0,21,21,63,,,1.ja,5.64,None,None,None,music,8.679,None,None,None,,['return'],[3.0159126603266486],2017_Feb_02_1225,60.0717224368,famFaceGrey,001,9,
130,./greyInner/KatjaBurkard7_1_cut.png,0,22,22,129,,,2.nein,4.725,None,None,None,music,10.49,None,None,None,,['return'],[1.2996979526469659],2017_Feb_02_1225,60.0717224368,famFaceGrey,001,9,
137,./greyInner/LisaEdelstein(DrLisaCuddy)10_1_cut.png,0,23,23,136,,,1.ja,3.245,None,act,1.729,None,None,None,None,None,Chefin von Dr House,"['lshift', 'c', 'h', 'e', 'f', 'i', 'n', 'space', 'v', 'o', 'n', 'space', 'lshift', 'd', 'r', 'period', 'space', 'lshift', 'h', 'o', 'u', 's', 'e', 'return']","[13.345102572920041, 13.47847271052251, 13.695157041527636, 13.811742636152303, 14.045000757043454, 14.194944363750437, 14.37803458788676, 14.611396641808824, 14.777882281086931, 14.994598369406958, 15.211152142560422, 15.311232594425746, 15.510974237439768, 15.594370229987362, 15.827629634001823, 16.093944232871763, 17.16029520830307, 17.860074703470673, 18.29324095269385, 18.54315145480632, 18.8930003028172, 19.10966506618388, 19.326016747332687, 19.859336907261422]",2017_Feb_02_1225,60.0717224368,famFaceGrey,001,9,
90,./greyInner/Ice-T(OdafinFinTutuola)7_1_cut.png,0,24,24,89,,,2.nein,11.521,None,dummy,2.11,None,None,None,None,None,,['return'],[1.4830300456278565],2017_Feb_02_1225,60.0717224368,famFaceGrey,001,9,
209,./greyInner/WillSmith5_1_cut.png,0,25,25,208,,,1.ja,0.996,None,act,0.912,None,None,None,None,None,Will Smith,"['lshift', 'w', 'i', 'l', 'l', 'space', 'lshift', 's', 'm', 'i', 't', 'h', 'return']","[0.9504034141355078, 1.1004317070164689, 1.3169665540935966, 1.5669784229894503, 1.7001945857300598, 1.7836261849643051, 1.9168009669620005, 2.033261457012486, 2.1999302622189134, 2.4332862213022963, 2.5498253026880775, 2.683155984232144, 3.099525180022283]",2017_Feb_02_1225,60.0717224368,famFaceGrey,001,9,
46,./greyInner/CristinMilioti(Tracy_Mutter)10_1_cut.png,0,26,26,45,,,2.nein,7.125,None,dummy,6.692,None,None,None,None,None,,['return'],[1.2326839229717734],2017_Feb_02_1225,60.0717224368,famFaceGrey,001,9,
205,./greyInner/Usher7_1_cut.png,0,27,27,204,,,1.ja,6.842,None,None,None,music,3.576,None,None,None,Usher,"['lshift', 'u', 's', 'h', 'e', 'r', 'return']","[1.4332782017791033, 1.6164977006419576, 1.7664079461292204, 1.9162617341671648, 2.116217338082606, 2.3494966305170237, 2.9827467960394642]",2017_Feb_02_1225,60.0717224368,famFaceGrey,001,9,
24,./greyInner/BenedictCumberbatch4_1_cut.png,0,28,28,23,,,1.ja,2.766,None,dummy,1.25,None,None,None,None,None,,['return'],[7.796911649224057],2017_Feb_02_1225,60.0717224368,famFaceGrey,001,9,
98,./greyInner/JasonSegel(Marshall)6_1_cut.png,0,29,29,97,,,1.ja,2.248,None,act,1.826,None,None,None,None,None,Marshell,"['lshift', 'm', 'a', 'r', 's', 'h', 'e', 'l', 'l', 'return']","[3.2328032534887825, 3.365974506895327, 3.5327549438761707, 3.7659947802521856, 3.984037297843315, 4.148917107633679, 4.282424860267383, 4.565495452608957, 4.715551974214577, 5.415262822256409]",2017_Feb_02_1225,60.0717224368,famFaceGrey,001,9,
186,./greyInner/TaylorSwift1_2_cut.png,0,30,30,185,,,1.ja,9.162,None,None,None,music,2.565,None,None,None,,['return'],[3.88205269019727],2017_Feb_02_1225,60.0717224368,famFaceGrey,001,9,
176,./greyInner/Shakira1_1_cut.png,0,31,31,175,,,2.nein,5.941,None,None,None,host,6.924,None,None,None,,['return'],[1.2664483645303335],2017_Feb_02_1225,60.0717224368,famFaceGrey,001,9,
170,./greyInner/RobertSeanLeonard(Wilson)8_1_cut.png,0,32,32,169,,,1.ja,4.127,None,act,3.629,None,None,None,None,None,bester freund von dr House,"['b', 'e', 's', 't', 'e', 'r', 'space', 'f', 'r', 'e', 'u', 'n', 'd', 'space', 'v', 'o', 'n', 'space', 'd', 'r', 'h', 'a', 'o', 'u', 's', 'backspace', 'backspace', 'backspace', 'backspace', 'backspace', 'space', 'lshift', 'h', 'o', 'u', 's', 'e', 'return']","[6.497855258498021, 6.6644916648274375, 6.91440697865346, 6.997780195752966, 7.164335765280157, 7.447503554252762, 7.647404304623706, 8.397156982502565, 8.615812833290875, 8.846987481843826, 8.91357904299457, 9.130095926338072, 9.264432897754887, 9.396769479102659, 9.696352912947077, 9.813133542396827, 10.029626687948621, 10.412703952534685, 10.562674184061507, 10.797977925137275, 11.096042140352438, 11.312426861940367, 11.445845758248652, 11.645783719211067, 11.729148916786471, 12.312235355707344, 12.512207961012791, 12.695260332995531, 12.878645034053989, 13.061930293013575, 14.028173229417007, 14.394736048594496, 14.57798794633436, 14.910992586110297, 15.09442476275035, 15.227575806956338, 15.46080922771307, 17.060282120438387]",2017_Feb_02_1225,60.0717224368,famFaceGrey,001,9,
212,./greyInner/notfamousface11_1_cut.png,0,33,33,211,,,1.ja,8.215,None,act,3.285,None,None,None,None,None,,['return'],[1.366569555577371],2017_Feb_02_1225,60.0717224368,famFaceGrey,001,9,
166,./greyInner/RobertSeanLeonard(Wilson)1_1_cut.png,0,34,34,165,,,1.ja,5.638,None,dummy,1.081,None,None,None,None,None,bester Freund von Dr House,"['b', 'e', 's', 't', 'e', 'r', 'space', 'lshift', 'f', 'r', 'e', 'u', 'n', 'd', 'space', 'v', 'o', 'n', 'space', 'lshift', 'd', 'r', 'space', 'lshift', 'h', 'o', 'u', 's', 'e', 'return']","[2.8324509718386253, 2.9825219285867206, 3.2321976190360147, 3.2992161396450683, 3.432364296822925, 3.6321235827899727, 3.765543120660368, 4.031899100274131, 4.198727333617171, 4.398632574921976, 4.615130532188232, 4.698517542869013, 4.881614503405217, 4.965023647972885, 5.148456466174139, 5.731425499263423, 5.947917682473417, 6.147898307302967, 6.264345645334288, 6.481229181315939, 6.564474086030714, 6.83114507254777, 7.214301890811839, 7.3809270698075125, 7.564214574234029, 7.730794202333527, 7.897286898792117, 8.030747175844226, 8.213912783506203, 8.430450838392971]",2017_Feb_02_1225,60.0717224368,famFaceGrey,001,9,
13,./greyInner/BarackObama2_1_cut.png,0,35,35,12,,,1.ja,4.362,None,None,None,None,None,polit,0.696,None,Barack Obama,"['lshift', 'b', 'a', 'r', 'a', 'c', 'k', 'space', 'lshift', 'o', 'b', 'a', 'm', 'a', 'return']","[1.332907443143995, 1.5163652822611766, 1.632856888065362, 1.7995638662059719, 1.8993206500817905, 2.19939872816758, 2.4324900429583067, 2.5658101387307397, 2.6991510852658394, 2.799144926271765, 3.0490509374503745, 3.1823309356022946, 3.3153620077291635, 3.415377020278356, 3.815329929632753]",2017_Feb_02_1225,60.0717224368,famFaceGrey,001,9,
152,./greyInner/NeilPatrickHarris(Barney)11_2_cut.png,0,36,36,151,,,2.nein,10.376,None,dummy,1.713,None,None,None,None,None,,['return'],[2.4162123338992387],2017_Feb_02_1225,60.0717224368,famFaceGrey,001,9,
220,./greyInner/notfamousface5_1_cut.png,0,37,37,219,,,2.nein,7.441,None,None,None,music,2.883,None,None,None,,['return'],[1.2999157629192268],2017_Feb_02_1225,60.0717224368,famFaceGrey,001,9,
89,./greyInner/Ice-T(OdafinFinTutuola)6_1_cut.png,0,38,38,88,,,2.nein,7.4,None,None,None,None,None,sport,3.85,None,,['return'],[2.282704902047044],2017_Feb_02_1225,60.0717224368,famFaceGrey,001,9,
194,./greyInner/TomCruise6_1_cut.png,0,39,39,193,,,1.ja,2.212,None,act,2.512,None,None,None,None,None,,['return'],[26.24025082504795],2017_Feb_02_1225,60.0717224368,famFaceGrey,001,9,
193,./greyInner/TomCruise5_1_cut.png,0,40,40,192,,,2.nein,7.492,None,dummy,1.527,None,None,None,None,None,,['return'],[1.6494101479702294],2017_Feb_02_1225,60.0717224368,famFaceGrey,001,9,
153,./greyInner/NeilPatrickHarris(Barney)13_4_cut.png,0,41,41,152,,,1.ja,3.058,None,dummy,0.856,None,None,None,None,None,Neil Patrick Harris,"['lshift', 'n', 'e', 'i', 'l', 'space', 'lshift', 'p', 'a', 't', 'r', 'i', 'c', 'k', 'space', 'lshift', 'h', 'a', 'r', 'r', 'i', 's', 'plus', 'return']","[1.2329238671300118, 1.366282456618137, 1.5495436570063248, 1.6327571251867994, 1.8325622828315318, 1.9326568490587306, 2.0826517807199707, 2.199374348814672, 2.365968732838155, 3.04912984956718, 3.232372123878122, 3.632142508866309, 3.7820832285451615, 3.9151463787684406, 4.014927862777768, 4.215169924090333, 4.3982476377696, 4.498444853903493, 4.698390513609411, 4.848022642003343, 5.198198686594878, 5.3148702505177425, 5.531532768416582, 6.464299645344909]",2017_Feb_02_1225,60.0717224368,famFaceGrey,001,9,
74,./greyInner/GuentherJauch7_1_cut.png,0,42,42,73,,,1.ja,1.894,None,None,None,host,1.528,None,None,None,Günther Jauch,"['lshift', 'g', u'\xfc', 'n', 't', 'h', 'e', 'space', 'backspace', 'r', 'space', 'lshift', 'j', 'a', 'u', 'c', 'h', 'return']","[1.3165488972836101, 1.482851049851888, 1.816502063263215, 2.099410982000336, 2.316401338041942, 2.416306643502139, 2.5828554766294474, 2.8327050303587384, 3.349245779805642, 3.8821684921240376, 4.298866167617234, 4.548813559539667, 4.732056796194229, 4.848711679506778, 4.965117957574876, 5.131872090516481, 5.248386792549354, 6.614397547693443]",2017_Feb_02_1225,60.0717224368,famFaceGrey,001,9,
12,./greyInner/BarackObama11_2_cut.png,0,43,43,11,,,1.ja,1.596,None,None,None,None,None,polit,1.086,None,Barack Obama,"['lshift', 'b', 'a', 'r', 'a', 'c', 'k', 'space', 'lshift', 'o', 'b', 'a', 'm', 'a', 'return']","[0.9999566945698461, 1.1664971873924515, 1.3164385486325045, 1.4831926815741099, 1.582938879678295, 1.8659886212572019, 2.082930218592992, 2.216152476172283, 2.382822243721421, 2.4660709978079467, 2.7659928555658553, 2.882685911813496, 3.032626631491439, 3.1006360444880556, 3.6823668630695465]",2017_Feb_02_1225,60.0717224368,famFaceGrey,001,9,
44,./greyInner/CobieSmulders(Robin)4_7_cut.png,0,44,44,43,,,1.ja,3.001,None,dummy,0.734,None,None,None,None,None,Robin,"['lshift', 'r', 'o', 'b', 'i', 'n', 'return']","[1.166740980922441, 1.3332189214570462, 1.5332143022114906, 1.7996334756744545, 1.899770064207587, 2.149512477096323, 2.5161259796650484]",2017_Feb_02_1225,60.0717224368,famFaceGrey,001,9,
174,./greyInner/SahraWagenknecht6_2_cut.png,0,45,45,173,,,2.nein,3.633,None,None,None,None,None,polit,2.521,None,,['return'],[1.0998873417265713],2017_Feb_02_1225,60.0717224368,famFaceGrey,001,9,
192,./greyInner/TomCruise4_1_cut.png,0,46,46,191,,,1.ja,6.289,None,act,2.208,None,None,None,None,None,,['return'],[8.496869819387939],2017_Feb_02_1225,60.0717224368,famFaceGrey,001,9,
16,./greyInner/BastianSchweinsteiger1_1_cut.png,0,47,47,15,,,1.ja,1.792,None,None,None,None,None,sport,4.59,None,Schweinsteiger,"['lshift', 's', 'c', 'h', 'w', 'e', 'i', 'n', 's', 't', 'e', 'i', 'g', 'e', 'r', 'return']","[0.9497028285177294, 1.0496225691213112, 1.266538503979973, 1.3997639693689052, 1.5496963487421453, 1.7664291176724873, 1.8493631856372303, 1.966228180478538, 2.0828301349329195, 2.2492968481346907, 2.3826695519837813, 2.5660555361655497, 2.7660307077194375, 2.849297104758989, 3.0658649922752375, 3.5490236710684258]",2017_Feb_02_1225,60.0717224368,famFaceGrey,001,9,
183,./greyInner/SigmarGabriel3_3_cut.png,0,48,48,182,,,1.ja,1.815,None,None,None,None,None,polit,1.13,None,Gabriell,"['lshift', 'g', 'a', 'b', 'r', 'i', 'e', 'l', 'l', 'return']","[1.0000988005358522, 1.2001038047183101, 1.8499306471558157, 1.9663933826732318, 2.166229014509554, 2.332751543597624, 2.46614285274336, 2.6327811837581976, 2.782725111246691, 3.149242379527095]",2017_Feb_02_1225,60.0717224368,famFaceGrey,001,9,
29,./greyInner/Beyonce5_3_cut.png,0,49,49,28,,,2.nein,9.722,None,None,None,music,1.226,None,None,None,,['return'],[1.333255169705808],2017_Feb_02_1225,60.0717224368,famFaceGrey,001,9,
131,./greyInner/LeonardoDiCaprio1_1_cut.png,0,50,50,130,,,1.ja,7.984,None,act,3.552,None,None,None,None,None,Brad Pitt,"['lshift', 'b', 'r', 'a', 'd', 'space', 'lshift', 'p', 'i', 't', 't', 'return']","[5.148282282112632, 5.331679814408744, 5.664911887885864, 6.048064856777273, 6.514646537874796, 7.197518310176747, 7.730532765850512, 8.030497287475555, 8.297142290734882, 8.530436339093285, 8.730307256834749, 11.379468157998417]",2017_Feb_02_1225,60.0717224368,famFaceGrey,001,9,
149,./greyInner/MilaKunis5_2_cut.png,0,51,51,148,,,2.nein,3.84,None,dummy,3.125,None,None,None,None,None,,['return'],[3.9159512181977334],2017_Feb_02_1225,60.0717224368,famFaceGrey,001,9,
214,./greyInner/notfamousface1_2_cut.png,0,52,52,213,,,2.nein,5.148,None,dummy,8.587,None,None,None,None,None,,['return'],[1.0332919312040758],2017_Feb_02_1225,60.0717224368,famFaceGrey,001,9,
206,./greyInner/WillSmith1_1_cut.png,0,53,53,205,,,1.ja,1.18,None,act,2.277,None,None,None,None,None,Will Smith,"['lshift', 'w', 'i', 'l', 'l', 'space', 'lshift', 's', 'm', 'i', 't', 'h', 'return']","[1.000109707088086, 1.1333634012016773, 1.2501247837935807, 1.5165882250284994, 1.6665427382886264, 1.7498466667002504, 1.916363742512658, 2.0492620113218436, 2.1163036281604946, 2.282859839249795, 2.4496672218310778, 2.5659692460876613, 2.865693823554466]",2017_Feb_02_1225,60.0717224368,famFaceGrey,001,9,
155,./greyInner/NeilPatrickHarris(Barney)3_7_cut.png,0,54,54,154,,,1.ja,2.396,None,dummy,1.248,None,None,None,None,None,Neil Patrick Harris,"['lshift', 'n', 'e', 'i', 'l', 'space', 'lshift', 'p', 'a', 't', 'r', 'i', 'c', 'k', 'space', 'lshift', 'h', 'a', 'r', 'r', 'i', 's', 'return']","[1.0498692496803415, 1.1832730692840414, 1.3497340084277312, 1.4665229781821836, 1.6996810154132618, 1.8163073492205513, 1.9495568731817912, 2.0495750935397155, 2.199758644405847, 2.432882678855094, 2.7491864994844946, 2.999179121522502, 3.1490264939411645, 3.248967726869523, 3.382372508815024, 3.5156970955213183, 3.6488125330406547, 3.715699212675645, 3.932167016531821, 4.0988762401393615, 4.383919956168938, 4.531915139321427, 5.181650879966583]",2017_Feb_02_1225,60.0717224368,famFaceGrey,001,9,
101,./greyInner/JimParsons(SheldonCooper)1_1_cut.png,0,55,55,100,,,1.ja,2.796,None,dummy,2.113,None,None,None,None,None,Sheldon,"['lshift', 's', 'h', 'e', 'l', 'd', 'o', 'n', 'return']","[2.16600158080837, 2.2660255752243756, 2.465944289328945, 2.5659060522384607, 2.715802183362939, 2.848969587398642, 2.999083208014781, 3.3323791169023025, 3.632211797553282]",2017_Feb_02_1225,60.0717224368,famFaceGrey,001,9,
78,./greyInner/GeorgeClooney16_1_cut.png,0,56,56,77,,,2.nein,4.092,None,None,None,host,4.191,None,None,None,,['return'],[1.283068988436753],2017_Feb_02_1225,60.0717224368,famFaceGrey,001,9,
76,./greyInner/GeorgeClooney11_1_cut.png,0,57,57,75,,,1.ja,6.361,None,dummy,1.695,None,None,None,None,None,Clooney,"['lshift', 'c', 'l', 'o', 'o', 'n', 'e', 'y', 'return']","[10.32979554704707, 10.479756155144969, 10.6131625409962, 10.829619117518632, 10.979541231901749, 11.295947060876642, 11.446137348142656, 11.779237580644804, 13.928459750971342]",2017_Feb_02_1225,60.0717224368,famFaceGrey,001,9,
163,./greyInner/OmarEpps(DrEricForeman)3_1_cut.png,0,58,58,162,,,2.nein,4.923,None,None,None,None,None,sport,5.023,None,,['return'],[0.9334235155538408],2017_Feb_02_1225,60.0717224368,famFaceGrey,001,9,
14,./greyInner/BarackObama4_1_cut.png,0,59,59,13,,,1.ja,2.645,None,None,None,None,None,polit,1.563,None,Barack Obama,"['lshift', 'b', 'a', 'r', 'a', 'c', 'k', 'space', 'lshift', 'o', 'b', 'a', 'm', 'a', 'return']","[1.0164034551953591, 1.1499737601170636, 1.299980560673248, 1.449702507737129, 1.5498695704609418, 1.8162999712576493, 1.949678128384221, 2.0330760456172356, 2.182862790435138, 2.2491576291977253, 2.4660155027022483, 2.5827133706634413, 2.699118686388829, 2.782622782119688, 3.2323333093809197]",2017_Feb_02_1225,60.0717224368,famFaceGrey,001,9,
39,./greyInner/CarenMiosga6_2_cut.png,0,60,60,38,,,2.nein,9.326,None,None,None,None,None,polit,4.079,None,,['return'],[1.1165188721852246],2017_Feb_02_1225,60.0717224368,famFaceGrey,001,9,
70,./greyInner/EmmaWatson(HermioneGranger)9_1_cut.png,0,61,61,69,,,1.ja,2.18,None,act,3.446,None,None,None,None,None,Hermine Granger,"['lshift', 'h', 'e', 'r', 'm', 'i', 'n', 'e', 'space', 'lshift', 'g', 'r', 'a', 'n', 'g', 'e', 'r', 'return']","[3.4492479611162707, 3.5992307031001474, 3.715597525110752, 3.915278219742504, 4.032276659463605, 4.148989924910893, 4.298918134132691, 4.398841724107115, 4.565063681436186, 5.0151318794678446, 5.314877307698225, 5.514993622874499, 5.731519167303304, 5.914906755389893, 6.098316156581859, 6.181548230058979, 6.38150030538327, 6.5308408438850165]",2017_Feb_02_1225,60.0717224368,famFaceGrey,001,9,
161,./greyInner/OmarEpps(DrEricForeman)1_5_cut.png,0,62,62,160,,,2.nein,6.263,None,None,None,None,None,sport,1.6,None,,['return'],[1.1331186453289774],2017_Feb_02_1225,60.0717224368,famFaceGrey,001,9,
81,./greyInner/HughLaurie(DrHouse)2_1_cut.png,0,63,63,80,,,1.ja,1.818,None,act,0.718,None,None,None,None,None,Dr House,"['lshift', 'd', 'r', 'space', 'lshift', 'h', 'o', 'u', 's', 'e', 'return']","[0.9664620297990041, 1.1998266499695092, 1.4830695016862592, 1.5662390228753793, 1.716108849961529, 1.8328888378491683, 1.9994248397379124, 2.1493819192455703, 2.2658792991069276, 2.465934665900022, 2.965808919763731]",2017_Feb_02_1225,60.0717224368,famFaceGrey,001,9,
18,./greyInner/BastianSchweinsteiger14_1_cut.png,0,64,64,17,,,1.ja,2.879,None,None,None,None,None,sport,1.396,None,Schweinsteiger,"['lshift', 's', 'c', 'h', 'w', 'e', 'i', 'n', 's', 't', 'e', 'i', 'g', 'e', 'r', 'return']","[1.4165558903087003, 1.6165163059386032, 1.8664489419361416, 1.9327614236517547, 2.116302345037184, 2.2993425273434696, 2.399248474365777, 2.4991755929322608, 2.5993516375228864, 2.799272917874987, 2.9491959946008137, 3.0989843433235365, 3.28244667337367, 3.3656784260692802, 3.565738283796236, 4.015716342379164]",2017_Feb_02_1225,60.0717224368,famFaceGrey,001,9,
177,./greyInner/Shakira2_1_cut.png,0,65,65,176,,,1.ja,8.36,None,None,None,music,1.445,None,None,None,Shakira,"['lshift', 'm', 'a', 'd', 'o', 'n', 'n', 'a', 'backspace', 'backspace', 'backspace', 'backspace', 'backspace', 'backspace', 'backspace', 'lshift', 's', 'h', 'a', 'k', 'i', 'r', 'a', 'return']","[4.232417033212187, 4.365837533425292, 4.4824099760307945, 4.6989948649379585, 4.798903378208706, 4.965619017434619, 5.115529583703392, 5.2154570230495665, 8.164262948002943, 9.363532722223681, 9.69657457259109, 9.880375968116823, 10.08025747162992, 10.263471517217113, 10.51321938338151, 13.378727153979526, 13.512201866175019, 13.745296388776296, 13.861961857860479, 14.328486760728083, 14.728388345129133, 14.994888034613723, 15.36123336429955, 16.09433237783378]",2017_Feb_02_1225,60.0717224368,famFaceGrey,001,9,
217,./greyInner/notfamousface2_cut.png,0,66,66,216,,,2.nein,6.204,None,None,None,None,None,sport,2.516,None,,['return'],[1.6332312394461042],2017_Feb_02_1225,60.0717224368,famFaceGrey,001,9,
199,./greyInner/UrsulavonderLeyen7_1_cut.png,0,67,67,198,,,2.nein,8.294,None,None,None,host,3.844,None,None,None,,['return'],[1.4999528451990045],2017_Feb_02_1225,60.0717224368,famFaceGrey,001,9,
208,./greyInner/WillSmith4_1_cut.png,0,68,68,207,,,1.ja,1.208,None,act,0.958,None,None,None,None,None,Will Smith,"['lshift', 'w', 'i', 'l', 'l', 'space', 'lshift', 's', 'm', 'i', 't', 'h', 'return']","[1.0660414218045844, 1.2013352828262214, 1.3658927077513, 1.5657097342909765, 1.7323435743728623, 1.8157726073595768, 1.9824975492338126, 2.0825006928871517, 2.2325129467199076, 2.348992042066129, 2.5323440234660666, 2.632336581347772, 3.198635590262711]",2017_Feb_02_1225,60.0717224368,famFaceGrey,001,9,
179,./greyInner/Shakira7_1_cut.png,0,69,69,178,,,1.ja,2.946,None,None,None,music,0.712,None,None,None,Shakira,"['lshift', 's', 'h', 'a', 'k', 'i', 'r', 'a', 'return']","[0.9000077628988947, 1.083408503004648, 1.2833156689948737, 1.4499963430971547, 1.5831855602373253, 1.8331095351495605, 2.066079915519367, 2.432841298110361, 3.0994395315055954]",2017_Feb_02_1225,60.0717224368,famFaceGrey,001,9,
135,./greyInner/LeonardoDiCaprio7_1_cut.png,0,70,70,134,,,1.ja,8.95,None,dummy,2.104,None,None,None,None,None,Orlando Bloom,"['lshift', 'o', 'r', 'l', 'a', 'n', 'd', 'o', 'space', 'lshift', 'b', 'l', 'o', 'o', 'm', 'return']","[9.579965560956225, 9.713174987296952, 9.979838916632616, 10.096666380101851, 10.379652286270357, 10.513009271852752, 10.729725360172779, 10.91287428722444, 11.062874992942852, 11.962593411415583, 12.1457936634215, 12.412205779703072, 12.56228828456642, 12.72899462114492, 12.945393136314124, 13.328685324142498]",2017_Feb_02_1225,60.0717224368,famFaceGrey,001,9,
169,./greyInner/RobertSeanLeonard(Wilson)2_6_cut.png,0,71,71,168,,,1.ja,2.23,None,act,1.359,None,None,None,None,None,Bester Freund von Dr House,"['lshift', 'b', 'e', 's', 't', 'e', 'r', 'space', 'lshift', 'f', 'r', 'e', 'u', 'd', 'backspace', 'b', 'backspace', 'n', 'd', 'space', 'v', 'o', 'n', 'space', 'lshift', 'd', 'r', 'period', 'space', 'lshift', 'h', 'o', 'u', 's', 'e', 'return']","[1.2163831176831081, 1.3498119582009167, 1.7496371967336017, 2.499404630537356, 2.566069650528334, 2.749349776992858, 2.965912211232535, 3.0326939954929912, 3.1990384911487126, 3.232485359556449, 3.4324249244236853, 3.6657093493531647, 3.748917364257977, 3.965629603206253, 4.498733235986947, 4.9315485508395795, 5.5983350826581955, 5.898035280773001, 6.014605477911573, 6.114431550475274, 6.264490959109025, 6.43111934591434, 6.614423210170571, 6.731043449139179, 6.914330953565695, 6.947530179072601, 7.180978523072554, 7.447596259949933, 7.664033910396938, 7.7972192781653575, 7.930697198170492, 8.113723586895503, 8.24720952642474, 8.347138569675735, 8.563439567433306, 8.963141626077231]",2017_Feb_02_1225,60.0717224368,famFaceGrey,001,9,
79,./greyInner/GeorgeClooney3_1_cut.png,0,72,72,78,,,1.ja,2.795,None,dummy,0.946,None,None,None,None,None,Clooney,"['lshift', 'c', 'l', 'o', 'o', 'n', 'e', 'y', 'return']","[0.7336587763111311, 0.8834413509757724, 1.0500485662378196, 1.2667608051860952, 1.4163691957892297, 1.6166792626663664, 1.7332003803185216, 2.1330544891370664, 2.632747822539386]",2017_Feb_02_1225,60.0717224368,famFaceGrey,001,9,
26,./greyInner/Beyonce1_1_cut.png,0,73,73,25,,,2.nein,3.968,None,None,None,music,0.659,None,None,None,,['return'],[1.0164239851774255],2017_Feb_02_1225,60.0717224368,famFaceGrey,001,9,
2,./greyInner/AlysonHannigan(Lily)12_2_cut.png,0,74,74,1,,,1.ja,3.682,None,act,0.734,None,None,None,None,None,Lilly,"['lshift', 'l', 'i', 'l', 'l', 'y', 'return']","[1.1332296355412836, 1.249963430970638, 1.433209554653331, 1.7163135082146255, 1.8497747476094446, 1.9664200074930704, 2.2659902893183244]",2017_Feb_02_1225,60.0717224368,famFaceGrey,001,9,
52,./greyInner/DannFlorek(DonaldDonCragen)10_1_cut.png,0,75,75,51,,,2.nein,4.418,None,None,None,music,2.619,None,None,None,,['return'],[1.1833115629988242],2017_Feb_02_1225,60.0717224368,famFaceGrey,001,9,
19,./greyInner/BastianSchweinsteiger3_1_cut.png,0,76,76,18,,,1.ja,1.112,None,None,None,None,None,sport,0.88,None,Schweinsteiger,"['lshift', 's', 'c', 'h', 'w', 'e', 'i', 'n', 's', 't', 'e', 'i', 'g', 'e', 'r', 'return']","[0.8835975713036532, 1.0170264118214618, 1.2502614364830151, 1.3667652319636545, 1.53336635238702, 1.7500400976205128, 1.8167404035175423, 1.9832067959378037, 2.1498727141151903, 2.3164715890725347, 2.48301079877092, 2.649648167443047, 2.8328291725911185, 2.9325330276078603, 3.1657712600790546, 3.9991467226454915]",2017_Feb_02_1225,60.0717224368,famFaceGrey,001,9,
49,./greyInner/CristinMilioti(Tracy_Mutter)8_1_cut.png,0,77,77,48,,,2.nein,6.019,None,dummy,3.171,None,None,None,None,None,,['return'],[1.3997617239028841],2017_Feb_02_1225,60.0717224368,famFaceGrey,001,9,
187,./greyInner/TaylorSwift2_1_cut.png,0,78,78,186,,,1.ja,2.077,None,None,None,music,1.776,None,None,None,Tailor Swift,"['lshift', 't', 'a', 'i', 'l', 'o', 'r', 'space', 'lshift', 's', 'w', 'i', 'f', 't', 'return']","[0.9999185216356636, 1.2331971725079711, 1.5163367327559172, 1.7330457638945518, 1.8993787114350198, 2.0493136570567003, 2.265756119217258, 2.365946919732778, 2.5326712200449037, 2.749165327940318, 3.1324414767213966, 3.3156564846512993, 3.4657367440477174, 3.6655707719783095, 4.998197531782353]",2017_Feb_02_1225,60.0717224368,famFaceGrey,001,9,
38,./greyInner/CarenMiosga2_11_cut.png,0,79,79,37,,,2.nein,5.672,None,None,None,host,1.541,None,None,None,,['return'],[1.099877397517048],2017_Feb_02_1225,60.0717224368,famFaceGrey,001,9,
124,./greyInner/KaleyCuoco(Penny)5_2_cut.png,0,80,80,123,,,1.ja,2.668,None,dummy,1.169,None,None,None,None,None,Penny,"['lshift', 'p', 'e', 'n', 'n', 'y', 'return']","[0.9997003905828024, 1.1332899423614435, 1.2997868089732947, 1.4831189019532758, 1.6664628638291106, 1.8161953966646252, 2.216069073122526]",2017_Feb_02_1225,60.0717224368,famFaceGrey,001,9,
88,./greyInner/Ice-T(OdafinFinTutuola)5_1_cut.png,0,81,81,87,,,2.nein,4.578,None,dummy,2.863,None,None,None,None,None,,['return'],[1.0499921087885014],2017_Feb_02_1225,60.0717224368,famFaceGrey,001,9,
141,./greyInner/MariskaHargitay(Liv)13_1_cut.png,0,82,82,140,,,2.nein,6.111,None,dummy,6.261,None,None,None,None,None,,['return'],[0.9999852440760151],2017_Feb_02_1225,60.0717224368,famFaceGrey,001,9,
113,./greyInner/JoshRadnor(Ted)6_2_cut.png,0,83,83,112,,,2.nein,6.011,None,None,None,host,5.061,None,None,None,,['return'],[1.0334449437223157],2017_Feb_02_1225,60.0717224368,famFaceGrey,001,9,
159,./greyInner/NicoleKidman7_1_cut.png,0,84,84,158,,,1.ja,4.661,None,act,4.528,None,None,None,None,None,,['return'],[15.41066378562573],2017_Feb_02_1225,60.0717224368,famFaceGrey,001,9,
4,./greyInner/AlysonHannigan(Lily)5_4_cut.png,0,85,85,3,,,1.ja,1.567,None,dummy,0.486,None,None,None,None,None,Lilly,"['lshift', 'l', 'i', 'l', 'l', 'y', 'return']","[1.0998510934787191, 1.2331593203552984, 1.4495154924379676, 1.6497036625487453, 1.8162316449142963, 1.8994319610756065, 2.1828653566835783]",2017_Feb_02_1225,60.0717224368,famFaceGrey,001,9,
60,./greyInner/ElvisPresley6_1_cut.png,0,86,86,59,,,1.ja,1.462,None,None,None,music,0.761,None,None,None,Elvis Presley,"['lshift', 'e', 'l', 'v', 'i', 's', 'space', 'lshift', 'p', 'r', 'e', 's', 'l', 'e', 'y', 'return']","[0.8836306117418644, 1.0004032216675114, 1.2001204853286254, 1.6833779646576659, 1.949834990274212, 2.199732661147209, 2.2997813556976325, 2.4995749652271115, 2.6829818001715466, 2.882825451531062, 3.099200870471577, 3.3826503051268446, 3.4991489681115127, 3.632538031790318, 3.949195673819304, 4.215536255946972]",2017_Feb_02_1225,60.0717224368,famFaceGrey,001,9,
145,./greyInner/MariskaHargitay(Liv)8_8_cut.png,0,87,87,144,,,2.nein,14.013,None,None,None,host,3.732,None,None,None,,['return'],[0.7685148354776175],2017_Feb_02_1225,60.0717224368,famFaceGrey,001,9,
122,./greyInner/KaleyCuoco(Penny)14_2_cut.png,0,88,88,121,,,1.ja,1.26,None,dummy,0.462,None,None,None,None,None,Penny,"['lshift', 'p', 'e', 'n', 'n', 'y', 'return']","[1.0164021720720484, 1.1498509010098132, 1.3497308006180901, 1.6330050888691403, 1.7996200028737803, 1.8995994087363215, 2.1327305003669608]",2017_Feb_02_1225,60.0717224368,famFaceGrey,001,9,
175,./greyInner/SahraWagenknecht9_1_cut.png,0,89,89,174,,,1.ja,8.307,None,None,None,None,None,polit,11.104,None,,['return'],[11.362660518792836],2017_Feb_02_1225,60.0717224368,famFaceGrey,001,9,
103,./greyInner/JimParsons(SheldonCooper)6_1_cut.png,0,90,90,102,,,1.ja,2.161,None,act,0.846,None,None,None,None,None,Sheldon,"['lshift', 's', 'h', 'e', 'l', 'd', 'o', 'n', 'return']","[1.0835448349134822, 1.233412737314211, 1.3669631538159592, 1.5002046582530966, 1.6167767800779984, 1.7500522872969668, 1.9000385578710848, 2.1996521451264925, 2.4828988462149937]",2017_Feb_02_1225,60.0717224368,famFaceGrey,001,9,
86,./greyInner/Ice-T(OdafinFinTutuola)10_1_cut.png,0,91,91,85,,,2.nein,5.079,None,dummy,2.064,None,None,None,None,None,,['return'],[0.9333356215711319],2017_Feb_02_1225,60.0717224368,famFaceGrey,001,9,
58,./greyInner/ElvisPresley4_10_cut.png,0,92,92,57,,,1.ja,0.963,None,None,None,music,1.094,None,None,None,Elvis Presley,"['lshift', 'e', 'l', 'v', 'i', 's', 'space', 'lshift', 'p', 'r', 'e', 's', 'l', 'e', 'y', 'return']","[0.8001646889451877, 0.9335450915377805, 1.150181305399201, 1.5165680158288524, 1.7827491698189988, 2.016271293439786, 2.1662447327762493, 2.349605054481799, 2.449509076817776, 2.5829805812036284, 2.782593591053228, 3.0992566863587854, 3.2491640448170074, 3.3658561387210284, 3.8822656887550693, 4.883697975744326]",2017_Feb_02_1225,60.0717224368,famFaceGrey,001,9,
45,./greyInner/CobieSmulders(Robin)5_1_cut.png,0,93,93,44,,,1.ja,2.079,None,dummy,0.663,None,None,None,None,None,Robin,"['lshift', 'r', 'o', 'b', 'i', 'n', 'return']","[0.900103997187216, 1.2999648424065526, 1.7829326565279189, 1.93286984761653, 2.0495654701107924, 2.3158495947891424, 2.982666921580858]",2017_Feb_02_1225,60.0717224368,famFaceGrey,001,9,
20,./greyInner/BastianSchweinsteiger6_2_cut.png,0,94,94,19,,,1.ja,1.442,None,None,None,None,None,sport,0.77,None,Schweinsteiger,"['lshift', 's', 'c', 'h', 'w', 'e', 'i', 'n', 's', 't', 'e', 'i', 'g', 'e', 'r', 'return']","[0.8334569409307733, 0.9330992060031349, 1.1498990181544286, 1.2666103589153863, 1.4165145095648768, 1.6164935304896062, 1.7163949865789618, 1.8493048035024913, 1.9662984315100402, 2.1159571847238112, 2.2491531382647736, 2.3493304659796195, 2.5327206203137393, 2.649062421409326, 2.8493121814644837, 3.132476121065338]",2017_Feb_02_1225,60.0717224368,famFaceGrey,001,9,
3,./greyInner/AlysonHannigan(Lily)14_2_cut.png,0,95,95,2,,,1.ja,4.077,None,act,0.58,None,None,None,None,None,Lilly,"['lshift', 'l', 'i', 'l', 'l', 'y', 'return']","[0.7169210673537236, 0.8167779348896147, 1.0001581450133017, 1.1998337071499918, 1.3332724918782333, 1.4664097425029468, 1.666570325452085]",2017_Feb_02_1225,60.0717224368,famFaceGrey,001,9,
213,./greyInner/notfamousface12_2_cut.png,0,96,96,212,,,2.nein,4.95,None,None,None,music,2.901,None,None,None,,['return'],[0.7334124165327012],2017_Feb_02_1225,60.0717224368,famFaceGrey,001,9,
83,./greyInner/HughLaurie(DrHouse)5_3_cut.png,0,97,97,82,,,1.ja,1.16,None,dummy,0.578,None,None,None,None,None,Dr House,"['lshift', 'd', 'r', 'space', 'lshift', 'h', 'o', 'u', 's', 'e', 'return']","[0.7834414151320743, 0.9000478605194075, 1.1331465532730363, 1.2166814439760856, 1.3832613928570936, 1.5498750237375134, 1.7175443447604266, 1.8830108629263123, 1.9829299619686935, 2.18277746269996, 2.5160194803866034]",2017_Feb_02_1225,60.0717224368,famFaceGrey,001,9,
224,./greyInner/notfamousface9_1_cut.png,0,98,98,223,,,2.nein,5.426,None,dummy,3.943,None,None,None,None,None,,['return'],[0.849502725354796],2017_Feb_02_1225,60.0717224368,famFaceGrey,001,9,
87,./greyInner/Ice-T(OdafinFinTutuola)12_1_cut.png,0,99,99,86,,,2.nein,1.93,None,dummy,0.88,None,None,None,None,None,,['return'],[1.1496719052329354],2017_Feb_02_1225,60.0717224368,famFaceGrey,001,9,
134,./greyInner/LeonardoDiCaprio4_1_cut.png,0,100,100,133,,,1.ja,1.427,None,dummy,3.294,None,None,None,None,None,Orlando Bloom,"['lshift', 'o', 'r', 'l', 'a', 'n', 'd', 'o', 'space', 'lshift', 'b', 'l', 'o', 'o', 'm', 'return']","[0.9165241329928904, 1.0499269902529704, 1.2498938215021553, 1.3998425607042009, 1.632807487797436, 1.7330579535710058, 1.9327973511190066, 2.215955195881179, 2.3658875752553286, 2.532246506053525, 2.6991520476085498, 2.7990445218310924, 2.9660552795412514, 3.132417418149089, 3.332294109947725, 3.6322470834593332]",2017_Feb_02_1225,60.0717224368,famFaceGrey,001,9,
178,./greyInner/Shakira3_1_cut.png,0,101,101,177,,,1.ja,1.664,None,None,None,music,0.996,None,None,None,Shakira,"['lshift', 's', 'h', 'a', 'k', 'i', 'r', 'a', 'return']","[0.7669622556286413, 0.8835940427125024, 1.0501541031735542, 1.1666752208257094, 1.3666333909877721, 1.783199867068106, 1.9333850218381485, 2.3162707801902798, 2.7995253724902796]",2017_Feb_02_1225,60.0717224368,famFaceGrey,001,9,
173,./greyInner/SahraWagenknecht5_1_cut.png,0,102,102,172,,,1.ja,7.359,None,None,None,None,None,polit,6.342,None,,['return'],[3.2828438002024996],2017_Feb_02_1225,60.0717224368,famFaceGrey,001,9,
23,./greyInner/BenedictCumberbatch3_9_cut.png,0,103,103,22,,,1.ja,1.356,None,act,1.236,None,None,None,None,None,,['return'],[2.3329433706121563],2017_Feb_02_1225,60.0717224368,famFaceGrey,001,9,
94,./greyInner/JanHofer7_1_cut.png,0,104,104,93,,,1.ja,5.292,None,None,None,music,2.075,None,None,None,Phil Collins,"['lshift', 'p', 'h', 'i', 'l', 'space', 'lshift', 'c', 'o', 'l', 'l', 'i', 'n', 's', 'return']","[1.0002996094171976, 1.0836279171817296, 1.350208122687036, 1.6001112468366046, 1.8332433008099542, 1.949942131114767, 2.1165284956141477, 2.282868821116608, 2.44976602236693, 2.8828604166556033, 3.0327985700860154, 3.216056883446072, 3.4158623618714046, 3.799222555263441, 4.8986742764464]",2017_Feb_02_1225,60.0717224368,famFaceGrey,001,9,
118,./greyInner/JudithRakers4_3_cut.png,0,105,105,117,,,2.nein,9.577,None,None,None,host,2.462,None,None,None,,['return'],[0.616771006019917],2017_Feb_02_1225,60.0717224368,famFaceGrey,001,9,
182,./greyInner/SigmarGabriel11_3_cut.png,0,106,106,181,,,1.ja,1.844,None,None,None,None,None,polit,1.028,None,Gabriell,"['lshift', 'g', 'a', 'b', 'r', 'i', 'e', 'l', 'l', 'return']","[0.8500634504744085, 1.0000381729341825, 1.1667457926369025, 1.2499653556560588, 1.4332878252080263, 1.583228224105369, 1.7165479990972017, 1.9496110851632693, 2.4829174515107297, 2.916082738392106]",2017_Feb_02_1225,60.0717224368,famFaceGrey,001,9,
202,./greyInner/Usher11_1_cut.png,0,107,107,201,,,1.ja,2.377,None,None,None,music,1.047,None,None,None,Usher,"['lshift', 'u', 's', 'h', 'e', 'r', 'return']","[0.9000132161754664, 1.0333814290916052, 1.2665298428937604, 1.4500418939933297, 1.585507372829852, 1.749705843859374, 2.182969289713583]",2017_Feb_02_1225,60.0717224368,famFaceGrey,001,9,
57,./greyInner/ElvisPresley2_1_cut.png,0,108,108,56,,,1.ja,1.744,None,None,None,music,0.917,None,None,None,Elvis Presley,"['lshift', 'e', 'l', 'v', 'i', 's', 'space', 'lshift', 'p', 'r', 'e', 's', 'l', 'e', 'y', 'return']","[0.9996939749635203, 1.0997773138569755, 1.516646607164148, 1.8998201060376232, 2.0994356821347537, 2.3162582697332255, 2.416259809481744, 2.6326618532411885, 2.7492320503806695, 2.849445305563677, 3.0325637584237484, 3.2657365515788115, 3.382381490681837, 3.5154061471903333, 3.9323947710136054, 4.16554350559727]",2017_Feb_02_1225,60.0717224368,famFaceGrey,001,9,
75,./greyInner/GuentherJauch9_1_cut.png,0,109,109,74,,,1.ja,2.586,None,None,None,host,1.087,None,None,None,Günter Jauch,"['lshift', 'g', u'\xfc', 'n', 't', 'e', 'r', 'space', 'lshift', 'j', 'a', 'u', 'c', 'h', 'return']","[0.8667665150869652, 0.9833572422076031, 1.3167195527539661, 1.6165884816537073, 1.8664489419361416, 1.9663847215879287, 2.166333589102578, 2.2662895779549217, 2.699405785348972, 2.832537582697114, 3.965517329870636, 4.132133206217986, 4.298538650255978, 4.448514976621482, 4.798602806447889]",2017_Feb_02_1225,60.0717224368,famFaceGrey,001,9,
120,./greyInner/JudithRakers8_1_cut.png,0,110,110,119,,,1.ja,2.209,None,dummy,0.759,None,None,None,None,None,Robin,"['lshift', 'r', 'o', 'b', 'i', 'n', 'return']","[2.0494778969086838, 2.182862469653628, 2.349429266514562, 2.6493103850907573, 2.7825874962145463, 3.032256129482448, 3.349011930485176]",2017_Feb_02_1225,60.0717224368,famFaceGrey,001,9,
34,./greyInner/BritneySpears7_1_cut.png,0,111,111,33,,,1.ja,1.23,None,None,None,music,0.447,None,None,None,Britney Spears,"['lshift', 'b', 'r', 'i', 't', 'n', 'e', 'y', 'space', 'lshift', 's', 'p', 'e', 'r', 'backspace', 'a', 'r', 's', 'return']","[0.850350228653042, 1.0003393862562007, 1.233354355179472, 1.4500864825477038, 1.6499958940039505, 1.7831790163063488, 1.9661637035060266, 2.383053526794356, 2.5327751530767273, 2.732759306497428, 2.7659482670133, 3.0154128835902156, 3.215426228078286, 3.4487914898099916, 3.8158181582557518, 3.9987598608067856, 4.232372444658722, 4.515507193192207, 4.748801241550609]",2017_Feb_02_1225,60.0717224368,famFaceGrey,001,9,
138,./greyInner/LisaEdelstein(DrLisaCuddy)2_2_cut.png,0,112,112,137,,,1.ja,2.007,None,dummy,0.925,None,None,None,None,None,Chefin von Dr House,"['lshift', 'c', 'h', 'e', 'f', 'i', 'n', 'space', 'v', 'o', 'n', 'space', 'lshift', 'd', 'r', 'space', 'lshift', 'h', 'o', 'u', 's', 'e', 'return']","[0.9333933621437609, 1.049901648557352, 1.2501183681742987, 1.3498116374203164, 1.5497508815060428, 1.6996348229540672, 1.849591260899615, 1.983065652314508, 2.132810695607077, 2.3326549885287022, 2.499227238666208, 2.6160036979626966, 2.7991484548620065, 2.8659863757911808, 3.115848119196926, 3.7322389997789287, 3.8985895902724224, 3.9988333196470194, 4.182007267613699, 4.31532191010956, 4.431900768334344, 4.631537515974742, 4.915048540574389]",2017_Feb_02_1225,60.0717224368,famFaceGrey,001,9,
40,./greyInner/CarenMiosga9_1_cut.png,0,113,113,39,,,2.nein,6.343,None,act,3.645,None,None,None,None,None,,['return'],[0.7674235386502914],2017_Feb_02_1225,60.0717224368,famFaceGrey,001,9,
61,./greyInner/EmilyDeschanel15_1_cut.png,0,114,114,60,,,1.ja,7.391,None,None,None,music,2.326,None,None,None,,['return'],[0.5168794941409942],2017_Feb_02_1225,60.0717224368,famFaceGrey,001,9,
7,./greyInner/AngelaMerkel3_1_cut.png,0,115,115,6,,,1.ja,1.168,None,None,None,None,None,polit,1.155,None,Angela Merkel,"['lshift', 'a', 'n', 'g', 'e', 'l', 'a', 'space', 'lshift', 'm', 'e', 'r', 'k', 'e', 'l', 'return']","[0.9666628386803495, 1.1997560781574066, 1.383144628586706, 1.5662261916368152, 1.6995093975992859, 1.8663334607908837, 2.0662707801911893, 2.2494344631668355, 2.5160775417398327, 2.8829204026960724, 3.115732317270158, 3.3157976282736854, 3.4823291392294777, 3.5654617706086356, 3.715371374533788, 4.098788025375143]",2017_Feb_02_1225,60.0717224368,famFaceGrey,001,9,
144,./greyInner/MariskaHargitay(Liv)6_5_cut.png,0,116,116,143,,,2.nein,5.142,None,dummy,5.172,None,None,None,None,None,,['return'],[0.6168794299846923],2017_Feb_02_1225,60.0717224368,famFaceGrey,001,9,
25,./greyInner/BenedictCumberbatch6_5_cut.png,0,117,117,24,,,1.ja,1.434,None,act,1.037,None,None,None,None,None,,['return'],[1.3998531464767439],2017_Feb_02_1225,60.0717224368,famFaceGrey,001,9,
139,./greyInner/LisaEdelstein(DrLisaCuddy)6_3_cut.png,0,118,118,138,,,1.ja,1.408,None,dummy,0.941,None,None,None,None,None,Chefin von Dr House,"['lshift', 'c', 'h', 'e', 'f', 'i', 'n', 'space', 'v', 'o', 'n', 'space', 'lshift', 'd', 'r', 'space', 'lshift', 'h', 'o', 'u', 's', 'e', 'return']","[0.9166296699286249, 1.049931801967432, 1.2163013185381715, 1.316479929376328, 1.5663397480966523, 1.999558605398306, 2.182813069385702, 2.4158957230911255, 2.749025467442152, 2.9158232265945117, 3.1157425822611913, 3.2157951261824564, 3.4822633791318367, 3.965422057925025, 4.581802673516904, 4.748302747937487, 4.915025765126302, 5.031564846512083, 5.214929979932094, 5.364886738658242, 5.448103735429868, 5.664756629900694, 5.964743285412624]",2017_Feb_02_1225,60.0717224368,famFaceGrey,001,9,
106,./greyInner/JoachimLoew1_1_cut.png,0,119,119,105,,,1.ja,2.336,None,None,None,None,None,sport,1.487,None,Jogi Löw,"['lshift', 'j', 'o', 'g', 'i', 'space', 'lshift', 'l', u'\xf6', 'w', 'return']","[0.9998117015766184, 1.13312730641519, 1.36650507860395, 1.6496552246235296, 1.9994982985781462, 2.499318982020668, 3.215801862582339, 3.365756055060956, 3.6322204586394946, 3.8989100504522867, 4.481866573084517]",2017_Feb_02_1225,60.0717224368,famFaceGrey,001,9,
143,./greyInner/MariskaHargitay(Liv)4_4_cut.png,0,120,120,142,,,2.nein,8.641,None,None,None,music,5.326,None,None,None,,['return'],[0.7333193900540209],2017_Feb_02_1225,60.0717224368,famFaceGrey,001,9,
133,./greyInner/LeonardoDiCaprio3_1_cut.png,0,121,121,132,,,1.ja,4.513,None,act,7.412,None,None,None,None,None,Brad Pitt,"['lshift', 'b', 'r', 'a', 'd', 'space', 'lshift', 'p', 'i', 't', 't', 'return']","[0.9165603812416521, 1.0999402705847388, 1.4496858271268138, 1.7664945569886186, 2.665925234940005, 2.765909131735498, 2.932509931378263, 3.5156852266254646, 3.765539592069217, 3.9154899351760832, 4.098642070038295, 4.248481743713455]",2017_Feb_02_1225,60.0717224368,famFaceGrey,001,9,
72,./greyInner/GuentherJauch3_1_cut.png,0,122,122,71,,,1.ja,1.285,None,dummy,0.418,None,None,None,None,None,Günther Jauch,"['lshift', 'g', u'\xfc', 'n', 't', 'h', 'e', 'r', 'space', 'lshift', 'j', 'a', 'u', 'c', 'h', 'return']","[0.9499398856478365, 1.4998550070058627, 1.7996931409325043, 2.066299008914939, 2.232933811339535, 2.316244155370441, 2.482836935489104, 2.6827473092889704, 2.7995170321855767, 3.0490749960217727, 3.5157272489304887, 3.615741940699081, 3.7322935325419166, 3.915598038360258, 4.032167273156119, 4.5153333299113]",2017_Feb_02_1225,60.0717224368,famFaceGrey,001,9,
142,./greyInner/MariskaHargitay(Liv)14_1_cut.png,0,123,123,141,,,2.nein,2.712,None,None,None,music,4.245,None,None,None,,['return'],[0.5834409018825681],2017_Feb_02_1225,60.0717224368,famFaceGrey,001,9,
223,./greyInner/notfamousface8_9_cut.png,0,124,124,222,,,2.nein,3.883,None,dummy,3.839,None,None,None,None,None,,['return'],[0.8169408916173779],2017_Feb_02_1225,60.0717224368,famFaceGrey,001,9,
190,./greyInner/TaylorSwift8_1_cut.png,0,125,125,189,,,1.ja,1.878,None,None,None,music,0.996,None,None,None,Tailor Swift,"['lshift', 't', 'a', 'i', 'l', 'o', 'r', 'space', 'lshift', 's', 'w', 'i', 'f', 't', 'return']","[0.9333603217046402, 1.016801865148409, 1.3498921534410329, 1.4498237629404684, 1.649773272017228, 1.8329555602886103, 2.1329531223536833, 2.3663158178369486, 2.59948347849695, 2.9161103255537455, 3.215704345170707, 3.382463931388884, 3.76560984309981, 3.9656138849395575, 4.167430659987076]",2017_Feb_02_1225,60.0717224368,famFaceGrey,001,9,
191,./greyInner/TomCruise1_1_cut.png,0,126,126,190,,,1.ja,2.529,None,act,0.53,None,None,None,None,None,,['return'],[7.763980917382469],2017_Feb_02_1225,60.0717224368,famFaceGrey,001,9,
211,./greyInner/notfamousface10_4_cut.png,0,127,127,210,,,2.nein,5.264,None,None,None,music,4.831,None,None,None,,['return'],[0.6333925922690469],2017_Feb_02_1225,60.0717224368,famFaceGrey,001,9,
119,./greyInner/JudithRakers7_1_cut.png,0,128,128,118,,,2.nein,5.91,None,None,None,music,1.812,None,None,None,,['return'],[0.5169378762757333],2017_Feb_02_1225,60.0717224368,famFaceGrey,001,9,
28,./greyInner/Beyonce3_2_cut.png,0,129,129,27,,,2.nein,4.577,None,None,None,music,0.944,None,None,None,,['return'],[0.7351465584051766],2017_Feb_02_1225,60.0717224368,famFaceGrey,001,9,
116,./greyInner/JudithRakers1_1_cut.png,0,130,130,115,,,2.nein,5.759,None,dummy,1.877,None,None,None,None,None,,['return'],[0.7670799822417393],2017_Feb_02_1225,60.0717224368,famFaceGrey,001,9,
36,./greyInner/CarenMiosga1_1_cut.png,0,131,131,35,,,2.nein,5.908,None,None,None,None,None,polit,0.928,None,,['return'],[0.5833969548903042],2017_Feb_02_1225,60.0717224368,famFaceGrey,001,9,
8,./greyInner/AngelaMerkel4_1_cut.png,0,132,132,7,,,1.ja,1.176,None,None,None,None,None,polit,1.058,None,Angela Merkel,"['lshift', 'a', 'n', 'g', 'e', 'l', 'a', 'space', 'lshift', 'm', 'e', 'r', 'k', 'e', 'l', 'return']","[0.9332958447321289, 1.0667272514974684, 1.2165617926775667, 1.7830205505115373, 1.9829790414551098, 2.4662034803450297, 2.682666151706144, 2.8493019164734505, 3.049215498082958, 3.149218320955697, 3.249244560837724, 3.4490757017401847, 3.5831996746001096, 3.682189471199308, 3.865511299188256, 4.198801434019515]",2017_Feb_02_1225,60.0717224368,famFaceGrey,001,9,
157,./greyInner/NicoleKidman3_1_cut.png,0,133,133,156,,,1.ja,4.216,None,act,1.261,None,None,None,None,None,Nicole Kidmann,"['lshift', 'n', 'i', 'c', 'o', 'l', 'e', 'space', 'lshift', 'k', 'i', 'd', 'm', 'a', 'n', 'n', 'return']","[6.980752500808194, 7.097517091209738, 7.61389873329972, 7.7972754148340755, 7.930343376770907, 8.113678998342039, 8.230151357288378, 8.313672454410153, 8.513458685978549, 8.56348383520617, 8.730201719899014, 8.846742725971126, 9.013288351288793, 9.146564820850472, 9.230016308503764, 9.413094984525742, 9.696408087273085]",2017_Feb_02_1225,60.0717224368,famFaceGrey,001,9,
1,./greyInner/AlysonHannigan(Lily)1_1_cut.png,0,134,134,0,,,1.ja,1.635,None,dummy,0.41,None,None,None,None,None,Lilly,"['lshift', 'l', 'i', 'l', 'l', 'y', 'return']","[0.8834128014696034, 1.0166822138507996, 1.1666829195683022, 1.3333032868495138, 1.4832132115561762, 1.5831839563325047, 1.7163212069572182]",2017_Feb_02_1225,60.0717224368,famFaceGrey,001,9,
185,./greyInner/SigmarGabriel8_2_cut.png,0,135,135,184,,,1.ja,1.552,None,None,None,None,None,polit,0.728,None,Gebriell,"['lshift', 'g', 'e', 'b', 'r', 'i', 'e', 'l', 'l', 'return']","[0.6331231362628387, 0.7667242361567332, 1.0168506238551345, 1.1186786903926986, 1.2500022454669306, 1.3665499879389245, 1.4663686825397235, 1.6167023588950542, 1.7998474365749644, 2.01637618881432]",2017_Feb_02_1225,60.0717224368,famFaceGrey,001,9,
171,./greyInner/SahraWagenknecht12_1_cut.png,0,136,136,170,,,1.ja,2.279,None,None,None,None,None,polit,2.096,None,Wagenknecht,"['lshift', 'w', 'a', 'g', 'e', 'n', 'k', 'n', 'e', 'c', 'h', 't', 'return']","[2.5161955891344405, 2.849591260899615, 3.099493743487983, 3.19952062493212, 3.3828392451123364, 3.49932603920206, 3.717357650240956, 3.8825361071048974, 3.999097963938766, 4.249008145270636, 4.348954510693147, 4.53229494397965, 5.29873176039473]",2017_Feb_02_1225,60.0717224368,famFaceGrey,001,9,
92,./greyInner/JanHofer3_1_cut.png,0,137,137,91,,,1.ja,14.658,None,None,None,host,0.779,None,None,None,Tagesschau,"['lshift', 't', 'a', 'g', 'e', 's', 'c', 'backspace', 's', 'c', 'h', 'a', 'u', 'return']","[1.8500255983199168, 2.0333878447108873, 2.6831662492240866, 2.816261798323467, 3.016343469156709, 3.316217530551512, 3.599408736534315, 4.365826306091549, 5.248756652996235, 5.531904232768284, 5.617167170506946, 5.798588692086923, 5.931705733510171, 6.631465019478128]",2017_Feb_02_1225,60.0717224368,famFaceGrey,001,9,
96,./greyInner/JasonSegel(Marshall)11_1_cut.png,0,138,138,95,,,1.ja,2.43,None,act,1.114,None,None,None,None,None,Marshell,"['lshift', 'm', 'a', 'r', 's', 'h', 'e', 'l', 'l', 'return']","[0.9832337415373331, 1.1166285792733106, 1.216584888907164, 1.4665611511154566, 1.783018625825207, 1.899674150699866, 2.0163450730615295, 2.266231195821092, 2.4162046351575555, 2.7160418067414867]",2017_Feb_02_1225,60.0717224368,famFaceGrey,001,9,
41,./greyInner/CobieSmulders(Robin)12_1_cut.png,0,139,139,40,,,1.ja,1.575,None,act,1.125,None,None,None,None,None,Robin,"['lshift', 'r', 'o', 'b', 'i', 'n', 'return']","[0.8000004490932042, 0.9000388786516851, 1.083377066470348, 1.4166178010327712, 1.533128974475403, 1.7497337518016138, 2.0329483747955237]",2017_Feb_02_1225,60.0717224368,famFaceGrey,001,9,
110,./greyInner/JoachimLoew8_1_cut.png,0,140,140,109,,,1.ja,1.457,None,None,None,None,None,sport,0.724,None,Jogi Löw,"['lshift', 'j', 'o', 'g', 'i', 'space', 'lshift', 'l', u'\xf6', 'w', 'return']","[0.8998435230478208, 1.3664617731756152, 1.5996117908816814, 1.9328929438470368, 2.066219455236933, 2.2161380410307174, 2.417829390722545, 2.566013834641126, 2.7990053865541995, 3.1156915780884447, 3.6322191755170934]",2017_Feb_02_1225,60.0717224368,famFaceGrey,001,9,
172,./greyInner/SahraWagenknecht2_2_cut.png,0,141,141,171,,,1.ja,2.389,None,None,None,None,None,polit,0.657,None,Wagenknecht,"['lshift', 'w', 'a', 'g', 'e', 'n', 'k', 'n', 'e', 'c', 'h', 't', 'return']","[0.8170121049897716, 0.9336053983588499, 1.1834953704892541, 1.249944825674902, 1.4333635295151907, 1.5498060558311408, 1.7331984556312818, 1.9165404928226053, 1.999431896918395, 2.2329998922177765, 2.3329026314295334, 2.4995467365024524, 2.7327997248976317]",2017_Feb_02_1225,60.0717224368,famFaceGrey,001,9,
121,./greyInner/KaleyCuoco(Penny)10_1_cut.png,0,142,142,120,,,1.ja,1.402,None,dummy,0.774,None,None,None,None,None,Penny,"['lshift', 'p', 'e', 'n', 'n', 'y', 'return']","[1.78465525028696, 2.149331877415534, 2.382684949470786, 2.682566709609091, 2.8658166826644447, 2.9821751643685275, 3.398781738069374]",2017_Feb_02_1225,60.0717224368,famFaceGrey,001,9,
196,./greyInner/UrsulavonderLeyen1_1_cut.png,0,143,143,195,,,2.nein,7.709,None,None,None,host,3.996,None,None,None,,['return'],[0.700060178507556],2017_Feb_02_1225,60.0717224368,famFaceGrey,001,9,
123,./greyInner/KaleyCuoco(Penny)3_1_cut.png,0,144,144,122,,,1.ja,1.146,None,act,0.812,None,None,None,None,None,Penny,"['lshift', 'p', 'e', 'n', 'n', 'y', 'return']","[0.7334133788754116, 0.8500666582840495, 1.016553259903958, 1.266417569559053, 1.4161844259560894, 1.5663692599464412, 1.7330983719730284]",2017_Feb_02_1225,60.0717224368,famFaceGrey,001,9,
126,./greyInner/KatjaBurkard1_1_cut.png,0,145,145,125,,,2.nein,2.592,None,None,None,None,None,sport,6.991,None,,['return'],[0.5838389910550177],2017_Feb_02_1225,60.0717224368,famFaceGrey,001,9,
93,./greyInner/JanHofer5_1_cut.png,0,146,146,92,,,2.nein,12.358,None,None,None,host,1.712,None,None,None,,['return'],[0.766785505320513],2017_Feb_02_1225,60.0717224368,famFaceGrey,001,9,
198,./greyInner/UrsulavonderLeyen5_1_cut.png,0,147,147,197,,,2.nein,4.241,None,None,None,music,2.393,None,None,None,,['return'],[0.6000419581505412],2017_Feb_02_1225,60.0717224368,famFaceGrey,001,9,
97,./greyInner/JasonSegel(Marshall)14_1_cut.png,0,148,148,96,,,1.ja,1.287,None,act,0.904,None,None,None,None,None,Marshell,"['lshift', 'm', 'a', 'r', 's', 'h', 'e', 'l', 'l', 'return']","[1.0832125058368547, 1.2831854319247213, 1.6330862464510574, 1.9996583682768687, 2.2827732283894875, 2.4494744324729254, 2.549516711404067, 2.782293660853611, 2.94902886771888, 3.14919618706881]",2017_Feb_02_1225,60.0717224368,famFaceGrey,001,9,
17,./greyInner/BastianSchweinsteiger12_1_cut.png,0,149,149,16,,,1.ja,1.514,None,None,None,None,None,sport,0.797,None,Schweinsteiger,"['lshift', 's', 'c', 'h', 'w', 'e', 'i', 'n', 's', 't', 'e', 'i', 'g', 'e', 'r', 'return']","[0.8999176234483457, 1.0165057843223622, 1.2331978140700812, 1.3163872236782481, 1.482907186520606, 1.68305205120123, 1.782958319005047, 1.9161475361452176, 2.0160871651678463, 2.1828005589286477, 2.3158451038561907, 2.465832336773019, 2.6658540215667017, 2.7657208333112067, 2.9824689997276437, 3.1990189235093567]",2017_Feb_02_1225,60.0717224368,famFaceGrey,001,9,
5,./greyInner/AlysonHannigan(Lily)8_3_cut.png,0,150,150,4,,,1.ja,3.552,None,act,1.381,None,None,None,None,None,Lilly,"['lshift', 'l', 'i', 'l', 'l', 'y', 'return']","[0.7835918614018738, 0.9335675462061772, 1.1168980352813378, 1.2834189604654966, 1.4333555099910882, 1.5666027884853975, 1.733213532337686]",2017_Feb_02_1225,60.0717224368,famFaceGrey,001,9,
51,./greyInner/DannFlorek(DonaldDonCragen)1_1_cut.png,0,151,151,50,,,2.nein,12.209,None,dummy,1.663,None,None,None,None,None,,['return'],[0.950080387709022],2017_Feb_02_1225,60.0717224368,famFaceGrey,001,9,
84,./greyInner/HughLaurie(DrHouse)8_1_cut.png,0,152,152,83,,,1.ja,7.971,None,dummy,0.71,None,None,None,None,None,Dr House,"['lshift', 'd', 'r', 'space', 'lshift', 'h', 'o', 'u', 's', 'e', 'return']","[1.832912896421476, 2.1494871354007046, 2.4660873576376616, 2.6326615324614977, 2.782490941146534, 2.9159473688268918, 3.1158218151576875, 3.249098926282386, 3.382258952355187, 3.648871556737504, 3.998715272253321]",2017_Feb_02_1225,60.0717224368,famFaceGrey,001,9,
112,./greyInner/JoshRadnor(Ted)3_1_cut.png,0,153,153,111,,,1.ja,6.22,None,act,3.442,None,None,None,None,None,Freund von Dr House,"['lshift', 'f', 'r', 'e', 'u', 'n', 'd', 'space', 'v', 'o', 'n', 'space', 'lshift', 'd', 'r', 'period', 'space', 'lshift', 'h', 'o', 'u', 's', 'e', 'return']","[0.883577682883697, 0.9502564964550402, 1.1334782407866442, 1.3334229381489422, 1.416731036712008, 1.6333075853144692, 1.7664518931214843, 1.8999336624965508, 2.0331706760007364, 2.233330296607164, 2.399787386379103, 2.5162911818588327, 2.6681511340248107, 2.7160883199794625, 2.9327280624311243, 3.182696946678334, 3.3494138690293767, 3.5158533158482896, 3.6493187253963697, 3.7826035352627514, 4.0156114470046305, 4.132291992793398, 5.39849014817446, 5.648409952935253]",2017_Feb_02_1225,60.0717224368,famFaceGrey,001,9,
95,./greyInner/JanHofer9_2_cut.png,0,154,154,94,,,1.ja,3.294,None,None,None,host,7.842,None,None,None,,['return'],[1.383674237953528],2017_Feb_02_1225,60.0717224368,famFaceGrey,001,9,
151,./greyInner/NeilPatrickHarris(Barney)1_1_cut.png,0,155,155,150,,,1.ja,1.245,None,act,0.745,None,None,None,None,None,Neil Patrick Harris,"['lshift', 'n', 'e', 'i', 'l', 'space', 'lshift', 'p', 'a', 't', 'r', 'i', 'c', 'k', 'space', 'lshift', 'h', 'a', 'r', 'r', 'i', 's', 'return']","[0.7171087242168142, 0.8504458213792532, 1.0003069873800996, 1.100300507603606, 1.2835280259914725, 1.383501337015332, 1.5333804667498043, 1.616439318508128, 2.049944953987506, 2.5829273315648607, 3.232850087510087, 3.4326866816882102, 3.6159376170853648, 3.682450907681414, 3.782425181048893, 3.932402469758017, 4.032259658073599, 4.132394963482511, 4.2990955260047485, 4.448799830115604, 4.632275953747012, 4.78220287984368, 4.982140840806096]",2017_Feb_02_1225,60.0717224368,famFaceGrey,001,9,
117,./greyInner/JudithRakers2_1_cut.png,0,156,156,116,,,2.nein,8.363,None,None,None,music,0.732,None,None,None,,['return'],[0.7167250701859302],2017_Feb_02_1225,60.0717224368,famFaceGrey,001,9,
66,./greyInner/EmmaWatson(HermioneGranger)11_2_cut.png,0,157,157,65,,,1.ja,1.31,None,act,0.577,None,None,None,None,None,Hermine Granger,"['lshift', 'h', 'e', 'r', 'm', 'i', 'n', 'e', 'space', 'lshift', 'g', 'r', 'a', 'n', 'g', 'e', 'r', 'return']","[0.6499647782511602, 0.7998913835672283, 0.8997944435595855, 1.099862641593063, 1.149918906572566, 1.266588225029409, 1.3997861032548826, 1.5163495639935718, 1.6328626621234434, 1.799630267863904, 2.065887767723325, 2.332779130760173, 2.6159222195983602, 2.7012916566145577, 2.882337543689573, 2.965754707780434, 3.1324315325109637, 3.2653551430175867]",2017_Feb_02_1225,60.0717224368,famFaceGrey,001,9,
128,./greyInner/KatjaBurkard4_1_cut.png,0,158,158,127,,,1.ja,3.599,None,act,2.533,None,None,None,None,None,,['return'],[8.530464567818854],2017_Feb_02_1225,60.0717224368,famFaceGrey,001,9,
160,./greyInner/NicoleKidman8_2_cut.png,0,159,159,159,,,2.nein,2.976,None,None,None,None,None,sport,1.493,None,,['return'],[0.5506737683299434],2017_Feb_02_1225,60.0717224368,famFaceGrey,001,9,
109,./greyInner/JoachimLoew4_1_cut.png,0,160,160,108,,,1.ja,1.127,None,None,None,None,None,sport,0.744,None,Jogi Löw,"['lshift', 'j', 'o', 'g', 'i', 'space', 'lshift', 'l', u'\xf6', 'w', 'return']","[0.7666616838687332, 0.8998614867814467, 1.0666367912654096, 1.3830252980696969, 1.5164679321678705, 1.6163408387510572, 1.7995096542235842, 1.9659831038243283, 2.3490561982580402, 2.7492776012768445, 3.0491603237569507]",2017_Feb_02_1225,60.0717224368,famFaceGrey,001,9,
15,./greyInner/BarackObama5_2_cut.png,0,161,161,14,,,1.ja,2.01,None,None,None,None,None,polit,0.511,None,Barack Obama,"['lshift', 'b', 'a', 'r', 'a', 'c', 'k', 'space', 'lshift', 'o', 'b', 'a', 'm', 'a', 'return']","[0.7667592012821842, 0.9168173267917155, 1.0500989288484561, 1.1833895127729193, 1.2833464639679732, 1.5332245672034333, 1.666633519302195, 1.7666748358897166, 1.8998085579241888, 1.983082012144223, 2.199758323624337, 2.332673273043838, 2.4496422009178787, 2.5328146091360395, 2.782612517130474]",2017_Feb_02_1225,60.0717224368,famFaceGrey,001,9,
221,./greyInner/notfamousface6_8_cut.png,0,162,162,220,,,2.nein,6.452,None,act,2.471,None,None,None,None,None,,['return'],[0.7500102649901237],2017_Feb_02_1225,60.0717224368,famFaceGrey,001,9,
111,./greyInner/JoshRadnor(Ted)1_2_cut.png,0,163,163,110,,,1.ja,3.298,None,act,0.836,None,None,None,None,None,Ted,"['lshift', 't', 'e', 'd', 'return']","[0.7333219563024613, 0.8832841683051811, 1.1499503431077756, 1.3998358243043185, 1.5330337025297922]",2017_Feb_02_1225,60.0717224368,famFaceGrey,001,9,
158,./greyInner/NicoleKidman5_1_cut.png,0,164,164,157,,,1.ja,2.392,None,act,0.61,None,None,None,None,None,Nicole Kidman,"['lshift', 'n', 'i', 'c', 'o', 'l', 'e', 'space', 'lshift', 'k', 'i', 'd', 'm', 'a', 'n', 'return']","[1.0165388247623923, 1.1165772543208732, 1.3163936392993492, 1.6497771213889791, 1.7830516662652371, 1.9660690731234354, 2.082971278556215, 2.1659544260073744, 2.3493785831233254, 2.4328820372938935, 2.5993278997320886, 2.782560550615017, 2.9159897119134257, 3.0658059685792978, 3.1826318281437125, 3.3994306779513863]",2017_Feb_02_1225,60.0717224368,famFaceGrey,001,9,
164,./greyInner/OmarEpps(DrEricForeman)5_2_cut.png,0,165,165,163,,,1.ja,3.959,None,act,4.099,None,None,None,None,None,Arzt bei Dr House,"['lshift', 'a', 'r', 'z', 't', 'space', 'b', 'e', 'i', 'space', 'lshift', 'd', 'r', 'period', 'space', 'lshift', 'h', 'o', 'u', 's', 'e', 'return']","[9.713418780826032, 9.846637189033572, 10.096624037014408, 10.22972920954453, 10.363097101679159, 10.46304282554047, 10.646164806992601, 10.76293998316396, 10.896256550346152, 10.996321604725381, 11.312673863279997, 12.329063204113481, 12.62892443426972, 12.862009333442984, 12.99512252549539, 13.161849712836556, 13.428619179108864, 13.645132854642725, 13.795133560359318, 13.878506456678224, 14.111618622231617, 14.74469396213135]",2017_Feb_02_1225,60.0717224368,famFaceGrey,001,9,
85,./greyInner/HughLaurie(DrHouse)9_2_cut.png,0,166,166,84,,,1.ja,1.739,None,dummy,0.599,None,None,None,None,None,Dr House,"['lshift', 'd', 'r', 'space', 'lshift', 'h', 'o', 'u', 's', 'e', 'return']","[0.6669170896693686, 0.7334323049526574, 0.9500431771175499, 1.0168377926165704, 1.2000191185452422, 1.2833512756806158, 1.416759586218177, 1.5999258354422636, 1.7000258549451246, 1.8665147020328732, 2.033038835026673]",2017_Feb_02_1225,60.0717224368,famFaceGrey,001,9,
31,./greyInner/BritneySpears1_1_cut.png,0,167,167,30,,,1.ja,1.459,None,None,None,music,0.911,None,None,None,Britney Spears,"['lshift', 'b', 'r', 'i', 't', 'n', 'e', 'y', 'space', 'lshift', 's', 'p', 'e', 'a', 'r', 's', 'return']","[0.7333129744365579, 0.8664486211564508, 1.2662761051560665, 1.782913730452492, 2.432704324641236, 2.6158834051038866, 2.782551247966694, 3.316776010204194, 3.448795659962343, 3.5986834507821186, 3.6818917864675313, 3.8985902318363514, 4.248593375488781, 4.548436962691994, 4.715125656319287, 4.8487152080979286, 5.11494223376576]",2017_Feb_02_1225,60.0717224368,famFaceGrey,001,9,
197,./greyInner/UrsulavonderLeyen4_1_cut.png,0,168,168,196,,,1.ja,9.46,None,dummy,2.927,None,None,None,None,None,,['return'],[0.6669353741835948],2017_Feb_02_1225,60.0717224368,famFaceGrey,001,9,
50,./greyInner/CristinMilioti(Tracy_Mutter)9_1_cut.png,0,169,169,49,,,2.nein,5.965,None,dummy,1.487,None,None,None,None,None,,['return'],[0.8331416132459708],2017_Feb_02_1225,60.0717224368,famFaceGrey,001,9,
22,./greyInner/BenedictCumberbatch2_2_cut.png,0,170,170,21,,,1.ja,1.593,None,act,0.764,None,None,None,None,None,,['return'],[1.3165851455323718],2017_Feb_02_1225,60.0717224368,famFaceGrey,001,9,
77,./greyInner/GeorgeClooney15_1_cut.png,0,171,171,76,,,1.ja,1.726,None,dummy,0.46,None,None,None,None,None,Clooney,"['lshift', 'c', 'l', 'o', 'o', 'n', 'e', 'y', 'return']","[0.8333039284134429, 0.966786339351529, 1.116673488610104, 1.3165934858370747, 1.433161437509625, 1.6497322120558238, 1.7675156027871708, 2.116333460791793, 2.434362120644437]",2017_Feb_02_1225,60.0717224368,famFaceGrey,001,9,
188,./greyInner/TaylorSwift3_1_cut.png,0,172,172,187,,,1.ja,3.377,None,None,None,music,0.895,None,None,None,Tailor Swift,"['lshift', 't', 'a', 'i', 'l', 'o', 'r', 'space', 'lshift', 's', 'w', 'i', 'f', 't', 'return']","[0.6835252031178243, 0.7669301775331405, 1.1335382268243848, 1.2335298223642894, 1.4001113751492085, 1.549935651339183, 1.7333399200360873, 1.8163910730509087, 1.9663244147668593, 2.133066678812611, 2.349624942900846, 2.5495523180907185, 2.799416306963394, 3.015753873751237, 3.249235578970911]",2017_Feb_02_1225,60.0717224368,famFaceGrey,001,9,
147,./greyInner/MilaKunis10_1_cut.png,0,173,173,146,,,2.nein,5.778,None,None,None,host,1.196,None,None,None,,['return'],[0.8001412719349901],2017_Feb_02_1225,60.0717224368,famFaceGrey,001,9,
165,./greyInner/OmarEpps(DrEricForeman)9_1_cut.png,0,174,174,164,,,1.ja,2.112,None,act,1.046,None,None,None,None,None,Arzt bei Dr House,"['lshift', 'a', 'r', 'z', 't', 'space', 'b', 'e', 'i', 'space', 'lshift', 'd', 'r', 'period', 'space', 'lshift', 'h', 'o', 'u', 's', 'e', 'return']","[1.1830789968025783, 1.2665423533526337, 1.5996550963118352, 1.766585017219768, 1.8829996355925687, 1.966198989412078, 2.0829305393745017, 2.1996537490322225, 2.299500030794661, 2.416435276667471, 2.5994584575837507, 2.649479115876602, 2.8326302883961034, 3.0158869978495204, 3.1492539276423486, 3.282342419561246, 3.4657768416673207, 3.7822814711780666, 3.9822547180465335, 4.0655089254105405, 4.298810672511536, 4.465288292265541]",2017_Feb_02_1225,60.0717224368,famFaceGrey,001,9,
73,./greyInner/GuentherJauch4_1_cut.png,0,175,175,72,,,1.ja,1.344,None,None,None,host,2.011,None,None,None,Günter Jauch,"['lshift', 'g', u'\xfc', 'n', 't', 'e', 'r', 'space', 'lshift', 'j', 'a', 'u', 'c', 'h', 'return']","[0.7832916104234755, 0.9000363124050637, 1.1832400288440112, 1.4162431288714288, 1.6495095900681918, 1.7828020986762567, 1.9494712246651034, 2.032862726278836, 2.165986824884385, 2.265956607318003, 2.432707853231477, 2.5326651252071315, 2.699193107571773, 2.815697223833922, 3.0990472163903178]",2017_Feb_02_1225,60.0717224368,famFaceGrey,001,9,
162,./greyInner/OmarEpps(DrEricForeman)2_2_cut.png,0,176,176,161,,,1.ja,14.178,None,dummy,0.77,None,None,None,None,None,Arzt bei Dr House,"['lshift', 'a', 'r', 'z', 't', 'space', 'b', 'e', 'i', 'space', 'lshift', 'd', 'r', 'space', 'lshift', 'h', 'o', 'u', 's', 'e', 'return']","[0.9167695304277004, 1.0333304249197681, 1.4331069047457277, 1.7162294636036677, 1.8662089977788128, 1.949701866175019, 2.1328161488836486, 2.3495652776437055, 2.4325769745992147, 2.53269110846486, 2.732720492002045, 2.799431062889198, 2.9992564297335775, 3.1326114906314615, 3.3157472656639584, 3.4490301508449193, 3.648976772892638, 3.798721816185207, 3.932201019313652, 4.115359890576656, 4.248684477281131]",2017_Feb_02_1225,60.0717224368,famFaceGrey,001,9,
30,./greyInner/Beyonce8_3_cut.png,0,177,177,29,,,2.nein,2.395,None,None,None,music,0.946,None,None,None,,['return'],[0.5167537480047031],2017_Feb_02_1225,60.0717224368,famFaceGrey,001,9,
102,./greyInner/JimParsons(SheldonCooper)10_1_cut.png,0,178,178,101,,,1.ja,1.33,None,dummy,0.479,None,None,None,None,None,Sheldon,"['lshift', 's', 'h', 'e', 'l', 'd', 'o', 'n', 'return']","[0.750208828403629, 0.9001774560274498, 1.0668286182808515, 1.2000236094772845, 1.350043882834143, 1.4833508265874116, 1.5666576420280762, 1.8497176485980162, 2.099332711444731]",2017_Feb_02_1225,60.0717224368,famFaceGrey,001,9,
216,./greyInner/notfamousface14_6_cut.png,0,179,179,215,,,2.nein,2.694,None,None,None,music,1.977,None,None,None,,['return'],[0.5833196466792288],2017_Feb_02_1225,60.0717224368,famFaceGrey,001,9,
218,./greyInner/notfamousface3_3_cut.png,0,180,180,217,,,2.nein,2.747,None,None,None,host,1.514,None,None,None,,['return'],[1.2832662687269476],2017_Feb_02_1225,60.0717224368,famFaceGrey,001,9,
10,./greyInner/AngelaMerkel6_1_cut.png,0,181,181,9,,,1.ja,1.296,None,None,None,None,None,polit,0.977,None,Angela Merkel,"['lshift', 'a', 'n', 'g', 'e', 'l', 'a', 'space', 'lshift', 'm', 'e', 'r', 'k', 'e', 'l', 'return']","[0.7836438279173308, 0.9503309176379844, 1.1169262640050874, 1.2834520009037078, 1.383378477907172, 1.5499735034918558, 1.733095805724588, 1.799936613680984, 1.9663911372063012, 2.0331482213332492, 2.1331051725283032, 2.3163028582857805, 2.4162168248331, 2.583019074918411, 2.7660797872067633, 3.1328248099689517]",2017_Feb_02_1225,60.0717224368,famFaceGrey,001,9,
132,./greyInner/LeonardoDiCaprio2_1_cut.png,0,182,182,131,,,1.ja,4.358,None,act,1.06,None,None,None,None,None,Brad Pitt,"['lshift', 'b', 'r', 'a', 'd', 'space', 'lshift', 'p', 'i', 't', 't', 'return']","[3.0488084270455147, 3.1824165841189824, 3.432374882595468, 3.5323629495433124, 3.7654927580497315, 3.8654763340655336, 4.032468165698447, 4.165314147210665, 4.681887295535489, 4.8983178887992835, 5.065098967343147, 5.264945184950193]",2017_Feb_02_1225,60.0717224368,famFaceGrey,001,9,
9,./greyInner/AngelaMerkel5_1_cut.png,0,183,183,8,,,1.ja,1.395,None,None,None,None,None,polit,0.945,None,Angela Merkel,"['lshift', 'a', 'n', 'g', 'e', 'l', 'a', 'space', 'lshift', 'm', 'e', 'r', 'k', 'e', 'l', 'return']","[0.7006529817226692, 0.8174846153451654, 0.9674679988911521, 1.1507025744595012, 1.2674004424206942, 1.4838284694378672, 1.68366474283539, 1.7504818130018975, 1.9002499525231542, 1.9835397665738128, 2.0670801105534338, 2.266863775874299, 2.366869485775169, 2.5001465968980483, 2.666678107852931, 2.9836103383840964]",2017_Feb_02_1225,60.0717224368,famFaceGrey,001,9,
184,./greyInner/SigmarGabriel4_5_cut.png,0,184,184,183,,,1.ja,1.412,None,None,None,None,None,polit,0.545,None,Gabriell,"['lshift', 'g', 'a', 'b', 'r', 'i', 'e', 'l', 'l', 'return']","[0.6168762221750512, 0.8168873211961909, 0.9500961059748079, 1.033367314728821, 1.2000418939933297, 1.3332455462768849, 1.4330456355819479, 1.5831252534171654, 1.7665378624169534, 1.9659917649114504]",2017_Feb_02_1225,60.0717224368,famFaceGrey,001,9,
48,./greyInner/CristinMilioti(Tracy_Mutter)4_2_cut.png,0,185,185,47,,,1.ja,8.593,None,act,0.845,None,None,None,None,None,Ghost Whisperer,"['lshift', 'g', 'h', 'o', 's', 't', 'space', 'lshift', 'w', 'h', 'i', 's', 'p', 'e', 'r', 'e', 'r', 'return']","[8.36404821722681, 8.497312176330524, 8.680482916488472, 8.880325284724677, 9.130249580417512, 9.296636419159768, 9.380259845407636, 9.646879506972255, 9.879886456370514, 10.163284886853944, 10.329911669754438, 10.912693687543651, 11.212778181248723, 11.379452439730812, 11.596008779131807, 11.728979544439426, 11.779369100837357, 12.362450407263168]",2017_Feb_02_1225,60.0717224368,famFaceGrey,001,9,
105,./greyInner/JimParsons(SheldonCooper)9_3_cut.png,0,186,186,104,,,1.ja,12.577,None,act,0.642,None,None,None,None,None,Sheldon,"['lshift', 's', 'h', 'e', 'l', 'd', 'o', 'n', 'return']","[0.7001455062436435, 0.8495479554712801, 0.9832481766825367, 1.083328307766351, 1.2331971725088806, 1.3998855453537544, 1.649851221791323, 1.8997148898833984, 2.1829474766091153]",2017_Feb_02_1225,60.0717224368,famFaceGrey,001,9,
53,./greyInner/DannFlorek(DonaldDonCragen)2_1_cut.png,0,187,187,52,,,2.nein,2.978,None,None,None,music,1.778,None,None,None,,['return'],[0.5170693964701059],2017_Feb_02_1225,60.0717224368,famFaceGrey,001,9,
129,./greyInner/KatjaBurkard5_3_cut.png,0,188,188,128,,,1.ja,2.719,None,None,None,host,1.186,None,None,None,Zitlow,"['lshift', 'z', 'i', 't', 'l', 'o', 'w', 'return']","[7.230810882943842, 7.430853739280792, 7.647303258621832, 7.780546366962881, 7.8970966756824055, 8.063841505976598, 8.330426843976966, 10.862808719597524]",2017_Feb_02_1225,60.0717224368,famFaceGrey,001,9,
204,./greyInner/Usher4_1_cut.png,0,189,189,203,,,1.ja,1.793,None,None,None,music,0.827,None,None,None,Usher,"['lshift', 'u', 's', 'h', 'e', 'r', 'return']","[0.6500542761386896, 0.8000136011123686, 0.9500441394593508, 1.1830635993155738, 1.3329440121742664, 1.4997821897268295, 1.6497039833284362]",2017_Feb_02_1225,60.0717224368,famFaceGrey,001,9,
189,./greyInner/TaylorSwift7_1_cut.png,0,190,190,188,,,1.ja,1.281,None,None,None,music,0.63,None,None,None,Tailor Swift,"['lshift', 't', 'a', 'i', 'l', 'o', 'r', 'space', 'lshift', 's', 'w', 'i', 'f', 't', 'return']","[0.8165825792839314, 0.9829203385397705, 1.4329433064558543, 1.7328982046528836, 1.9160683032478119, 2.0827258811204956, 2.332631892299105, 2.449142103399936, 2.6156129867522395, 2.732413183841345, 2.982410938373505, 3.26557904812762, 3.6821917166653293, 3.882124224352083, 4.082029144874468]",2017_Feb_02_1225,60.0717224368,famFaceGrey,001,9,
42,./greyInner/CobieSmulders(Robin)2_1_cut.png,0,191,191,41,,,1.ja,1.411,None,None,None,music,0.777,None,None,None,Robin,"['lshift', 'r', 'o', 'b', 'i', 'n', 'return']","[0.9833174653686001, 1.1166949809339712, 1.2666600799657317, 1.516845812140673, 1.6665177173745178, 1.866496417518647, 2.1497360614266654]",2017_Feb_02_1225,60.0717224368,famFaceGrey,001,9,
150,./greyInner/MilaKunis7_3_cut.png,0,192,192,149,,,2.nein,4.823,None,act,2.158,None,None,None,None,None,,['return'],[0.650039840995305],2017_Feb_02_1225,60.0717224368,famFaceGrey,001,9,
62,./greyInner/EmilyDeschanel3_1_cut.png,0,193,193,61,,,1.ja,4.374,None,None,None,music,5.452,None,None,None,,['return'],[0.60013081447687],2017_Feb_02_1225,60.0717224368,famFaceGrey,001,9,
195,./greyInner/TomCruise7_1_cut.png,0,194,194,194,,,1.ja,2.213,None,act,0.531,None,None,None,None,None,,['return'],[1.0500533779522812],2017_Feb_02_1225,60.0717224368,famFaceGrey,001,9,
100,./greyInner/JasonSegel(Marshall)9_1_cut.png,0,195,195,99,,,1.ja,1.229,None,act,1.146,None,None,None,None,None,Marshall,"['lshift', 'm', 'a', 'r', 'h', 'a', 's', 'l', 'l', 'backspace', 'backspace', 'backspace', 'backspace', 'backspace', 's', 'h', 'a', 'l', 'l', 'return']","[0.8333693677268457, 0.9833165030249802, 1.1332636383231147, 1.3831702910629247, 1.5664449642517866, 1.8163586741738982, 2.1494053362548584, 2.432690851839652, 2.5825998142026947, 3.2324378839748533, 3.4488838747256523, 3.665556336834925, 3.8655039212262636, 4.065375159749237, 4.931676542442801, 5.348278304429186, 5.5314714992528025, 5.764344682991577, 5.947937891673064, 6.247964965587016]",2017_Feb_02_1225,60.0717224368,famFaceGrey,001,9,
99,./greyInner/JasonSegel(Marshall)7_1_cut.png,0,196,196,98,,,1.ja,1.311,None,dummy,0.461,None,None,None,None,None,Marshall,"['lshift', 'm', 'a', 'r', 's', 'h', 'a', 'l', 'l', 'return']","[0.8002419971562631, 0.95025842114228, 1.1001638549150812, 1.3998942064390576, 1.6498467308574618, 1.7996491939411499, 1.9331409075275587, 2.2165175249065214, 2.383018240889214, 2.6831713817191485]",2017_Feb_02_1225,60.0717224368,famFaceGrey,001,9,
104,./greyInner/JimParsons(SheldonCooper)8_1_cut.png,0,197,197,103,,,1.ja,1.842,None,dummy,0.708,None,None,None,None,None,Sheldon,"['lshift', 's', 'h', 'e', 'l', 'd', 'o', 'n', 'return']","[0.7667803728236322, 0.8832164835221192, 1.0998812468878896, 1.199802591396292, 1.3496259052426467, 1.4497730795483221, 1.5497601841525466, 1.932828466871797, 2.2327625143061596]",2017_Feb_02_1225,60.0717224368,famFaceGrey,001,9,
11,./greyInner/BarackObama1_3_cut.png,0,198,198,10,,,1.ja,1.958,None,None,None,None,None,polit,0.714,None,Barack Obama,"['lshift', 'b', 'a', 'r', 'a', 'c', 'k', 'space', 'lshift', 'o', 'b', 'a', 'm', 'a', 'return']","[0.8165373491683567, 0.9831926815750194, 1.233245289651677, 1.349771539798894, 1.4829456802344794, 1.7330156104835623, 1.9162354301279265, 2.0330859898276685, 2.165905025738539, 2.232894355282042, 2.5660568192906794, 2.715983745387348, 2.832654346966592, 2.9158062252026866, 3.1658187356606504]",2017_Feb_02_1225,60.0717224368,famFaceGrey,001,9,
180,./greyInner/Shakira9_1_cut.png,0,199,199,179,,,1.ja,2.727,None,None,None,music,0.744,None,None,None,Shakira,"['lshift', 's', 'h', 'a', 'k', 'i', 'r', 'a', 'return']","[0.8000463207717985, 0.9500778214605816, 1.1500266889761406, 1.2832431724982598, 1.4831156941454537, 1.7827065059518645, 1.9826492786287417, 2.299526334834809, 2.566037251652233]",2017_Feb_02_1225,60.0717224368,famFaceGrey,001,9,
80,./greyInner/GeorgeClooney4_2_cut.png,0,200,200,79,,,1.ja,2.6,None,act,2.166,None,None,None,None,None,Clooney,"['lshift', 'c', 'l', 'o', 'o', 'n', 'e', 'y', 'return']","[0.7495932497422473, 0.9501637907578697, 1.0847057412083814, 1.2331002966584492, 1.5499308396247216, 1.749818758757101, 1.8495104240973887, 2.1829009633693204, 2.3158945041232073]",2017_Feb_02_1225,60.0717224368,famFaceGrey,001,9,
127,./greyInner/KatjaBurkard10_1_cut.png,0,201,201,126,,,1.ja,3.245,None,None,None,host,0.913,None,None,None,Zitlow,"['lshift', 't', 'backspace', 'lshift', 'z', 'i', 't', 'l', 'o', 'w', 'return']","[0.6335436801018659, 0.7334727233537706, 1.2166872180332575, 1.5330202297300275, 1.6664853184975073, 1.8165527466553613, 2.0829545979449904, 2.216303884784793, 2.3662025821577117, 2.666176406431987, 2.849413227466357]",2017_Feb_02_1225,60.0717224368,famFaceGrey,001,9,
37,./greyInner/CarenMiosga13_1_cut.png,0,202,202,36,,,2.nein,3.959,None,None,None,host,1.994,None,None,None,,['return'],[0.5335100622578466],2017_Feb_02_1225,60.0717224368,famFaceGrey,001,9,
43,./greyInner/CobieSmulders(Robin)3_4_cut.png,0,203,203,42,,,1.ja,1.176,None,act,1.193,None,None,None,None,None,Robin,"['lshift', 'r', 'o', 'b', 'i', 'n', 'return']","[0.94976762627266, 1.1664740911637637, 1.3000010906544048, 1.6830882994490821, 1.832933105621123, 2.0161327160640212, 2.2826840512825584]",2017_Feb_02_1225,60.0717224368,famFaceGrey,001,9,
107,./greyInner/JoachimLoew12_1_cut.png,0,204,204,106,,,1.ja,5.194,None,None,None,None,None,sport,1.879,None,Jogi Löw,"['lshift', 'j', 'o', 'g', 'i', 'space', 'lshift', 'l', u'\xf6', 'w', 'return']","[0.8504086107877811, 1.1168762221750512, 1.3335884611242363, 1.600037467214861, 2.049988580196441, 2.199918393323969, 2.366112763489582, 2.4998046443943167, 2.7996851214084018, 3.016296955916914, 3.266276746715448]",2017_Feb_02_1225,60.0717224368,famFaceGrey,001,9,
203,./greyInner/Usher2_1_cut.png,0,205,205,202,,,1.ja,1.628,None,None,None,music,0.579,None,None,None,Usher,"['lshift', 'u', 's', 'h', 'e', 'r', 'return']","[0.7171706349417946, 0.8505215256864176, 1.017046300241418, 1.1503477907172055, 1.2835171194383292, 1.483394773580585, 1.6500574839483306]",2017_Feb_02_1225,60.0717224368,famFaceGrey,001,9,
65,./greyInner/EmilyDeschanel8_3_cut.png,0,206,206,64,,,1.ja,5.184,None,None,None,music,2.643,None,None,None,Adele,"['lshift', 'a', 'f', 'backspace', 'd', 'e', 'l', 'e', 'return']","[0.6502663123537786, 0.7671181551759219, 1.0669389669310476, 1.3500971324738202, 1.4832594040144613, 1.6498865076955553, 1.7832223217355931, 1.9163162669301528, 2.03302824925413]",2017_Feb_02_1225,60.0717224368,famFaceGrey,001,9,
167,./greyInner/RobertSeanLeonard(Wilson)10_1_cut.png,0,207,207,166,,,1.ja,1.505,None,dummy,0.722,None,None,None,None,None,Freund von Dr House,"['lshift', 'f', 'r', 'e', 'u', 'n', 'd', 'space', 'v', 'o', 'n', 'space', 'lshift', 'd', 'r', 'period', 'space', 'lshift', 'h', 'o', 'u', 's', 'e', 'return']","[0.7333787345305609, 0.816827014376031, 1.0167518233174633, 1.349926156222864, 1.4831410358401627, 1.6997095649185212, 1.8497372162364627, 1.9330228601338604, 2.1496356569841737, 2.2995738104145858, 2.4827602688401385, 2.616024869505054, 2.8154720355978498, 2.9323687877549673, 3.165752654782409, 3.349189322356324, 3.499160516224947, 3.6487971355545596, 3.7655828974984615, 3.998890097876938, 4.132105939836038, 4.232184467015031, 4.450571503359242, 4.565030320216465]",2017_Feb_02_1225,60.0717224368,famFaceGrey,001,9,
108,./greyInner/JoachimLoew15_1_cut.png,0,208,208,107,,,1.ja,1.696,None,None,None,None,None,sport,0.862,None,Jogi Löw,"['lshift', 'j', 'o', 'g', 'i', 'space', 'lshift', 'l', u'\xf6', 'w', 'return']","[0.6335876270932204, 0.8334312784536451, 1.1667060157978995, 1.2999167252619372, 1.450021043230663, 1.5999912747574854, 1.7665093129126035, 1.8997395900169067, 2.249584267874525, 2.549349584523952, 2.8493532414267975]",2017_Feb_02_1225,60.0717224368,famFaceGrey,001,9,
200,./greyInner/UrsulavonderLeyen8_2_cut.png,0,209,209,199,,,2.nein,9.289,None,act,6.006,None,None,None,None,None,,['return'],[0.5832051278757717],2017_Feb_02_1225,60.0717224368,famFaceGrey,001,9,
47,./greyInner/CristinMilioti(Tracy_Mutter)2_1_cut.png,0,210,210,46,,,2.nein,3.445,None,dummy,1.496,None,None,None,None,None,,['return'],[0.5169850310776383],2017_Feb_02_1225,60.0717224368,famFaceGrey,001,9,
136,./greyInner/LisaEdelstein(DrLisaCuddy)1_1_cut.png,0,211,211,135,,,1.ja,1.246,None,act,1.147,None,None,None,None,None,Chefin von Dr House,"['lshift', 'c', 'h', 'e', 'f', 'i', 'n', 'space', 'v', 'o', 'n', 'space', 'lshift', 'd', 'r', 'space', 'lshift', 'h', 'o', 'u', 's', 'e', 'return']","[0.8501773277148459, 0.9833861124934629, 1.3335194932169543, 1.4996792190395354, 1.7165207327143435, 1.8663899182392925, 2.0162260633242113, 2.149724192529902, 2.349582920594912, 2.5828128127614036, 2.7660396895862505, 2.8827600122149306, 3.0990533112289995, 3.215894889061019, 3.449194069915393, 3.5154789644675475, 3.699020527415996, 3.7656159379384917, 3.915658024399818, 4.065422314550233, 4.18222283241812, 4.398666256922297, 4.715080426201894]",2017_Feb_02_1225,60.0717224368,famFaceGrey,001,9,
207,./greyInner/WillSmith14_1_cut.png,0,212,212,206,,,1.ja,1.675,None,dummy,2.991,None,None,None,None,None,Will Smith,"['lshift', 'w', 'i', 'l', 'l', 'space', 'lshift', 's', 'm', 'i', 't', 'h', 'return']","[0.9668597981908533, 1.1666168386909703, 1.4998360809295264, 1.749686276221837, 1.932966402686361, 2.049704689048667, 2.166263658853495, 2.3660614385371446, 2.516002158214178, 2.6658039797384845, 2.882614056878083, 2.9993212274875987, 3.2989704214305675]",2017_Feb_02_1225,60.0717224368,famFaceGrey,001,9,
6,./greyInner/AngelaMerkel1_1_cut.png,0,213,213,5,,,1.ja,1.76,None,None,None,None,None,polit,0.46,None,Angela Merkel,"['lshift', 'a', 'n', 'g', 'e', 'l', 'a', 'space', 'lshift', 'm', 'e', 'r', 'k', 'e', 'l', 'return']","[0.7335015936387208, 0.8833223412384541, 1.0667747270781547, 1.2666655332395749, 1.3831853677675099, 1.6664631846106204, 1.7998573807835783, 1.9163242864542553, 2.0663073492196418, 2.132949272981932, 2.2329152060428896, 2.416206239060557, 2.7495136960624222, 2.899446396217172, 3.0826155324702995, 4.98178156612812]",2017_Feb_02_1225,60.0717224368,famFaceGrey,001,9,
115,./greyInner/JoshRadnor(Ted)9_1_cut.png,0,214,214,114,,,1.ja,3.028,None,act,0.479,None,None,None,None,None,Freund von Dr House,"['lshift', 'f', 'r', 'e', 'u', 'n', 'd', 'space', 'v', 'o', 'n', 'space', 'lshift', 'd', 'r', 'period', 'space', 'lshift', 'j', 'backspace', 'lshift', 'h', 'o', 'u', 's', 'e', 'return']","[0.6666110646328889, 0.7666305681159429, 0.9833434486263286, 1.349726951246339, 1.4496441256014805, 1.666170311593305, 1.7995609791760216, 1.916208484526578, 2.582356341454215, 2.699164558065604, 2.832437819817642, 2.9324810610905843, 3.0990446501418774, 3.149021361445193, 3.365694144335066, 3.582209102993147, 3.6490123795774707, 3.8321362857150234, 3.932119540948406, 4.331951836662483, 4.581830581459144, 4.71522156982428, 4.965119882259387, 5.14836472281786, 5.248256234697692, 5.448290109166919, 5.664916058038216]",2017_Feb_02_1225,60.0717224368,famFaceGrey,001,9,
168,./greyInner/RobertSeanLeonard(Wilson)11_2_cut.png,0,215,215,167,,,1.ja,1.31,None,act,0.628,None,None,None,None,None,Freund von Dr House,"['lshift', 'f', 'r', 'e', 'u', 'n', 'd', 'space', 'v', 'o', 'n', 'space', 'lshift', 'd', 'r', 'space', 'lshift', 'h', 'o', 'u', 's', 'e', 'return']","[0.6663294189493172, 0.7664406657877407, 0.9332801264645241, 1.1332212952365808, 1.2162766184046632, 1.4163512320556038, 1.466371890348455, 2.1661898792317515, 2.482530589672024, 2.6991440280853567, 2.865853893254098, 2.9490089792998333, 3.148884387976068, 3.19881683150561, 3.4156185683423246, 3.5655589672387578, 3.682136221559631, 3.8318129385079374, 3.9985035568188323, 4.148684220655923, 4.26511936901079, 4.431878955228967, 4.598210298865524]",2017_Feb_02_1225,60.0717224368,famFaceGrey,001,9,
82,./greyInner/HughLaurie(DrHouse)4_1_cut.png,0,216,216,81,,,1.ja,1.424,None,dummy,0.509,None,None,None,None,None,Dr House,"['lshift', 'd', 'r', 'space', 'lshift', 'h', 'o', 'u', 's', 'e', 'return']","[0.6997102064797218, 0.7999953165981424, 0.9996327057997405, 1.0498160000406642, 1.1664189168386656, 1.316422188803699, 1.9495135677516373, 2.1327029132044117, 2.4659029085851216, 2.6824897221777064, 2.8657040885464085]",2017_Feb_02_1225,60.0717224368,famFaceGrey,001,9,
219,./greyInner/notfamousface4_2_cut.png,0,217,217,218,,,2.nein,4.524,None,None,None,music,1.132,None,None,None,,['return'],[0.6335225085585989],2017_Feb_02_1225,60.0717224368,famFaceGrey,001,9,
54,./greyInner/DannFlorek(DonaldDonCragen)5_1_cut.png,0,218,218,53,,,2.nein,1.362,None,None,None,music,1.044,None,None,None,,['return'],[0.4667064648911037],2017_Feb_02_1225,60.0717224368,famFaceGrey,001,9,
140,./greyInner/LisaEdelstein(DrLisaCuddy)9_1_cut.png,0,219,219,139,,,1.ja,1.263,None,act,0.447,None,None,None,None,None,Chefin von Dr House,"['lshift', 'c', 'h', 'e', 'f', 'i', 'n', 'space', 'v', 'o', 'n', 'space', 'lshift', 'd', 'r', 'space', 'lshift', 'h', 'o', 'u', 's', 'e', 'return']","[0.8500919999787584, 1.0001899023282022, 1.1668128358578542, 1.2833512756806158, 1.4832289298228716, 1.6499282092208887, 1.833089967511114, 1.932965119560322, 2.116171145624321, 2.3161087858043174, 2.549492652831759, 2.649417846712822, 2.815937488772761, 2.899385768616412, 3.115927031312822, 3.182568955075112, 3.282619895091557, 3.3992484743648674, 3.5657767775101092, 3.7156927970554534, 3.782387008113801, 4.01560631450775, 4.182319066705531]",2017_Feb_02_1225,60.0717224368,famFaceGrey,001,9,
69,./greyInner/EmmaWatson(HermioneGranger)4_1_cut.png,0,220,220,68,,,1.ja,1.393,None,dummy,0.743,None,None,None,None,None,Hermine Granger,"['lshift', 'h', 'e', 'r', 'm', 'i', 'n', 'e', 'space', 'lshift', 'g', 'r', 'a', 'n', 'g', 'e', 'r', 'return']","[0.7331051083729108, 0.8666789418839471, 0.9665159209998819, 1.1665045653535344, 1.3330181125747913, 1.4663574552050704, 1.599731121397781, 1.8494876486493013, 1.9828465589180269, 2.132821922939911, 2.382711574289715, 2.599335598473772, 2.9158026966124453, 2.9992756765914237, 3.165681441409106, 3.2325123051577975, 3.4155929058651964, 3.5489248705325736]",2017_Feb_02_1225,60.0717224368,famFaceGrey,001,9,
201,./greyInner/Usher1_1_cut.png,0,221,221,200,,,1.ja,1.3,None,None,None,music,0.55,None,None,None,Usher,"['lshift', 'u', 's', 'h', 'e', 'r', 'return']","[0.6001269651042094, 0.783321763834465, 0.9333471696863853, 1.083038000995657, 1.1499272468790878, 1.36632383736287, 1.4997039191748627]",2017_Feb_02_1225,60.0717224368,famFaceGrey,001,9,
63,./greyInner/EmilyDeschanel5_1_cut.png,0,222,222,62,,,1.ja,2.138,None,act,0.744,None,None,None,None,None,Nicole Kidman,"['lshift', 'n', 'i', 'c', 'o', 'l', 'e', 'space', 'lshift', 'k', 'i', 'd', 'm', 'a', 'n', 'return']","[0.849841470049796, 0.9663953073595621, 1.1663095305302704, 1.4828157639458368, 1.5994488341530086, 1.799438440850281, 1.899402770008237, 2.0159527579453425, 2.1659852209795645, 2.266017876481783, 2.449170973684886, 2.5657421331670776, 2.6824284530139266, 2.8323909857972467, 2.9489008761156583, 3.1656240216179867]",2017_Feb_02_1225,60.0717224368,famFaceGrey,001,9,
67,./greyInner/EmmaWatson(HermioneGranger)16_1_cut.png,0,223,223,66,,,1.ja,1.769,None,dummy,1.129,None,None,None,None,None,Hermine Granger,"['lshift', 'h', 'e', 'r', 'm', 'i', 'n', 'e', 'space', 'lshift', 'g', 'r', 'a', 'n', 'g', 'e', 'r', 'return']","[1.083295588106921, 1.2497023152700422, 1.3332176383337355, 1.5328563106595539, 1.556491772609661, 1.6830854124218604, 1.783063214379581, 1.949723037720105, 2.0660879350434698, 2.216248710461514, 2.3327954905907973, 2.532743074980317, 2.88254637209684, 3.0158869978495204, 3.1658200187848706, 3.2492901117348083, 3.4157395027650637, 3.665422891956041]",2017_Feb_02_1225,60.0717224368,famFaceGrey,001,9,
