num,pic,trials.thisRepN,trials.thisTrialN,trials.thisN,trials.thisIndex,key_resp_2.keys,key_resp_2.rt,ratingBekannt.response,ratingBekannt.rt,key_resp_5.keys,ratingK1.response,ratingK1.rt,ratingK2.response,ratingK2.rt,ratingK3.response,ratingK3.rt,key_resp_6.keys,inputText,key_resp_4.keys,key_resp_4.rt,date,frameRate,expName,session,participant,
,,,,,,space,78.4034573679,,,,,,,,,,,,,,2016_Nov_23_1406,60.0689277873,famFaceGrey,001,jb,
87,./greyInner/Ice-T(OdafinFinTutuola)12_1_cut.png,0,0,0,86,,,1.ja,12.052,None,act,5.63,None,None,None,None,None,Law und order ,"['lshift', 'l', 'a', 'w', 'space', 'u', 'n', 'd', 'space', 'o', 'r', 'd', 'e', 'r', 'space', 'return']","[39.83029793819151, 40.081022137674154, 40.530223559282604, 40.78074673469018, 41.896762650874734, 42.82973917331401, 43.08008963211978, 43.64671988197733, 45.08016758023223, 45.86293850427319, 46.26300430889023, 46.61289778664286, 46.84619853219556, 47.07970727612701, 49.34601576438945, 52.64580583781935]",2016_Nov_23_1406,60.0689277873,famFaceGrey,001,jb,
166,./greyInner/RobertSeanLeonard(Wilson)1_1_cut.png,0,1,1,165,,,1.ja,11.465,None,act,2.726,None,None,None,None,None,Wilson,"['lshift', 'w', 'i', 'l', 's', 'o', 'n', 'return']","[2.866704218511586, 3.016696074984793, 4.00000041025487, 4.282777282965981, 4.717300254891597, 5.399854934465111, 5.849718504759949, 7.666148243355565]",2016_Nov_23_1406,60.0689277873,famFaceGrey,001,jb,
77,./greyInner/GeorgeClooney15_1_cut.png,0,2,2,76,,,2.nein,38.626,None,act,28.859,None,None,None,None,None,,['return'],[4.616920319389465],2016_Nov_23_1406,60.0689277873,famFaceGrey,001,jb,
112,./greyInner/JoshRadnor(Ted)3_1_cut.png,0,3,3,111,,,2.nein,69.982,None,dummy,5.779,None,None,None,None,None,,['return'],[1.9003650843369542],2016_Nov_23_1406,60.0689277873,famFaceGrey,001,jb,
156,./greyInner/NicoleKidman14_1_cut.png,0,4,4,155,,,1.ja,3.693,None,act,5.38,None,None,None,None,None,Nicole Kidman,"['lshift', 'n', 'i', 'c', 'o', 'l', 'e', 'space', 'lshift', 'k', 'i', 'd', 'm', 'a', 'n', 'return']","[2.3669185758153617, 2.500591380005062, 2.7169544114331075, 2.9001837524156144, 3.033670301647362, 3.2502782542433124, 3.3834021396360185, 3.5668669659607986, 4.050011917857773, 4.250069435354817, 4.600229577699793, 4.766766535973147, 5.100036143307079, 5.283039434769307, 5.383216294929298, 7.166611214106524]",2016_Nov_23_1406,60.0689277873,famFaceGrey,001,jb,
124,./greyInner/KaleyCuoco(Penny)5_2_cut.png,0,5,5,123,,,2.nein,8.839,None,act,1.708,None,None,None,None,None,,['return'],[0.9833383862824121],2016_Nov_23_1406,60.0689277873,famFaceGrey,001,jb,
41,./greyInner/CobieSmulders(Robin)12_1_cut.png,0,6,6,40,,,2.nein,9.972,None,act,1.436,None,None,None,None,None,,['return'],[1.2002548492928327],2016_Nov_23_1406,60.0689277873,famFaceGrey,001,jb,
122,./greyInner/KaleyCuoco(Penny)14_2_cut.png,0,7,7,121,,,2.nein,15.664,None,act,2.929,None,None,None,None,None,,['return'],[1.783835531128716],2016_Nov_23_1406,60.0689277873,famFaceGrey,001,jb,
121,./greyInner/KaleyCuoco(Penny)10_1_cut.png,0,8,8,120,,,2.nein,5.742,None,act,1.801,None,None,None,None,None,,['return'],[1.183907079284836],2016_Nov_23_1406,60.0689277873,famFaceGrey,001,jb,
120,./greyInner/JudithRakers8_1_cut.png,0,9,9,119,,,2.nein,4.24,None,act,1.546,None,None,None,None,None,,['return'],[1.4838444336237444],2016_Nov_23_1406,60.0689277873,famFaceGrey,001,jb,
10,./greyInner/AngelaMerkel6_1_cut.png,0,10,10,9,,,2.nein,36.945,None,dummy,1.235,None,None,None,None,None,,['return'],[1.1671018769484363],2016_Nov_23_1406,60.0689277873,famFaceGrey,001,jb,
178,./greyInner/Shakira3_1_cut.png,0,11,11,177,,,2.nein,6.634,None,act,2.882,None,None,None,None,None,,['return'],[0.8005771442185505],2016_Nov_23_1406,60.0689277873,famFaceGrey,001,jb,
118,./greyInner/JudithRakers4_3_cut.png,0,12,12,117,,,2.nein,5.062,None,dummy,0.849,None,None,None,None,None,,['return'],[2.0000635892465652],2016_Nov_23_1406,60.0689277873,famFaceGrey,001,jb,
69,./greyInner/EmmaWatson(HermioneGranger)4_1_cut.png,0,13,13,68,,,2.nein,19.525,None,act,1.412,None,None,None,None,None,,['return'],[1.2167946178051352],2016_Nov_23_1406,60.0689277873,famFaceGrey,001,jb,
139,./greyInner/LisaEdelstein(DrLisaCuddy)6_3_cut.png,0,14,14,138,,,2.nein,6.827,None,dummy,1.095,None,None,None,None,None,,['return'],[1.3837094192895165],2016_Nov_23_1406,60.0689277873,famFaceGrey,001,jb,
188,./greyInner/TaylorSwift3_1_cut.png,0,15,15,187,,,2.nein,6.287,None,dummy,1.564,None,None,None,None,None,,['return'],[0.8669216527123353],2016_Nov_23_1406,60.0689277873,famFaceGrey,001,jb,
40,./greyInner/CarenMiosga9_1_cut.png,0,16,16,39,,,1.ja,11.56,None,act,2.015,None,None,None,None,None,,['return'],[1.3170888103850302],2016_Nov_23_1406,60.0689277873,famFaceGrey,001,jb,
21,./greyInner/BenedictCumberbatch16_1_cut.png,0,17,17,20,,,2.nein,5.716,None,act,1.83,None,None,None,None,None,,['return'],[1.1503557510732207],2016_Nov_23_1406,60.0689277873,famFaceGrey,001,jb,
129,./greyInner/KatjaBurkard5_3_cut.png,0,18,18,128,,,2.nein,2.51,None,dummy,1.209,None,None,None,None,None,,['return'],[1.0503598125796998],2016_Nov_23_1406,60.0689277873,famFaceGrey,001,jb,
99,./greyInner/JasonSegel(Marshall)7_1_cut.png,0,19,19,98,,,1.ja,9.897,None,act,1.447,None,None,None,None,None,Marshall,"['lshift', 'm', 'a', 'r', 's', 'h', 'a', 'l', 'l', 'return']","[1.7167336952043115, 2.050476734744734, 2.4668697967099433, 2.9001607782338397, 3.650260777456424, 3.9668462071495014, 4.266783151229902, 4.93346841604216, 5.3834546520483855, 7.916598803949455]",2016_Nov_23_1406,60.0689277873,famFaceGrey,001,jb,
93,./greyInner/JanHofer5_1_cut.png,0,20,20,92,,,2.nein,9.89,None,act,1.365,None,None,None,None,None,,['return'],[3.1668155202096386],2016_Nov_23_1406,60.0689277873,famFaceGrey,001,jb,
194,./greyInner/TomCruise6_1_cut.png,0,21,21,193,,,1.ja,5.694,None,act,1.314,None,None,None,None,None,Tom Cruise,"['lshift', 't', 'o', 'm', 'space', 'lshift', 'c', 'r', 'u', 'i', 's', 'e', 'return']","[1.9499905436641711, 2.0333974832610693, 2.300688938219537, 2.583564271702926, 2.900306007872132, 3.283575635716261, 3.4165760348951153, 4.350269679947814, 4.6334764980274485, 4.850190706205467, 5.050325761563727, 5.266622742223262, 7.016578742564889]",2016_Nov_23_1406,60.0689277873,famFaceGrey,001,jb,
58,./greyInner/ElvisPresley4_10_cut.png,0,22,22,57,,,1.ja,9.603,None,act,2.734,None,None,None,None,None,,['return'],[3.4836483325889276],2016_Nov_23_1406,60.0689277873,famFaceGrey,001,jb,
56,./greyInner/ElvisPresley1_1_cut.png,0,23,23,55,,,1.ja,14.319,None,act,1.846,None,None,None,None,None,,['return'],[1.5003686125091917],2016_Nov_23_1406,60.0689277873,famFaceGrey,001,jb,
160,./greyInner/NicoleKidman8_2_cut.png,0,24,24,159,,,2.nein,5.981,None,act,1.496,None,None,None,None,None,,['return'],[0.950210849638097],2016_Nov_23_1406,60.0689277873,famFaceGrey,001,jb,
64,./greyInner/EmilyDeschanel6_12_cut.png,0,25,25,63,,,1.ja,24.592,None,None,None,music,2.075,None,None,None,eine von Spice Girls,"['e', 'i', 'n', 'e', 'space', 'v', 'o', 'n', 'space', 'lshift', 's', 'p', 'i', 'c', 'e', 'space', 'lshift', 'g', 'i', 'r', 'l', 's', 'return']","[2.367257034715294, 2.466998205964046, 2.66679726394068, 2.717337177680747, 2.9837785879826697, 3.2835169695099466, 3.7003887969694915, 3.9175567452002724, 4.15040949424656, 4.566841940515587, 4.683463390440011, 5.066750248923199, 5.583458836630598, 5.833470016030333, 6.016781817907031, 6.300121558029787, 6.666763212924707, 6.766669716216711, 7.066847889185738, 7.3333483759524825, 7.649967446410301, 7.866641039516253, 12.199492188574368]",2016_Nov_23_1406,60.0689277873,famFaceGrey,001,jb,
211,./greyInner/notfamousface10_4_cut.png,0,26,26,210,,,2.nein,8.487,None,act,1.722,None,None,None,None,None,,['return'],[1.267106020506617],2016_Nov_23_1406,60.0689277873,famFaceGrey,001,jb,
37,./greyInner/CarenMiosga13_1_cut.png,0,27,27,36,,,2.nein,12.179,None,act,2.23,None,None,None,None,None,,['return'],[1.1003795252472628],2016_Nov_23_1406,60.0689277873,famFaceGrey,001,jb,
8,./greyInner/AngelaMerkel4_1_cut.png,0,28,28,7,,,1.ja,3.347,None,None,None,None,None,polit,2.38,None,Merkel,"['lshift', 'm', 'e', 'r', 'k', 'e', 'l', 'return']","[2.8670090366467775, 3.0170090981846442, 3.7333095659960236, 3.949845724280749, 4.866932319295302, 5.0666694290375744, 5.416550599195034, 6.450119568296941]",2016_Nov_23_1406,60.0689277873,famFaceGrey,001,jb,
22,./greyInner/BenedictCumberbatch2_2_cut.png,0,29,29,21,,,2.nein,4.954,None,act,5.451,None,None,None,None,None,,['return'],[1.4500994658919808],2016_Nov_23_1406,60.0689277873,famFaceGrey,001,jb,
109,./greyInner/JoachimLoew4_1_cut.png,0,30,30,108,,,1.ja,2.429,None,None,None,None,None,sport,3.829,None,Jogi Löw,"['lshift', 'j', 'o', 'g', 'i', 'space', 'lshift', 'l', u'\xf6', 'w', 'return']","[3.3835461385133385, 3.6503292897432402, 4.066755582214682, 4.633460087901767, 4.833533605276898, 5.2167334900805145, 6.083422529220115, 6.299824944955617, 6.6830494449495745, 7.0834184266896045, 8.04980473998512]",2016_Nov_23_1406,60.0689277873,famFaceGrey,001,jb,
110,./greyInner/JoachimLoew8_1_cut.png,0,31,31,109,,,1.ja,2.324,None,None,None,None,None,sport,2.978,None,Jogi Löw,"['lshift', 'j', 'o', 'g', 'i', 'space', 'lshift', 'l', u'\xf6', 'w', 'return']","[2.483367719389207, 3.150208880422724, 3.600173373008147, 4.216587850187352, 4.400197085644322, 5.249587798083667, 5.899575757153798, 6.100029579258262, 6.766646742034936, 7.749811591213074, 8.866214376175776]",2016_Nov_23_1406,60.0689277873,famFaceGrey,001,jb,
187,./greyInner/TaylorSwift2_1_cut.png,0,32,32,186,,,2.nein,3.551,None,dummy,1.496,None,None,None,None,None,,['return'],[1.0338159415368864],2016_Nov_23_1406,60.0689277873,famFaceGrey,001,jb,
11,./greyInner/BarackObama1_3_cut.png,0,33,33,10,,,1.ja,4.509,None,None,None,None,None,polit,2.188,None,Obama,"['o', 'b', 'a', 'backspace', 'backspace', 'backspace', 'lshift', 'o', 'b', 'a', 'm', 'a', 'return']","[1.950484898781724, 2.5837308345071506, 2.7501722037850413, 4.433347596466774, 4.617010164842213, 4.800128327202401, 5.6999609028680425, 5.883159064604115, 6.4331621620149235, 6.63286768225953, 6.9999593849315715, 7.133150962104992, 8.4830481321369]",2016_Nov_23_1406,60.0689277873,famFaceGrey,001,jb,
18,./greyInner/BastianSchweinsteiger14_1_cut.png,0,34,34,17,,,2.nein,2.698,None,dummy,1.231,None,None,None,None,None,,['return'],[1.000566969942156],2016_Nov_23_1406,60.0689277873,famFaceGrey,001,jb,
4,./greyInner/AlysonHannigan(Lily)5_4_cut.png,0,35,35,3,,,1.ja,3.812,None,act,0.908,None,None,None,None,None,Lily,"['lshift', 'l', 'i', 'l', 'y', 'return']","[1.916819520174613, 2.1999557747003564, 2.583238120398164, 2.8663998106239887, 3.183243289589882, 4.783163126110594]",2016_Nov_23_1406,60.0689277873,famFaceGrey,001,jb,
20,./greyInner/BastianSchweinsteiger6_2_cut.png,0,36,36,19,,,2.nein,2.947,None,act,2.469,None,None,None,None,None,,['return'],[0.9171583893294155],2016_Nov_23_1406,60.0689277873,famFaceGrey,001,jb,
65,./greyInner/EmilyDeschanel8_3_cut.png,0,37,37,64,,,2.nein,4.681,None,act,15.01,None,None,None,None,None,Bones,"['lshift', 'b', 'o', 'n', 'e', 's', 'return']","[2.016474127998663, 2.1003536792959494, 2.3837344447383657, 2.6002623979547934, 2.7670332005618548, 3.250170357645402, 6.383247474175732]",2016_Nov_23_1406,60.0689277873,famFaceGrey,001,jb,
179,./greyInner/Shakira7_1_cut.png,0,38,38,178,,,2.nein,4.499,None,dummy,3.664,None,None,None,None,None,,['return'],[1.0002724081314227],2016_Nov_23_1406,60.0689277873,famFaceGrey,001,jb,
159,./greyInner/NicoleKidman7_1_cut.png,0,39,39,158,,,2.nein,20.66,None,act,2.714,None,None,None,None,None,,['return'],[0.7837994288456684],2016_Nov_23_1406,60.0689277873,famFaceGrey,001,jb,
145,./greyInner/MariskaHargitay(Liv)8_8_cut.png,0,40,40,144,,,1.ja,4.723,None,act,5.718,None,None,None,None,None,Mariska,"['lshift', 'm', 'a', 'r', 'i', 's', 'k', 'a', 'return']","[1.8000483278301544, 2.0003811252354353, 2.417094184704183, 2.7832956379024836, 3.2502023573979386, 3.5002656389551703, 3.934134257007827, 4.183501338862698, 6.766276693640975]",2016_Nov_23_1406,60.0689277873,famFaceGrey,001,jb,
105,./greyInner/JimParsons(SheldonCooper)9_3_cut.png,0,41,41,104,,,2.nein,6.928,None,act,0.923,None,None,None,None,None,,['return'],[1.2168984118688968],2016_Nov_23_1406,60.0689277873,famFaceGrey,001,jb,
155,./greyInner/NeilPatrickHarris(Barney)3_7_cut.png,0,42,42,154,,,1.ja,1.677,None,act,1.949,None,None,None,None,None,Barney,"['lshift', 'b', 'a', 'r', 'n', 'e', 'y', 'return']","[1.5337107115883555, 1.65050118583531, 2.00180634489152, 2.2670846873406845, 2.5502250444005767, 2.7337661778219626, 3.500201229198865, 4.400090009552514]",2016_Nov_23_1406,60.0689277873,famFaceGrey,001,jb,
75,./greyInner/GüntherJauch9_1_cut.png,0,43,43,74,,,1.ja,2.571,None,None,None,host,1.96,None,None,None,Jauch,"['lshift', 'j', 'u', 'a', 'backspace', 'backspace', 'a', 'u', 'c', 'h', 'return']","[3.200030440788396, 3.3336092969948368, 3.7835746100827237, 3.833249710052769, 4.966815027903067, 5.1499319595059205, 5.916673880285089, 5.999579080202238, 6.449861519027763, 6.583162223556428, 7.2831108188293]",2016_Nov_23_1406,60.0689277873,famFaceGrey,001,jb,
53,./greyInner/DannFlorek(DonaldDonCragen)2_1_cut.png,0,44,44,52,,,2.nein,5.211,None,act,1.464,None,None,None,None,None,,['return'],[1.13305578336076],2016_Nov_23_1406,60.0689277873,famFaceGrey,001,jb,
46,./greyInner/CristinMilioti(Tracy_Mutter)10_1_cut.png,0,45,45,45,,,2.nein,5.576,None,act,0.846,None,None,None,None,None,,['return'],[0.8170853232295485],2016_Nov_23_1406,60.0689277873,famFaceGrey,001,jb,
55,./greyInner/DannFlorek(DonaldDonCragen)8_1_cut.png,0,46,46,54,,,2.nein,2.858,None,act,1.357,None,None,None,None,None,,['return'],[0.7836734811098722],2016_Nov_23_1406,60.0689277873,famFaceGrey,001,jb,
33,./greyInner/BritneySpears5_1_cut.png,0,47,47,32,,,1.ja,2.871,None,None,None,music,2.314,None,None,None,Britney Spears,"['lshift', 'b', 'r', 'i', 't', 'n', 'e', 'y', 'space', 'lshift', 's', 'o', 'backspace', 'p', 'e', 'a', 'r', 's', 'return']","[1.9502871567347029, 2.0668663505784934, 2.35035460236395, 2.5003378435176273, 2.684588714997517, 3.116792115259159, 3.266799561355583, 4.066657941948506, 4.33308704465162, 4.650962720697862, 4.749702874109062, 5.049785458082624, 6.083344581107667, 6.466494825268455, 6.616916627110186, 6.91646834342464, 7.249677233285183, 7.733234899911622, 9.699517829398246]",2016_Nov_23_1406,60.0689277873,famFaceGrey,001,jb,
38,./greyInner/CarenMiosga2_11_cut.png,0,48,48,37,,,2.nein,6.566,None,dummy,1.402,None,None,None,None,None,,['return'],[1.2836211738249403],2016_Nov_23_1406,60.0689277873,famFaceGrey,001,jb,
144,./greyInner/MariskaHargitay(Liv)6_5_cut.png,0,49,49,143,,,2.nein,10.573,None,act,3.514,None,None,None,None,None,,['return'],[1.1841310775416787],2016_Nov_23_1406,60.0689277873,famFaceGrey,001,jb,
133,./greyInner/LeonardoDiCaprio3_1_cut.png,0,50,50,132,,,1.ja,8.492,None,act,3.621,None,None,None,None,None,Leonardo DiCaprio,"['lshift', 'l', 'e', 'o', 'n', 'a', 'r', 'd', 'e', 'space', 'backspace', 'backspace', 'o', 'space', 'lshift', 'd', 'i', 'lshift', 'c', 'a', 'r', 'p', 'r', 'o', 'backspace', 'backspace', 'backspace', 'backspace', 'p', 'r', 'o', 'backspace', 'i', 'o', 'return']","[2.516690946820745, 3.3331760696019046, 3.7666323831726913, 3.9666074397791817, 4.499923487775959, 4.649930523617513, 4.866587296346552, 5.149879447093554, 5.350050604734861, 5.633058860257734, 6.0997247611194325, 6.3664997072846745, 7.4329988812387455, 7.716135956274229, 8.182777241941949, 8.266286744841636, 8.549376230505004, 9.282350619625504, 9.416029577616428, 9.682865241255058, 9.982785364954907, 10.815886153093743, 11.115895301740238, 11.499009033366747, 13.882451377816324, 14.11580914856313, 14.348969587517786, 14.59886917804397, 15.598871639565914, 15.832310230198345, 16.015557212067506, 17.364965360269707, 17.89847299651956, 18.14879104532156, 19.564942878394504]",2016_Nov_23_1406,60.0689277873,famFaceGrey,001,jb,
126,./greyInner/KatjaBurkard1_1_cut.png,0,51,51,125,,,2.nein,5.417,None,act,2.496,None,None,None,None,None,,['return'],[1.3668791915042675],2016_Nov_23_1406,60.0689277873,famFaceGrey,001,jb,
67,./greyInner/EmmaWatson(HermioneGranger)16_1_cut.png,0,52,52,66,,,2.nein,5.124,None,act,3.175,None,None,None,None,None,,['return'],[0.9504988473963749],2016_Nov_23_1406,60.0689277873,famFaceGrey,001,jb,
116,./greyInner/JudithRakers1_1_cut.png,0,53,53,115,,,2.nein,12.461,None,act,1.08,None,None,None,None,None,,['return'],[0.8503790124304942],2016_Nov_23_1406,60.0689277873,famFaceGrey,001,jb,
83,./greyInner/HughLaurie(DrHouse)5_3_cut.png,0,54,54,82,,,1.ja,1.984,None,act,1.48,None,None,None,None,None,House,"['lshift', 'h', 'o', 'u', 's', 'e', 'return']","[1.3504190121166175, 1.5005019448035455, 3.267167968740978, 3.5503678125169245, 3.7170660003066587, 3.9334995952849567, 4.600390396957664]",2016_Nov_23_1406,60.0689277873,famFaceGrey,001,jb,
186,./greyInner/TaylorSwift1_2_cut.png,0,55,55,185,,,2.nein,2.611,None,act,3.522,None,None,None,None,None,,['return'],[1.4168660839168297],2016_Nov_23_1406,60.0689277873,famFaceGrey,001,jb,
140,./greyInner/LisaEdelstein(DrLisaCuddy)9_1_cut.png,0,56,56,139,,,2.nein,6.93,None,act,1.581,None,None,None,None,None,,['return'],[1.0005829698166053],2016_Nov_23_1406,60.0689277873,famFaceGrey,001,jb,
84,./greyInner/HughLaurie(DrHouse)8_1_cut.png,0,57,57,83,,,2.nein,14.56,None,act,1.995,None,None,None,None,None,,['return'],[0.9171756199648371],2016_Nov_23_1406,60.0689277873,famFaceGrey,001,jb,
25,./greyInner/BenedictCumberbatch6_5_cut.png,0,58,58,24,,,1.ja,8.282,None,act,2.029,None,None,None,None,None,,"['lshift', u'?', 'lshift', u'?', u'\xdf', 'backspace', 'd', 'e', 'r', 'space', 's', 'i', 'backspace', 'backspace', 'backspace', 'backspace', 'backspace', 'backspace', 'return']","[6.616661039359315, 6.7998563293258485, 13.399266631357023, 13.482778595778655, 14.849386199657602, 15.999150775853195, 20.632075073055603, 20.866901550307375, 20.948633015785163, 21.248788214576052, 21.46527145019354, 21.631873638729303, 22.44855978558553, 22.63195856114544, 22.79851972436154, 22.981738398757443, 23.21525739902063, 23.448587682803918, 26.14832992071024]",2016_Nov_23_1406,60.0689277873,famFaceGrey,001,jb,
162,./greyInner/OmarEpps(DrEricForeman)2_2_cut.png,0,59,59,161,,,2.nein,5.558,None,act,13.608,None,None,None,None,None,,['return'],[1.000249844208156],2016_Nov_23_1406,60.0689277873,famFaceGrey,001,jb,
28,./greyInner/Beyonce3_2_cut.png,0,60,60,27,,,2.nein,8.339,None,act,2.53,None,None,None,None,None,,['return'],[1.0337572753269342],2016_Nov_23_1406,60.0689277873,famFaceGrey,001,jb,
50,./greyInner/CristinMilioti(Tracy_Mutter)9_1_cut.png,0,61,61,49,,,2.nein,3.424,None,dummy,5.059,None,None,None,None,None,,['return'],[0.8672108812279475],2016_Nov_23_1406,60.0689277873,famFaceGrey,001,jb,
157,./greyInner/NicoleKidman3_1_cut.png,0,62,62,156,,,1.ja,2.626,None,act,1.025,None,None,None,None,None,Nicole Kidman,"['lshift', 'n', 'i', 'c', 'o', 'l', 'e', 'space', 'lshift', 'k', 'i', 'd', 'm', 'a', 'n', 'return']","[1.6831918028146902, 1.7828394363314146, 1.949846134535619, 2.0331525620931643, 2.2167667205903854, 2.49978400168402, 2.683310365991929, 2.933312519820902, 3.333063249971019, 3.6500232408470765, 4.183174777306704, 4.399884472695703, 4.799837457678223, 4.949929005681042, 5.083025404110231, 5.949707468949782]",2016_Nov_23_1406,60.0689277873,famFaceGrey,001,jb,
24,./greyInner/BenedictCumberbatch4_1_cut.png,0,63,63,23,,,2.nein,8.245,None,act,3.16,None,None,None,None,None,,['return'],[1.267174122538563],2016_Nov_23_1406,60.0689277873,famFaceGrey,001,jb,
17,./greyInner/BastianSchweinsteiger12_1_cut.png,0,64,64,16,,,2.nein,9.064,None,act,1.199,None,None,None,None,None,,['return'],[1.0669401961604308],2016_Nov_23_1406,60.0689277873,famFaceGrey,001,jb,
143,./greyInner/MariskaHargitay(Liv)4_4_cut.png,0,65,65,142,,,1.ja,13.401,None,dummy,1.831,None,None,None,None,None,Mariska,"['lshift', 'm', 'a', 'r', 'i', 's', 'k', 'a', 'return']","[1.750410560900491, 1.866992216266226, 2.183767182941665, 2.600390396957664, 2.900225187986507, 3.2503939456473745, 3.7670422261326166, 3.916805161312368, 4.8835988560495025]",2016_Nov_23_1406,60.0689277873,famFaceGrey,001,jb,
96,./greyInner/JasonSegel(Marshall)11_1_cut.png,0,66,66,95,,,1.ja,3.631,None,act,1.248,None,None,None,None,None,Marshall,"['lshift', 'm', 'a', 'r', 's', 'h', 'a', 'l', 'l', 'return']","[1.4003533921168128, 1.550437965819583, 1.8838683924113866, 2.250338971716701, 2.6503251872090914, 3.1502597518228868, 3.4503037719914573, 3.750256305695075, 3.916594701415306, 4.800177147339127]",2016_Nov_23_1406,60.0689277873,famFaceGrey,001,jb,
134,./greyInner/LeonardoDiCaprio4_1_cut.png,0,67,67,133,,,1.ja,7.026,None,act,1.197,None,None,None,None,None,DiCaprio,"['lshift', 'd', 'i', 'lshift', 'c', 'a', 'p', 'r', 'o', 'backspace', 'i', 'o', 'return']","[2.4170236211502925, 2.5502915054203186, 2.8001389937890053, 3.4834308983845403, 3.633367370675842, 3.8669548832258442, 4.233385667968832, 4.500174972996319, 4.700152080866246, 5.699790237533307, 6.116457348642143, 6.333272889361979, 7.049918790376978]",2016_Nov_23_1406,60.0689277873,famFaceGrey,001,jb,
218,./greyInner/notfamousface3_3_cut.png,0,68,68,217,,,2.nein,3.272,None,act,2.794,None,None,None,None,None,,['return'],[1.2003996686798928],2016_Nov_23_1406,60.0689277873,famFaceGrey,001,jb,
70,./greyInner/EmmaWatson(HermioneGranger)9_1_cut.png,0,69,69,69,,,2.nein,2.315,None,act,1.065,None,None,None,None,None,,['return'],[0.7504528169847617],2016_Nov_23_1406,60.0689277873,famFaceGrey,001,jb,
35,./greyInner/BritneySpears8_5_cut.png,0,70,70,34,,,2.nein,4.196,None,act,1.576,None,None,None,None,None,,['return'],[0.9336267737817252],2016_Nov_23_1406,60.0689277873,famFaceGrey,001,jb,
214,./greyInner/notfamousface1_2_cut.png,0,71,71,213,,,2.nein,2.343,None,act,1.132,None,None,None,None,None,,['return'],[0.9338187722823932],2016_Nov_23_1406,60.0689277873,famFaceGrey,001,jb,
54,./greyInner/DannFlorek(DonaldDonCragen)5_1_cut.png,0,72,72,53,,,2.nein,5.06,None,act,2.762,None,None,None,None,None,,['return'],[0.683930668848916],2016_Nov_23_1406,60.0689277873,famFaceGrey,001,jb,
141,./greyInner/MariskaHargitay(Liv)13_1_cut.png,0,73,73,140,,,2.nein,4.527,None,dummy,1.115,None,None,None,None,None,,['return'],[0.9171916198392864],2016_Nov_23_1406,60.0689277873,famFaceGrey,001,jb,
169,./greyInner/RobertSeanLeonard(Wilson)2_6_cut.png,0,74,74,168,,,1.ja,1.914,None,act,0.988,None,None,None,None,None,Wilson,"['lshift', 'w', 'o', 'backspace', 'i', 'l', 's', 'o', 'n', 'return']","[1.950167362796492, 2.0333925602208183, 2.517008072551107, 3.450032184362499, 3.999941333790048, 4.2666666393160995, 4.466645798453101, 4.716700464694441, 4.983169361959881, 5.866584834824607]",2016_Nov_23_1406,60.0689277873,famFaceGrey,001,jb,
27,./greyInner/Beyonce11_2_cut.png,0,75,75,26,,,2.nein,3.524,None,act,1.896,None,None,None,None,None,,['return'],[0.867333136688103],2016_Nov_23_1406,60.0689277873,famFaceGrey,001,jb,
201,./greyInner/Usher1_1_cut.png,0,76,76,200,,,2.nein,8.405,None,dummy,1.69,None,None,None,None,None,,['return'],[1.6502878541650716],2016_Nov_23_1406,60.0689277873,famFaceGrey,001,jb,
59,./greyInner/ElvisPresley5_2_cut.png,0,77,77,58,,,1.ja,4.826,None,act,1.74,None,None,None,None,None,,['return'],[0.7673765825020382],2016_Nov_23_1406,60.0689277873,famFaceGrey,001,jb,
202,./greyInner/Usher11_1_cut.png,0,78,78,201,,,2.nein,5.365,None,act,1.264,None,None,None,None,None,,['return'],[1.4000945223415329],2016_Nov_23_1406,60.0689277873,famFaceGrey,001,jb,
127,./greyInner/KatjaBurkard10_1_cut.png,0,79,79,126,,,2.nein,3.779,None,act,1.348,None,None,None,None,None,,['return'],[0.9503622330739745],2016_Nov_23_1406,60.0689277873,famFaceGrey,001,jb,
175,./greyInner/SahraWagenknecht9_1_cut.png,0,80,80,174,,,2.nein,6.467,None,act,1.846,None,None,None,None,None,,['return'],[1.4671770763634413],2016_Nov_23_1406,60.0689277873,famFaceGrey,001,jb,
101,./greyInner/JimParsons(SheldonCooper)1_1_cut.png,0,81,81,100,,,2.nein,7.166,None,act,1.998,None,None,None,None,None,,['return'],[0.7336147943897231],2016_Nov_23_1406,60.0689277873,famFaceGrey,001,jb,
184,./greyInner/SigmarGabriel4_5_cut.png,0,82,82,183,,,1.ja,15.931,None,None,None,None,None,polit,2.849,None,Gabriel,"['lshift', 'g', 'a', 'b', 'r', 'i', 'e', 'l', 'return']","[2.5004198941642244, 2.583695142478973, 2.716981077894161, 2.933754772784596, 3.4335071849709493, 3.616884627361287, 4.133795059649856, 4.683518364370684, 5.849964656688826]",2016_Nov_23_1406,60.0689277873,famFaceGrey,001,jb,
223,./greyInner/notfamousface8_9_cut.png,0,83,83,222,,,2.nein,4.276,None,act,1.085,None,None,None,None,None,,['return'],[1.033204253999429],2016_Nov_23_1406,60.0689277873,famFaceGrey,001,jb,
167,./greyInner/RobertSeanLeonard(Wilson)10_1_cut.png,0,84,84,166,,,1.ja,1.64,None,act,2.593,None,None,None,None,None,Wilson,"['lshift', 'w', 'i', 'l', 's', 'o', 'n', 'return']","[1.5668661454546964, 1.6504174941837846, 1.8504475247173104, 2.0669771189495805, 2.183825438900385, 2.5503821713828074, 2.816913837392349, 3.483175720888539]",2016_Nov_23_1406,60.0689277873,famFaceGrey,001,jb,
210,./greyInner/WillSmith6_1_cut.png,0,85,85,209,,,1.ja,1.488,None,act,1.364,None,None,None,None,None,Will Smith,"['lshift', 'w', 'i', 'l', 'l', 'space', 'lshift', 's', 'n', 'i', 'backspace', 'backspace', 'm', 'i', 't', 'h', 'return']","[1.6837517984458827, 1.8004635040779249, 2.0503302743454697, 2.333864884745708, 2.5837652957779937, 4.1334332163132785, 4.450063773860165, 4.566444815402065, 4.983564846057561, 5.300078481439414, 6.450637718106009, 6.816742351544235, 7.433169956828351, 7.666662290630484, 8.033132869935798, 8.167489566232689, 8.949728391860845]",2016_Nov_23_1406,60.0689277873,famFaceGrey,001,jb,
97,./greyInner/JasonSegel(Marshall)14_1_cut.png,0,86,86,96,,,2.nein,7.709,None,dummy,1.343,None,None,None,None,None,,['return'],[0.86708821551656],2016_Nov_23_1406,60.0689277873,famFaceGrey,001,jb,
14,./greyInner/BarackObama4_1_cut.png,0,87,87,13,,,1.ja,2.496,None,None,None,None,None,polit,1.948,None,Obama,"['lshift', 'o', 'b', 'a', 'n', 'backspace', 'm', 'a', 'return']","[1.4504494118809816, 1.716736566977488, 2.1169061656546546, 2.25033486918619, 2.566841120009485, 3.50030256174432, 3.900282623439125, 4.033493482515041, 4.816887170931295]",2016_Nov_23_1406,60.0689277873,famFaceGrey,001,jb,
193,./greyInner/TomCruise5_1_cut.png,0,88,88,192,,,1.ja,3.129,None,act,1.68,None,None,None,None,None,Tom Cruise,"['lshift', 't', 'o', 'm', 'space', 'lshift', 'c', 'r', 'u', 'o', 'backspace', 'i', 's', 'e', 'return']","[1.5999949128599837, 1.7169314372513327, 2.1167904742469545, 2.5831051983586804, 3.0497862785887264, 3.4166720341454493, 3.6000137845076097, 3.9667206696649373, 4.333092788197973, 4.749889129067014, 5.83310242915104, 6.266367154472391, 6.416287216630735, 7.1162952986196615, 7.899641397667438]",2016_Nov_23_1406,60.0689277873,famFaceGrey,001,jb,
51,./greyInner/DannFlorek(DonaldDonCragen)1_1_cut.png,0,89,89,50,,,1.ja,5.027,None,act,2.965,None,None,None,None,None,Chef bei Law und Order,"['lshift', 'c', 'h', 'e', 'f', 'space', 'b', 'e', 'i', 'space', 'lshift', 'l', 'a', 'c', 'backspace', 'w', 'space', 'u', 'n', 'd', 'space', 'lshift', 'o', 'r', 'd', 'e', 'r', 'return']","[5.0332879456509545, 5.149954933684057, 5.4500547482894035, 5.700019569077995, 6.21671010564387, 6.499926769800368, 6.766612280764093, 6.899851037058397, 6.999595490331558, 7.216802412614925, 7.482967722506146, 7.5666503522625135, 7.966348570000264, 8.349770812041243, 8.716132674246182, 9.049811304033938, 9.333007045279373, 9.549763099283155, 9.782707334794395, 9.849893682880065, 9.999713643257564, 10.482836441478867, 10.599747940425004, 10.916080654140387, 11.182820318528684, 11.349677684564085, 11.4661063154781, 12.615898378637212]",2016_Nov_23_1406,60.0689277873,famFaceGrey,001,jb,
48,./greyInner/CristinMilioti(Tracy_Mutter)4_2_cut.png,0,90,90,47,,,2.nein,4.434,None,act,5.263,None,None,None,None,None,,['return'],[0.8673077009880217],2016_Nov_23_1406,60.0689277873,famFaceGrey,001,jb,
43,./greyInner/CobieSmulders(Robin)3_4_cut.png,0,91,91,42,,,2.nein,7.35,None,act,2.145,None,None,None,None,None,,['return'],[1.0671613226404588],2016_Nov_23_1406,60.0689277873,famFaceGrey,001,jb,
98,./greyInner/JasonSegel(Marshall)6_1_cut.png,0,92,92,97,,,1.ja,7.325,None,act,1.358,None,None,None,None,None,Marshall,"['lshift', 'm', 'a', 'r', 's', 'c', 'h', 'a', 'l', 'l', 'backspace', 'backspace', 'backspace', 'backspace', 'backspace', 'h', 'a', 'l', 'l', 'return']","[2.000356099790224, 2.200098953075212, 2.600482293677487, 3.000447176003945, 3.416872647969285, 3.766970842072624, 4.0336485582265595, 4.383189218217012, 4.766513409740583, 5.616764423171844, 9.483142080123798, 9.849803837427316, 10.033056973094062, 10.18304965007701, 10.333017301611108, 11.299543511249794, 11.466421800199896, 11.699667161570687, 11.93292934332203, 12.61621960690536]",2016_Nov_23_1406,60.0689277873,famFaceGrey,001,jb,
103,./greyInner/JimParsons(SheldonCooper)6_1_cut.png,0,93,93,102,,,2.nein,3.877,None,dummy,1.23,None,None,None,None,None,,['return'],[1.667177158415143],2016_Nov_23_1406,60.0689277873,famFaceGrey,001,jb,
163,./greyInner/OmarEpps(DrEricForeman)3_1_cut.png,0,94,94,162,,,1.ja,15.856,None,act,1.334,None,None,None,None,None,Dr House,"['lshift', 'd', 'r', 'period', 'space', 'lshift', 'h', 'o', 'u', 's', 'e', 'return']","[2.3669604216411244, 2.4502660286962055, 2.699944492738723, 3.6337394703368773, 3.900191957476636, 4.116477451047103, 4.266797099837277, 4.516841509746882, 4.733345258027839, 4.9001168811410025, 5.099770709479344, 5.850033579226874]",2016_Nov_23_1406,60.0689277873,famFaceGrey,001,jb,
170,./greyInner/RobertSeanLeonard(Wilson)8_1_cut.png,0,95,95,169,,,1.ja,2.987,None,act,1.381,None,None,None,None,None,Wilson,"['lshift', 'w', 'i', 'l', 's', 'o', 'n', 'return']","[1.350199936903664, 1.4836971527220157, 1.7170832309420803, 1.9170320313423872, 2.1002240392808744, 2.383462857109407, 2.6333854218173656, 3.316958349863853]",2016_Nov_23_1406,60.0689277873,famFaceGrey,001,jb,
138,./greyInner/LisaEdelstein(DrLisaCuddy)2_2_cut.png,0,96,96,137,,,2.nein,2.831,None,dummy,2.195,None,None,None,None,None,,['return'],[0.9337728239224816],2016_Nov_23_1406,60.0689277873,famFaceGrey,001,jb,
198,./greyInner/UrsulavonderLeyen5_1_cut.png,0,97,97,197,,,2.nein,1.912,None,act,2.411,None,None,None,None,None,,['return'],[0.7001931061859068],2016_Nov_23_1406,60.0689277873,famFaceGrey,001,jb,
114,./greyInner/JoshRadnor(Ted)7_1_cut.png,0,98,98,113,,,2.nein,4.458,None,act,1.379,None,None,None,None,None,,['return'],[0.8341153443325311],2016_Nov_23_1406,60.0689277873,famFaceGrey,001,jb,
174,./greyInner/SahraWagenknecht6_2_cut.png,0,99,99,173,,,2.nein,3.599,None,act,3.232,None,None,None,None,None,,['return'],[0.6505561597696214],2016_Nov_23_1406,60.0689277873,famFaceGrey,001,jb,
136,./greyInner/LisaEdelstein(DrLisaCuddy)1_1_cut.png,0,100,100,135,,,2.nein,2.681,None,act,1.848,None,None,None,None,None,,['return'],[1.0839004742119869],2016_Nov_23_1406,60.0689277873,famFaceGrey,001,jb,
115,./greyInner/JoshRadnor(Ted)9_1_cut.png,0,101,101,114,,,2.nein,5.261,None,act,1.499,None,None,None,None,None,,['return'],[0.7336069995762955],2016_Nov_23_1406,60.0689277873,famFaceGrey,001,jb,
49,./greyInner/CristinMilioti(Tracy_Mutter)8_1_cut.png,0,102,102,48,,,2.nein,3.69,None,act,1.692,None,None,None,None,None,,['return'],[0.750468406604341],2016_Nov_23_1406,60.0689277873,famFaceGrey,001,jb,
128,./greyInner/KatjaBurkard4_1_cut.png,0,103,103,127,,,2.nein,1.312,None,act,1.091,None,None,None,None,None,,['return'],[1.3836232661160466],2016_Nov_23_1406,60.0689277873,famFaceGrey,001,jb,
154,./greyInner/NeilPatrickHarris(Barney)2_2_cut.png,0,104,104,153,,,1.ja,5.56,None,act,3.382,None,None,None,None,None,,['return'],[15.099140970796725],2016_Nov_23_1406,60.0689277873,famFaceGrey,001,jb,
47,./greyInner/CristinMilioti(Tracy_Mutter)2_1_cut.png,0,105,105,46,,,1.ja,17.077,None,act,1.481,None,None,None,None,None,Audrey Hepburn,"['lshift', 'a', 'u', 's', 'backspace', 'd', 'r', 'e', 'y', 'space', 'lshift', 'h', 'e', 'p', 'b', 'u', 'r', 'n', 'return']","[2.1169160117315187, 2.233614589262288, 2.4337820546206785, 2.6500466252764454, 4.149886011146009, 4.416852135305817, 4.700038440725621, 5.033697378359648, 5.733447411075758, 5.9499634669518855, 6.349819221923099, 6.516619152505882, 6.8332189410648425, 7.333100172756531, 7.866602475714899, 8.16660177828453, 8.332773200949305, 8.899681602480996, 9.666485471498163]",2016_Nov_23_1406,60.0689277873,famFaceGrey,001,jb,
135,./greyInner/LeonardoDiCaprio7_1_cut.png,0,106,106,134,,,1.ja,22.644,None,act,1.143,None,None,None,None,None,DiCaprio,"['lshift', 'd', 'i', 'lshift', 'c', 'a', 'r', 'p', 'backspace', 'backspace', 'p', 'r', 'i', 'o', 'return']","[1.916002706027939, 2.0325285669568984, 2.282466721284436, 2.715990726635937, 2.8827385550612235, 3.082359152889694, 3.3487332816657727, 3.9330614448517736, 4.499341338465456, 4.982332855659479, 5.748585344357707, 5.948870552390872, 6.23224803580888, 6.532280158633512, 7.648438022431947]",2016_Nov_23_1406,60.0689277873,famFaceGrey,001,jb,
86,./greyInner/Ice-T(OdafinFinTutuola)10_1_cut.png,0,107,107,85,,,1.ja,3.426,None,act,1.532,None,None,None,None,None,Law und Order,"['lshift', 'l', 'a', 'w', 'lshift', '6', 'u', 'backspace', 'space', 'u', 'n', 'd', 'space', 'lshift', 'o', 'r', 'd', 'e', 'r', 'return']","[1.8836813169436937, 2.2169693856740196, 3.366899704164098, 4.117071497697907, 5.033219023112906, 5.30003950738319, 7.316637121595704, 7.883114757260046, 8.199822852660873, 8.433065342258487, 8.682585448565078, 8.766425205300038, 8.9162541912483, 9.199651366820035, 9.31615425356722, 9.549313872015773, 9.8329530969786, 10.032893692314246, 10.149648064281791, 10.716361595539638]",2016_Nov_23_1406,60.0689277873,famFaceGrey,001,jb,
9,./greyInner/AngelaMerkel5_1_cut.png,0,108,108,8,,,1.ja,5.22,None,None,None,None,None,polit,2.081,None,Merkel,"['lshift', 'm', 'e', 'r', 'k', 'e', 'l', 'return']","[1.2499369235665654, 1.6004125506296987, 2.10027901320791, 2.250382048303436, 3.200112081176485, 3.41691490404628, 3.8664707844327495, 5.033283432865574]",2016_Nov_23_1406,60.0689277873,famFaceGrey,001,jb,
197,./greyInner/UrsulavonderLeyen4_1_cut.png,0,109,109,196,,,2.nein,3.26,None,act,1.248,None,None,None,None,None,,['return'],[0.6671664918285387],2016_Nov_23_1406,60.0689277873,famFaceGrey,001,jb,
108,./greyInner/JoachimLoew15_1_cut.png,0,110,110,107,,,1.ja,1.886,None,None,None,None,None,sport,1.781,None,Jogi Löw,"['lshift', 'j', 'o', 'g', 'i', 'space', 'lshift', 'l', 'o', 'backspace', u'\xf6', 'w', 'return']","[1.616883806855185, 1.7667058184997586, 2.050509965258243, 2.500433022265497, 2.7834096882943413, 3.0333503041438235, 3.266688382736902, 3.3836659324515495, 3.600371115055168, 5.0167317670166085, 5.433408313947439, 5.932980624973425, 7.199890954696457]",2016_Nov_23_1406,60.0689277873,famFaceGrey,001,jb,
191,./greyInner/TomCruise1_1_cut.png,0,111,111,190,,,2.nein,5.315,None,act,3.198,None,None,None,None,None,,['return'],[0.8837892135416041],2016_Nov_23_1406,60.0689277873,famFaceGrey,001,jb,
190,./greyInner/TaylorSwift8_1_cut.png,0,112,112,189,,,2.nein,1.827,None,act,1.531,None,None,None,None,None,,['return'],[0.8838244953185495],2016_Nov_23_1406,60.0689277873,famFaceGrey,001,jb,
72,./greyInner/GüntherJauch3_1_cut.png,0,113,113,71,,,1.ja,4.077,None,None,None,host,1.674,None,None,None,Jauch,"['lshift', 'j', 'a', 'u', 'c', 'h', 'return']","[1.3499336825698265, 1.4500678763943142, 1.699781211962545, 1.8167292234429624, 2.0167465361300856, 2.116668218790437, 2.766663562419126]",2016_Nov_23_1406,60.0689277873,famFaceGrey,001,jb,
148,./greyInner/MilaKunis4_1_cut.png,0,114,114,147,,,2.nein,3.828,None,act,2.048,None,None,None,None,None,,['return'],[0.8171140409540385],2016_Nov_23_1406,60.0689277873,famFaceGrey,001,jb,
104,./greyInner/JimParsons(SheldonCooper)8_1_cut.png,0,115,115,103,,,1.ja,19.912,None,act,3.512,None,None,None,None,None,Wilson,"['lshift', 'w', 'i', 'l', 's', 'o', 'n', 'return']","[1.5170162776194047, 1.6169067810369597, 1.8669097553720349, 2.083666629881918, 2.3836946501760394, 2.5336101995526406, 2.750161537205713, 3.433649953090935]",2016_Nov_23_1406,60.0689277873,famFaceGrey,001,jb,
45,./greyInner/CobieSmulders(Robin)5_1_cut.png,0,116,116,44,,,2.nein,3.673,None,act,2.815,None,None,None,None,None,,['return'],[1.1337729059778212],2016_Nov_23_1406,60.0689277873,famFaceGrey,001,jb,
168,./greyInner/RobertSeanLeonard(Wilson)11_2_cut.png,0,117,117,167,,,1.ja,4.146,None,act,4.014,None,None,None,None,None,Wilson,"['lshift', 'w', 'i', 'l', 's', 'o', 'n', 'return']","[1.5503284282094683, 1.6668518276164832, 1.9336920040441328, 2.1169106784400356, 2.5001323066608165, 2.6835446205768676, 2.966872873606917, 3.5664780459155736]",2016_Nov_23_1406,60.0689277873,famFaceGrey,001,jb,
203,./greyInner/Usher2_1_cut.png,0,118,118,202,,,2.nein,2.694,None,act,1.098,None,None,None,None,None,,['return'],[0.7339237150554254],2016_Nov_23_1406,60.0689277873,famFaceGrey,001,jb,
216,./greyInner/notfamousface14_6_cut.png,0,119,119,215,,,2.nein,4.216,None,dummy,0.968,None,None,None,None,None,,['return'],[1.0842381126058172],2016_Nov_23_1406,60.0689277873,famFaceGrey,001,jb,
106,./greyInner/JoachimLoew1_1_cut.png,0,120,120,105,,,1.ja,1.639,None,None,None,None,None,sport,1.659,None,Jogi Löw,"['lshift', 'j', 'o', 'g', 'i', 'space', 'lshift', 'l', u'\xf6', 'w', 'return']","[1.3167335311045463, 1.4338054390573234, 1.6338403926311003, 1.88375023948538, 2.016998841856548, 2.3000682251113176, 2.6669100835752033, 2.7837325575746945, 3.2833951243046613, 3.7001245939027285, 4.333206428342237]",2016_Nov_23_1406,60.0689277873,famFaceGrey,001,jb,
44,./greyInner/CobieSmulders(Robin)4_7_cut.png,0,121,121,43,,,1.ja,5.086,None,act,5.277,None,None,None,None,None,,['return'],[3.366953857592307],2016_Nov_23_1406,60.0689277873,famFaceGrey,001,jb,
123,./greyInner/KaleyCuoco(Penny)3_1_cut.png,0,122,122,122,,,2.nein,1.735,None,act,2.498,None,None,None,None,None,,['return'],[1.0004923038577545],2016_Nov_23_1406,60.0689277873,famFaceGrey,001,jb,
113,./greyInner/JoshRadnor(Ted)6_2_cut.png,0,123,123,112,,,2.nein,6.95,None,dummy,1.364,None,None,None,None,None,,['return'],[0.7505783544693259],2016_Nov_23_1406,60.0689277873,famFaceGrey,001,jb,
19,./greyInner/BastianSchweinsteiger3_1_cut.png,0,124,124,18,,,2.nein,3.124,None,dummy,1.231,None,None,None,None,None,,['return'],[0.7836849681989406],2016_Nov_23_1406,60.0689277873,famFaceGrey,001,jb,
150,./greyInner/MilaKunis7_3_cut.png,0,125,125,149,,,2.nein,5.934,None,dummy,4.01,None,None,None,None,None,,['return'],[0.7839106074679876],2016_Nov_23_1406,60.0689277873,famFaceGrey,001,jb,
222,./greyInner/notfamousface7_cut.png,0,126,126,221,,,2.nein,6.963,None,dummy,3.904,None,None,None,None,None,,['return'],[0.7502374340474489],2016_Nov_23_1406,60.0689277873,famFaceGrey,001,jb,
31,./greyInner/BritneySpears1_1_cut.png,0,127,127,30,,,1.ja,3.009,None,act,4.496,None,None,None,None,None,Britney Spears,"['lshift', 'b', 'r', 'i', 't', 'n', 'e', 'y', 'space', 'lshift', 's', 'p', 'e', 'a', 'r', 's', 'return']","[2.6000564508431125, 2.733531512985792, 2.983694486072636, 3.1999668515418307, 3.466878001770965, 3.9168564429637627, 4.08359688683413, 5.066753120692738, 5.43352769763078, 5.749957231102599, 5.866745654086117, 6.116293657607457, 6.700017107559688, 7.283027127174137, 7.56663271137586, 8.016533204459847, 8.69977505816496]",2016_Nov_23_1406,60.0689277873,famFaceGrey,001,jb,
142,./greyInner/MariskaHargitay(Liv)14_1_cut.png,0,128,128,141,,,1.ja,5.194,None,act,2.264,None,None,None,None,None,Mariska,"['lshift', 'm', 'a', 'r', 'i', 's', 'k', 'a', 'return']","[0.9836719221493695, 1.2837040449740016, 1.7504122019163333, 2.200409925011627, 2.5502972489666718, 2.933592312510882, 3.3503041412186576, 3.566903478495078, 5.200217926507321]",2016_Nov_23_1406,60.0689277873,famFaceGrey,001,jb,
224,./greyInner/notfamousface9_1_cut.png,0,129,129,223,,,2.nein,3.296,None,act,1.23,None,None,None,None,None,,['return'],[0.667172645629762],2016_Nov_23_1406,60.0689277873,famFaceGrey,001,jb,
217,./greyInner/notfamousface2_cut.png,0,130,130,216,,,2.nein,2.8,None,act,1.485,None,None,None,None,None,,['return'],[1.6003452691002167],2016_Nov_23_1406,60.0689277873,famFaceGrey,001,jb,
177,./greyInner/Shakira2_1_cut.png,0,131,131,176,,,2.nein,2.149,None,act,0.748,None,None,None,None,None,,['return'],[0.6339298278289789],2016_Nov_23_1406,60.0689277873,famFaceGrey,001,jb,
165,./greyInner/OmarEpps(DrEricForeman)9_1_cut.png,0,132,132,164,,,2.nein,1.244,None,dummy,1.131,None,None,None,None,None,,['return'],[0.8004585810413118],2016_Nov_23_1406,60.0689277873,famFaceGrey,001,jb,
3,./greyInner/AlysonHannigan(Lily)14_2_cut.png,0,133,133,2,,,1.ja,2.661,None,act,2.681,None,None,None,None,None,Lily,"['lshift', 'l', 'i', 'l', 'y', 'return']","[1.3839170074134017, 1.567118861432391, 1.9501070555743354, 2.233835305487446, 2.6839003101085837, 3.5001421527376806]",2016_Nov_23_1406,60.0689277873,famFaceGrey,001,jb,
29,./greyInner/Beyonce5_3_cut.png,0,134,134,28,,,2.nein,5.028,None,dummy,1.278,None,None,None,None,None,,['return'],[0.7673573005995422],2016_Nov_23_1406,60.0689277873,famFaceGrey,001,jb,
91,./greyInner/JanHofer1_3_cut.png,0,135,135,90,,,2.nein,4.106,None,act,3.198,None,None,None,None,None,,['return'],[0.7337842289634864],2016_Nov_23_1406,60.0689277873,famFaceGrey,001,jb,
1,./greyInner/AlysonHannigan(Lily)1_1_cut.png,0,136,136,0,,,1.ja,2.802,None,act,1.927,None,None,None,None,None,Lily,"['lshift', 'l', 'i', 'l', 'y', 'return']","[1.2837696854876413, 1.400325494898425, 1.8170533234806499, 2.100418909554719, 2.550226275157911, 3.2837553266253963]",2016_Nov_23_1406,60.0689277873,famFaceGrey,001,jb,
204,./greyInner/Usher4_1_cut.png,0,137,137,203,,,2.nein,5.573,None,act,1.197,None,None,None,None,None,,['return'],[0.6171303690352943],2016_Nov_23_1406,60.0689277873,famFaceGrey,001,jb,
42,./greyInner/CobieSmulders(Robin)2_1_cut.png,0,138,138,41,,,1.ja,8.75,None,act,1.513,None,None,None,None,None,Mariska,"['lshift', 'm', 'a', 'r', 'i', 's', 'k', 'a', 'return']","[1.533669686265057, 1.6669535704131704, 1.9836661785993783, 2.367164727740601, 2.6336434710865433, 2.88366367605704, 3.283509584947751, 3.3835982406671974, 4.1334426521389105]",2016_Nov_23_1406,60.0689277873,famFaceGrey,001,jb,
60,./greyInner/ElvisPresley6_1_cut.png,0,139,139,59,,,1.ja,4.137,None,act,0.915,None,None,None,None,None,,['return'],[0.9173027984616056],2016_Nov_23_1406,60.0689277873,famFaceGrey,001,jb,
164,./greyInner/OmarEpps(DrEricForeman)5_2_cut.png,0,140,140,163,,,1.ja,3.497,None,act,1.595,None,None,None,None,None,Dr Hous,"['lshift', 'h', 'backspace', 'lshift', 'd', 'r', 'period', 'space', 'lshift', 'h', 'o', 'u', 's', 'return']","[1.4838009467821394, 1.6337357780612365, 2.900263341536629, 4.0666891211913025, 4.16692628857345, 4.416555932486517, 5.183624004570447, 5.450192593369138, 6.300017763966025, 6.416646598449006, 6.833259556129633, 7.200092799277627, 7.400026830560819, 7.999556926530204]",2016_Nov_23_1406,60.0689277873,famFaceGrey,001,jb,
219,./greyInner/notfamousface4_2_cut.png,0,141,141,218,,,2.nein,3.899,None,act,0.908,None,None,None,None,None,,['return'],[0.8170758874075545],2016_Nov_23_1406,60.0689277873,famFaceGrey,001,jb,
36,./greyInner/CarenMiosga1_1_cut.png,0,142,142,35,,,2.nein,9.16,None,dummy,3.347,None,None,None,None,None,,['return'],[0.717144358666701],2016_Nov_23_1406,60.0689277873,famFaceGrey,001,jb,
208,./greyInner/WillSmith4_1_cut.png,0,143,143,207,,,1.ja,4.024,None,act,1.545,None,None,None,None,None,Will Smith,"['lshift', 'w', 'i', 'l', 'l', 'space', 'lshift', 's', 'm', 'i', 't', 'h', 'return']","[1.2337811520665127, 1.333879243607953, 1.517122943452705, 1.8170619388001796, 2.00028881826438, 2.2167002595706435, 2.5837361678022717, 2.650251751885662, 2.9666304139609565, 4.083655963298952, 4.466926411652821, 4.599906298168207, 5.450092081333423]",2016_Nov_23_1406,60.0689277873,famFaceGrey,001,jb,
171,./greyInner/SahraWagenknecht12_1_cut.png,0,144,144,170,,,2.nein,2.464,None,act,1.398,None,None,None,None,None,,['return'],[0.9504820270121854],2016_Nov_23_1406,60.0689277873,famFaceGrey,001,jb,
32,./greyInner/BritneySpears14_2_cut.png,0,145,145,31,,,2.nein,21.658,None,act,1.414,None,None,None,None,None,,['return'],[0.583867448829551],2016_Nov_23_1406,60.0689277873,famFaceGrey,001,jb,
82,./greyInner/HughLaurie(DrHouse)4_1_cut.png,0,146,146,81,,,1.ja,1.876,None,act,1.229,None,None,None,None,None,House,"['lshift', 'h', 'o', 'u', 's', 'e', 'return']","[1.3836273686501954, 1.5004293299898563, 1.7504524067335296, 1.917084133499884, 2.050452529809263, 2.2504415350231284, 2.833740372898319]",2016_Nov_23_1406,60.0689277873,famFaceGrey,001,jb,
205,./greyInner/Usher7_1_cut.png,0,147,147,204,,,2.nein,6.494,None,dummy,1.73,None,None,None,None,None,,['return'],[0.6339290073228767],2016_Nov_23_1406,60.0689277873,famFaceGrey,001,jb,
52,./greyInner/DannFlorek(DonaldDonCragen)10_1_cut.png,0,148,148,51,,,2.nein,4.466,None,act,3.625,None,None,None,None,None,,['return'],[0.6332246025594941],2016_Nov_23_1406,60.0689277873,famFaceGrey,001,jb,
199,./greyInner/UrsulavonderLeyen7_1_cut.png,0,149,149,198,,,2.nein,4.386,None,act,1.348,None,None,None,None,None,,['return'],[0.8006152977686725],2016_Nov_23_1406,60.0689277873,famFaceGrey,001,jb,
189,./greyInner/TaylorSwift7_1_cut.png,0,150,150,188,,,2.nein,1.846,None,act,2.748,None,None,None,None,None,,['return'],[0.6334551648615161],2016_Nov_23_1406,60.0689277873,famFaceGrey,001,jb,
92,./greyInner/JanHofer3_1_cut.png,0,151,151,91,,,2.nein,2.808,None,act,2.315,None,None,None,None,None,,['return'],[1.617004011048266],2016_Nov_23_1406,60.0689277873,famFaceGrey,001,jb,
180,./greyInner/Shakira9_1_cut.png,0,152,152,179,,,2.nein,5.932,None,dummy,2.311,None,None,None,None,None,,['return'],[0.883745316445129],2016_Nov_23_1406,60.0689277873,famFaceGrey,001,jb,
68,./greyInner/EmmaWatson(HermioneGranger)3_1_cut.png,0,153,153,67,,,2.nein,11.015,None,act,1.147,None,None,None,None,None,,['return'],[1.183801644216146],2016_Nov_23_1406,60.0689277873,famFaceGrey,001,jb,
88,./greyInner/Ice-T(OdafinFinTutuola)5_1_cut.png,0,154,154,87,,,1.ja,1.559,None,act,1.231,None,None,None,None,None,Law und Order,"['lshift', 'l', 'a', 'w', 'space', 'u', 'n', 'd', 'space', 'lshift', 'o', 'r', 'd', 'e', 'r', 'return']","[1.2171646662027342, 1.3503390127443708, 1.7002878746789065, 1.966963949820638, 2.300185967782454, 2.6336972142598825, 2.9335164156691462, 3.033656353039987, 3.183488621012657, 3.8501632192419493, 4.166945160224714, 4.650058522620384, 4.983554999980697, 5.1670116212444555, 5.283318406953185, 5.949988902651967]",2016_Nov_23_1406,60.0689277873,famFaceGrey,001,jb,
71,./greyInner/GüntherJauch2_1_cut.png,0,155,155,70,,,2.nein,1.715,None,act,2.198,None,None,None,None,None,,['return'],[0.5501852498382505],2016_Nov_23_1406,60.0689277873,famFaceGrey,001,jb,
6,./greyInner/AngelaMerkel1_1_cut.png,0,156,156,5,,,1.ja,1.621,None,None,None,None,None,polit,1.113,None,Merkel,"['lshift', 'm', 'e', 'r', 'k', 'e', 'l', 'return']","[1.8338495002499258, 1.9337662598736642, 2.1670546978311904, 2.250339381971571, 2.5335416872658243, 2.667052441436681, 3.6502402647929557, 4.150237598147214]",2016_Nov_23_1406,60.0689277873,famFaceGrey,001,jb,
78,./greyInner/GeorgeClooney16_1_cut.png,0,157,157,77,,,2.nein,15.227,None,dummy,1.078,None,None,None,None,None,,['return'],[0.634843051480857],2016_Nov_23_1406,60.0689277873,famFaceGrey,001,jb,
183,./greyInner/SigmarGabriel3_3_cut.png,0,158,158,182,,,2.nein,4.224,None,dummy,1.197,None,None,None,None,None,,['return'],[0.733931509865215],2016_Nov_23_1406,60.0689277873,famFaceGrey,001,jb,
200,./greyInner/UrsulavonderLeyen8_2_cut.png,0,159,159,199,,,2.nein,4.113,None,act,2.929,None,None,None,None,None,,['return'],[0.633920802258217],2016_Nov_23_1406,60.0689277873,famFaceGrey,001,jb,
2,./greyInner/AlysonHannigan(Lily)12_2_cut.png,0,160,160,1,,,1.ja,2.788,None,act,1.891,None,None,None,None,None,Lily,"['lshift', 'l', 'i', 'l', 'y', 'return']","[1.6997984425979666, 1.7999855590860534, 2.199857313931716, 2.666538804416632, 3.2164889791638416, 4.016700998021406]",2016_Nov_23_1406,60.0689277873,famFaceGrey,001,jb,
182,./greyInner/SigmarGabriel11_3_cut.png,0,161,161,181,,,2.nein,13.357,None,act,1.632,None,None,None,None,None,,['return'],[0.5170913539514004],2016_Nov_23_1406,60.0689277873,famFaceGrey,001,jb,
34,./greyInner/BritneySpears7_1_cut.png,0,162,162,33,,,1.ja,5.498,None,None,None,music,2.748,None,None,None,Britney Spears,"['lshift', 'b', 'r', 'i', 't', 'n', 'e', 'y', 'space', 'lshift', 's', 'p', 'e', 'a', 'r', 's', 'return']","[1.4666285678176791, 1.5669740420489688, 1.8671132409654092, 1.9505008986598114, 2.1337314704032906, 2.6003108078330115, 2.767751143685018, 3.6669002374983393, 3.9001780088692612, 4.2001005940874165, 4.299710074057657, 4.7500770250408095, 4.999982769364578, 5.216772464133101, 5.483460846870003, 6.183286366180255, 6.899999138469866]",2016_Nov_23_1406,60.0689277873,famFaceGrey,001,jb,
74,./greyInner/GüntherJauch7_1_cut.png,0,163,163,73,,,1.ja,1.818,None,None,None,host,2.064,None,None,None,Jauch,"['lshift', 'g', u'\xfc', 'n', 'backspace', 'backspace', 'backspace', 'lshift', 'j', 'a', 'u', 'c', 'h', 'return']","[1.600173783263017, 1.883803162152617, 2.417017467352707, 2.717000359793019, 3.166625162717537, 3.3503000386881467, 3.516922329632507, 3.866957754999021, 4.016903663112316, 4.366920216827566, 4.533594199678191, 4.867123907548375, 4.888279024697113, 5.58338088851815]",2016_Nov_23_1406,60.0689277873,famFaceGrey,001,jb,
62,./greyInner/EmilyDeschanel3_1_cut.png,0,164,164,61,,,1.ja,5.624,None,act,1.714,None,None,None,None,None,Bones,"['lshift', 'b', 'o', 'n', 'e', 's', 'return']","[1.0337158397524036, 1.1338213158560393, 1.3670613439317094, 1.600203321493609, 1.701280277200567, 2.2839534789272875, 2.9668412841092504]",2016_Nov_23_1406,60.0689277873,famFaceGrey,001,jb,
212,./greyInner/notfamousface11_1_cut.png,0,165,165,211,,,2.nein,5.257,None,act,1.425,None,None,None,None,None,,['return'],[0.6326207098281884],2016_Nov_23_1406,60.0689277873,famFaceGrey,001,jb,
61,./greyInner/EmilyDeschanel15_1_cut.png,0,166,166,60,,,1.ja,3.142,None,act,1.33,None,None,None,None,None,Bones,"['lshift', 'b', 'o', 'n', 'e', 's', 'return']","[1.5004010225165985, 1.7169178988951899, 1.9668687710764061, 2.2169537960544403, 2.383702034734597, 2.6499896000823355, 3.2668208945251536]",2016_Nov_23_1406,60.0689277873,famFaceGrey,001,jb,
196,./greyInner/UrsulavonderLeyen1_1_cut.png,0,167,167,195,,,2.nein,2.931,None,act,1.104,None,None,None,None,None,,['return'],[0.5501971471821889],2016_Nov_23_1406,60.0689277873,famFaceGrey,001,jb,
147,./greyInner/MilaKunis10_1_cut.png,0,168,168,146,,,2.nein,7.586,None,act,1.248,None,None,None,None,None,,['return'],[0.6338818282019929],2016_Nov_23_1406,60.0689277873,famFaceGrey,001,jb,
209,./greyInner/WillSmith5_1_cut.png,0,169,169,208,,,1.ja,2.015,None,act,1.047,None,None,None,None,None,Will Smith,"['lshift', 'w', 'i', 'l', 'l', 'space', 'lshift', 's', 'm', 'i', 't', 'h', 'return']","[1.2836740964885394, 1.3837418292932853, 1.6005142934263858, 1.8168256329481665, 1.9667227209283737, 2.2337274088931736, 2.5668271713984723, 2.6669150066118164, 3.050587092857313, 3.250272510696959, 3.63376162401255, 3.817116092221113, 4.483559717893513]",2016_Nov_23_1406,60.0689277873,famFaceGrey,001,jb,
95,./greyInner/JanHofer9_2_cut.png,0,170,170,94,,,2.nein,4.813,None,act,3.513,None,None,None,None,None,,['return'],[0.9336431839110446],2016_Nov_23_1406,60.0689277873,famFaceGrey,001,jb,
152,./greyInner/NeilPatrickHarris(Barney)11_2_cut.png,0,171,171,151,,,2.nein,3.361,None,act,1.448,None,None,None,None,None,,['return'],[0.6004937807665556],2016_Nov_23_1406,60.0689277873,famFaceGrey,001,jb,
151,./greyInner/NeilPatrickHarris(Barney)1_1_cut.png,0,172,172,150,,,1.ja,3.085,None,act,1.147,None,None,None,None,None,Barney,"['j', 'lshift', 'b', 'backspace', 'backspace', 'lshift', 'b', 'a', 'r', 'n', 'e', 's', 'backspace', 'y', 'return']","[1.117143292009132, 1.2667934075579979, 1.4172554142132867, 2.467136871546245, 2.833624271235749, 3.233576435712166, 3.4170560311504232, 3.7667973049647117, 3.966915950193652, 4.21692466807508, 4.366732731108641, 4.766639357476379, 5.783401483229682, 6.250049332946219, 6.566670864922344]",2016_Nov_23_1406,60.0689277873,famFaceGrey,001,jb,
185,./greyInner/SigmarGabriel8_2_cut.png,0,173,173,184,,,1.ja,20.777,None,act,3.743,None,None,None,None,None,,['return'],[0.7169228219354409],2016_Nov_23_1406,60.0689277873,famFaceGrey,001,jb,
192,./greyInner/TomCruise4_1_cut.png,0,174,174,191,,,1.ja,8.86,None,act,1.396,None,None,None,None,None,Tom Cruise,"['lshift', 't', 'o', 'm', 'space', 'lshift', 'c', 'r', 'u', 'i', 's', 'e', 'return']","[1.5503054540313315, 1.6671262870149803, 2.01685525323046, 2.3836651119454473, 2.533656558163784, 2.9501468501366617, 3.0668478891857376, 3.4335428769991267, 3.6834822620876366, 3.949955261887226, 4.216772874387971, 4.549768842829508, 5.183099700967432]",2016_Nov_23_1406,60.0689277873,famFaceGrey,001,jb,
13,./greyInner/BarackObama2_1_cut.png,0,175,175,12,,,1.ja,1.659,None,None,None,None,None,polit,1.984,None,Obama,"['lshift', 'o', 'b', 'a', 'm', 'a', 'return']","[1.2003688996919664, 1.6502837516345608, 2.1003454742312897, 2.2837943006816204, 2.7336943835107377, 2.8680317979087704, 3.5336184046173003]",2016_Nov_23_1406,60.0689277873,famFaceGrey,001,jb,
76,./greyInner/GeorgeClooney11_1_cut.png,0,176,176,75,,,1.ja,4.483,None,act,1.448,None,None,None,None,None,Charlie Sheen,"['lshift', 'c', 'h', 'a', 'r', 'l', 'i', 'e', 'space', 'lshift', 's', 'h', 'e', 'e', 'n', 'return']","[4.866391605562967, 4.950198542042926, 5.183483287721174, 5.29982166292757, 5.5500412509609305, 5.933407698565134, 6.166635008794401, 6.233394693539594, 6.549843919165141, 6.966468363938475, 7.099770709479344, 7.48279705717141, 7.599740145615215, 7.83322591536853, 8.049945456834394, 9.716110110319278]",2016_Nov_23_1406,60.0689277873,famFaceGrey,001,jb,
26,./greyInner/Beyonce1_1_cut.png,0,177,177,25,,,2.nein,2.912,None,act,1.828,None,None,None,None,None,,['return'],[0.6167262696217222],2016_Nov_23_1406,60.0689277873,famFaceGrey,001,jb,
132,./greyInner/LeonardoDiCaprio2_1_cut.png,0,178,178,131,,,1.ja,9.532,None,act,6.362,None,None,None,None,None,Brad Pit,"['lshift', 'b', 'r', 'a', 'd', 'space', 'lshift', 'p', 'i', 't', 'return']","[2.6834666724644194, 2.783494200455607, 3.0335468154298724, 3.216845489205298, 3.533428867631301, 4.000331894847477, 4.233406180628663, 4.383590445861046, 4.700290746452083, 5.400099855633016, 6.933200110441248]",2016_Nov_23_1406,60.0689277873,famFaceGrey,001,jb,
207,./greyInner/WillSmith14_1_cut.png,0,179,179,206,,,1.ja,7.063,None,act,0.945,None,None,None,None,None,Will Smith,"['lshift', 'w', 'i', 'l', 'l', 'space', 'lshift', 's', 'm', 'i', 't', 'h', 'return']","[1.9670328723623243, 2.1337450087594334, 2.333625707124156, 2.567081528392009, 2.733680845154595, 2.933519697693555, 3.333398837097775, 3.4170096725429175, 3.7835171746373817, 4.000314253960823, 4.26697597024031, 4.516840689244418, 5.833533605276898]",2016_Nov_23_1406,60.0689277873,famFaceGrey,001,jb,
107,./greyInner/JoachimLoew12_1_cut.png,0,180,180,106,,,1.ja,7.182,None,act,3.165,None,None,None,None,None,Wilson,"['lshift', 'w', 'i', 'l', 's', 'o', 'n', 'return']","[1.966785899923707, 2.067084605288983, 2.3336691939621232, 2.5336085585367982, 2.800267403043108, 3.0164819228084525, 3.216745387420815, 3.816890452955704]",2016_Nov_23_1406,60.0689277873,famFaceGrey,001,jb,
89,./greyInner/Ice-T(OdafinFinTutuola)6_1_cut.png,0,181,181,88,,,1.ja,1.793,None,dummy,1.263,None,None,None,None,None,Law und Order,"['lshift', 'l', 'o', 'w', 'space', 'u', 'backspace', 'backspace', 'backspace', 'backspace', 'a', 'w', 'space', 'u', 'n', 'd', 'space', 'lshift', 'o', 'r', 'd', 'e', 'r', 'return']","[1.0337064039304096, 1.1672483373477007, 1.583646322345885, 1.9836132559357793, 2.4008510292624123, 2.950298233572539, 4.783430611205404, 5.033490610738227, 5.216546824864054, 5.60007163021146, 5.800223095695401, 7.066518455856567, 7.250093640293926, 7.500030153609259, 7.7331553107906075, 7.83322550511366, 8.033244458812987, 8.399692474191397, 8.549903405881196, 8.933160315878922, 9.316363072452077, 9.599412763553119, 9.716324262499256, 10.43292667667265]",2016_Nov_23_1406,60.0689277873,famFaceGrey,001,jb,
80,./greyInner/GeorgeClooney4_2_cut.png,0,182,182,79,,,2.nein,4.253,None,dummy,2.656,None,None,None,None,None,,['return'],[0.7666639726703579],2016_Nov_23_1406,60.0689277873,famFaceGrey,001,jb,
63,./greyInner/EmilyDeschanel5_1_cut.png,0,183,183,62,,,1.ja,11.55,None,act,18.401,None,None,None,None,None,Bones,"['lshift', 'b', 'o', 'n', 'e', 's', 'return']","[1.3835211130681273, 1.5000038974067138, 1.6997771094320342, 1.8835828561750532, 2.0000324100037687, 2.366895601633587, 2.83310201889617]",2016_Nov_23_1406,60.0689277873,famFaceGrey,001,jb,
119,./greyInner/JudithRakers7_1_cut.png,0,184,184,118,,,2.nein,3.494,None,act,1.497,None,None,None,None,None,,['return'],[1.1169336526181723],2016_Nov_23_1406,60.0689277873,famFaceGrey,001,jb,
12,./greyInner/BarackObama11_2_cut.png,0,185,185,11,,,1.ja,2.084,None,None,None,None,None,polit,1.529,None,Obama,"['lshift', 'o', 'b', 'a', 'm', 'a', 'return']","[1.2002646953733347, 1.3334115549478156, 1.7003321820266137, 1.8337383216312446, 2.1336924963470665, 2.2337421780102886, 2.8670135494321585]",2016_Nov_23_1406,60.0689277873,famFaceGrey,001,jb,
149,./greyInner/MilaKunis5_2_cut.png,0,186,186,148,,,2.nein,3.344,None,act,1.562,None,None,None,None,None,,['return'],[0.8841293134537409],2016_Nov_23_1406,60.0689277873,famFaceGrey,001,jb,
176,./greyInner/Shakira1_1_cut.png,0,187,187,175,,,2.nein,1.58,None,act,1.463,None,None,None,None,None,,['return'],[0.6506053901503037],2016_Nov_23_1406,60.0689277873,famFaceGrey,001,jb,
39,./greyInner/CarenMiosga6_2_cut.png,0,188,188,38,,,1.ja,7.437,None,act,1.047,None,None,None,None,None,Kate Winslett,"['lshift', 'k', 'a', 't', 'e', 'space', 'lshift', 'w', 'i', 'n', 's', 'l', 'e', 't', 't', 'return']","[1.4835137695336016, 1.6000736814748961, 1.8835016260381963, 2.1500131896391395, 2.3170760925349896, 2.533525277136505, 2.8834786518564215, 3.0002084086299874, 3.200433309440996, 3.400172060195473, 3.6168489353294717, 4.000146870650497, 4.200146132192458, 4.5497770478905295, 5.750099178712844, 6.233281873905071]",2016_Nov_23_1406,60.0689277873,famFaceGrey,001,jb,
195,./greyInner/TomCruise7_1_cut.png,0,189,189,194,,,1.ja,4.212,None,act,2.615,None,None,None,None,None,Tom Cruise,"['lshift', 't', 'o', 'm', 'space', 'lshift', 'c', 'r', 'u', 'i', 's', 'e', 'return']","[1.3170580413934658, 1.4504633604919945, 1.7171599482899182, 1.9171235178073402, 2.1336256250724546, 2.500293536173558, 2.633574958799727, 2.9172314144016127, 3.166943108957639, 3.5335420975170564, 3.7002829516386555, 3.9170898770425993, 4.483416539522295]",2016_Nov_23_1406,60.0689277873,famFaceGrey,001,jb,
153,./greyInner/NeilPatrickHarris(Barney)13_4_cut.png,0,190,190,152,,,1.ja,5.587,None,act,0.833,None,None,None,None,None,Barney,"['lshift', 'b', 'a', 'r', 'n', 'e', 'y', 'return']","[1.3836942399248073, 1.5005179446816328, 1.800425350531441, 2.033733480642695, 2.5169276629239903, 2.76690397080165, 3.9500455175948446, 4.300305351469433]",2016_Nov_23_1406,60.0689277873,famFaceGrey,001,jb,
15,./greyInner/BarackObama5_2_cut.png,0,191,191,14,,,2.nein,7.609,None,act,2.797,None,None,None,None,None,,['return'],[0.9170152109581977],2016_Nov_23_1406,60.0689277873,famFaceGrey,001,jb,
146,./greyInner/MilaKunis1_3_cut.png,0,192,192,145,,,2.nein,1.562,None,act,0.944,None,None,None,None,None,,['return'],[0.717053282456618],2016_Nov_23_1406,60.0689277873,famFaceGrey,001,jb,
7,./greyInner/AngelaMerkel3_1_cut.png,0,193,193,6,,,1.ja,1.341,None,None,None,None,None,polit,1.757,None,Merkel,"['lshift', 'm', 'e', 'r', 'k', 'e', 'l', 'return']","[1.3670900616561994, 1.4501938241301104, 1.650193495926942, 1.7499022571719252, 1.9502280802735186, 2.083683860513702, 2.4669288731711276, 3.1500706250917574]",2016_Nov_23_1406,60.0689277873,famFaceGrey,001,jb,
73,./greyInner/GüntherJauch4_1_cut.png,0,194,194,72,,,1.ja,1.597,None,None,None,host,1.764,None,None,None,Jauch,"['lshift', 'j', 'f', 'a', 'u', 'backspace', 'backspace', 'backspace', 'a', 'u', 'c', 'h', 'return']","[0.9004368786445411, 1.0004890218297078, 1.133742957488721, 1.2336798195210577, 1.367174984072335, 2.100462806647556, 2.283787736629165, 2.4668935913941823, 2.8668010382680222, 3.050322069284448, 3.200390232854261, 3.366617860207043, 3.9669996418488154]",2016_Nov_23_1406,60.0689277873,famFaceGrey,001,jb,
79,./greyInner/GeorgeClooney3_1_cut.png,0,195,195,78,,,2.nein,2.761,None,act,1.215,None,None,None,None,None,,['return'],[0.5672509629694105],2016_Nov_23_1406,60.0689277873,famFaceGrey,001,jb,
158,./greyInner/NicoleKidman5_1_cut.png,0,196,196,157,,,1.ja,3.567,None,act,2.379,None,None,None,None,None,Nicole Kidman,"['lshift', 'n', 'i', 'c', 'o', 'l', 'e', 'space', 'lshift', 'k', 'i', 'd', 'm', 'a', 'n', 'return']","[1.1670493645360693, 1.2838308132159, 1.5171594559869845, 1.6671029025819735, 1.8671444202082057, 2.183824618390645, 2.38369834245168, 2.5502106855346938, 3.200150234726607, 3.350234808425739, 3.616995395728736, 3.7502197931571573, 4.0502913002928835, 4.216958308836183, 4.333374632155028, 4.966919232218061]",2016_Nov_23_1406,60.0689277873,famFaceGrey,001,jb,
131,./greyInner/LeonardoDiCaprio1_1_cut.png,0,197,197,130,,,1.ja,7.384,None,act,2.059,None,None,None,None,None,Leonardo DiCaprio,"['lshift', 'l', 'e', 'o', 'n', 'a', 'r', 'd', 'e', 'backspace', 'o', 'space', 'lshift', 'd', 'i', 'lshift', 'c', 'a', 'p', 'r', 'i', 'o', 'return']","[1.6833280068822205, 1.816857222449471, 2.0168675608292688, 2.183595286849595, 2.466753284796141, 2.666889160660503, 2.899999138469866, 3.200030030537164, 3.383150244164426, 3.9666788238391746, 4.683157751798717, 4.89990149820369, 5.333162531245762, 5.4163220881564484, 5.683118777742493, 6.449653520652646, 6.566486661235103, 6.9161733713663125, 7.615914378515299, 7.8661630945243814, 7.982868236103968, 9.299991507759842, 9.96599329071978]",2016_Nov_23_1406,60.0689277873,famFaceGrey,001,jb,
137,./greyInner/LisaEdelstein(DrLisaCuddy)10_1_cut.png,0,198,198,136,,,2.nein,6.49,None,dummy,1.047,None,None,None,None,None,,['return'],[0.5670171186357038],2016_Nov_23_1406,60.0689277873,famFaceGrey,001,jb,
90,./greyInner/Ice-T(OdafinFinTutuola)7_1_cut.png,0,199,199,89,,,1.ja,1.809,None,act,1.496,None,None,None,None,None,Law und Order,"['lshift', 'l', 'a', 'w', 'space', 'u', 'n', 'd', 'space', 'lshift', 'o', 'r', 'd', 'e', 'r', 'return']","[1.3003279153926997, 1.450359976679465, 1.8171468612126773, 2.2502917925958172, 2.5001807165390346, 2.7169646677612036, 2.9334027755285206, 3.0836292968378984, 3.2679983212437946, 4.18341559594046, 4.300211403478897, 4.550128634895373, 4.7999043289491965, 4.966940975638863, 5.066875376149255, 5.600130296421412]",2016_Nov_23_1406,60.0689277873,famFaceGrey,001,jb,
125,./greyInner/KaleyCuoco(Penny)7_1_cut.png,0,200,200,124,,,2.nein,2.56,None,dummy,1.162,None,None,None,None,None,,['return'],[0.6839360021403991],2016_Nov_23_1406,60.0689277873,famFaceGrey,001,jb,
16,./greyInner/BastianSchweinsteiger1_1_cut.png,0,201,201,15,,,2.nein,2.431,None,dummy,3.412,None,None,None,None,None,,['return'],[0.6339294175741088],2016_Nov_23_1406,60.0689277873,famFaceGrey,001,jb,
221,./greyInner/notfamousface6_8_cut.png,0,202,202,220,,,2.nein,4.356,None,act,0.69,None,None,None,None,None,,['return'],[0.5669449140696088],2016_Nov_23_1406,60.0689277873,famFaceGrey,001,jb,
30,./greyInner/Beyonce8_3_cut.png,0,203,203,29,,,2.nein,1.548,None,dummy,1.148,None,None,None,None,None,,['return'],[0.583742731851089],2016_Nov_23_1406,60.0689277873,famFaceGrey,001,jb,
100,./greyInner/JasonSegel(Marshall)9_1_cut.png,0,204,204,99,,,1.ja,1.839,None,act,1.081,None,None,None,None,None,Marshall,"['lshift', 'm', 'a', 'r', 's', 'h', 'a', 'l', 'l', 'return']","[1.6502718542942603, 1.733565974256635, 2.1165631939693412, 2.36669950059877, 3.1666526496846927, 3.366693757056055, 3.5835564768931363, 3.7834449700712867, 4.000038153550122, 4.600109783761582]",2016_Nov_23_1406,60.0689277873,famFaceGrey,001,jb,
172,./greyInner/SahraWagenknecht2_2_cut.png,0,205,205,171,,,2.nein,3.063,None,act,1.463,None,None,None,None,None,,['return'],[0.3836273686501954],2016_Nov_23_1406,60.0689277873,famFaceGrey,001,jb,
130,./greyInner/KatjaBurkard7_1_cut.png,0,206,206,129,,,2.nein,1.476,None,dummy,0.996,None,None,None,None,None,,['return'],[0.7337038193327317],2016_Nov_23_1406,60.0689277873,famFaceGrey,001,jb,
5,./greyInner/AlysonHannigan(Lily)8_3_cut.png,0,207,207,4,,,1.ja,1.826,None,act,0.926,None,None,None,None,None,Lily,"['lshift', 'l', 'i', 'l', 'y', 'return']","[1.2337786905445682, 1.3510709044712712, 1.7837333780771587, 2.083698629630817, 2.75040645836998, 3.5668480943095346]",2016_Nov_23_1406,60.0689277873,famFaceGrey,001,jb,
66,./greyInner/EmmaWatson(HermioneGranger)11_2_cut.png,0,208,208,65,,,2.nein,3.409,None,act,2.247,None,None,None,None,None,,['return'],[1.0005025601858506],2016_Nov_23_1406,60.0689277873,famFaceGrey,001,jb,
213,./greyInner/notfamousface12_2_cut.png,0,209,209,212,,,2.nein,2.088,None,act,0.709,None,None,None,None,None,,['return'],[0.6505389291305619],2016_Nov_23_1406,60.0689277873,famFaceGrey,001,jb,
23,./greyInner/BenedictCumberbatch3_9_cut.png,0,210,210,22,,,2.nein,2.944,None,act,3.047,None,None,None,None,None,,['return'],[0.6171398048609262],2016_Nov_23_1406,60.0689277873,famFaceGrey,001,jb,
57,./greyInner/ElvisPresley2_1_cut.png,0,211,211,56,,,2.nein,1.838,None,act,0.908,None,None,None,None,None,,['return'],[0.633478959549393],2016_Nov_23_1406,60.0689277873,famFaceGrey,001,jb,
117,./greyInner/JudithRakers2_1_cut.png,0,212,212,116,,,2.nein,2.802,None,dummy,0.739,None,None,None,None,None,,['return'],[0.6669248526850424],2016_Nov_23_1406,60.0689277873,famFaceGrey,001,jb,
111,./greyInner/JoshRadnor(Ted)1_2_cut.png,0,213,213,110,,,2.nein,7.661,None,act,0.735,None,None,None,None,None,,['return'],[0.5842018051953346],2016_Nov_23_1406,60.0689277873,famFaceGrey,001,jb,
215,./greyInner/notfamousface13_1_cut.png,0,214,214,214,,,2.nein,1.403,None,act,1.322,None,None,None,None,None,,['return'],[0.6000260921027802],2016_Nov_23_1406,60.0689277873,famFaceGrey,001,jb,
161,./greyInner/OmarEpps(DrEricForeman)1_5_cut.png,0,215,215,160,,,1.ja,1.908,None,dummy,1.073,None,None,None,None,None,Dr House,"['lshift', 'd', 'r', 'period', 'space', 'lshift', 'h', 'o', 'u', 's', 'e', 'return']","[1.483362386097724, 2.983353155399527, 3.4003894943998603, 4.499740104587545, 4.816400610619894, 4.999479388672626, 5.116487297123967, 5.316372918528941, 5.766435051376902, 5.966407236210216, 6.365972121653613, 6.882728298733127]",2016_Nov_23_1406,60.0689277873,famFaceGrey,001,jb,
181,./greyInner/SigmarGabriel1_2_cut.png,0,216,216,180,,,2.nein,1.907,None,dummy,1.821,None,None,None,None,None,,['return'],[0.5167754589820106],2016_Nov_23_1406,60.0689277873,famFaceGrey,001,jb,
81,./greyInner/HughLaurie(DrHouse)2_1_cut.png,0,217,217,80,,,1.ja,1.682,None,act,1.142,None,None,None,None,None,House,"['lshift', 'h', 'o', 'u', 's', 'e', 'return']","[1.2665792553816573, 1.3834456264739856, 1.5666466599832347, 1.7498263603265514, 1.8833822423548554, 2.033347022115777, 2.58325740230066]",2016_Nov_23_1406,60.0689277873,famFaceGrey,001,jb,
102,./greyInner/JimParsons(SheldonCooper)10_1_cut.png,0,218,218,101,,,2.nein,2.044,None,act,0.815,None,None,None,None,None,,['return'],[0.6838724128938338],2016_Nov_23_1406,60.0689277873,famFaceGrey,001,jb,
206,./greyInner/WillSmith1_1_cut.png,0,219,219,205,,,1.ja,1.712,None,act,1.032,None,None,None,None,None,Will Smith,"['lshift', 'w', 'i', 'l', 'l', 'space', 'lshift', 's', 'm', 'i', 't', 'h', 'return']","[2.3834460367288557, 2.5170187391377112, 2.8334741185608436, 3.0838307311678363, 3.266995252139168, 3.43340421141329, 3.799772227415815, 4.000033640764741, 4.350049784228759, 4.566350867418805, 4.916803930555034, 5.099665684658248, 5.700032697182905]",2016_Nov_23_1406,60.0689277873,famFaceGrey,001,jb,
85,./greyInner/HughLaurie(DrHouse)9_2_cut.png,0,220,220,84,,,1.ja,3.204,None,act,1.214,None,None,None,None,None,Dr House,"['lshift', 'd', 'r', 'period', 'space', 'lshift', 'h', 'o', 'u', 's', 'e', 'return']","[1.3505141908644873, 1.5005023550584156, 1.7671562765281124, 2.267115046077379, 2.517069610534236, 2.717230922098679, 2.867044318423723, 3.1004267043681466, 3.2835407641978236, 3.4338682077977865, 3.5838210902147694, 4.117000523892784]",2016_Nov_23_1406,60.0689277873,famFaceGrey,001,jb,
173,./greyInner/SahraWagenknecht5_1_cut.png,0,221,221,172,,,2.nein,3.275,None,dummy,0.714,None,None,None,None,None,,['return'],[0.5838186286964628],2016_Nov_23_1406,60.0689277873,famFaceGrey,001,jb,
220,./greyInner/notfamousface5_1_cut.png,0,222,222,219,,,2.nein,1.624,None,act,0.808,None,None,None,None,None,,['return'],[0.4002052907089819],2016_Nov_23_1406,60.0689277873,famFaceGrey,001,jb,
94,./greyInner/JanHofer7_1_cut.png,0,223,223,93,,,2.nein,1.325,None,act,0.929,None,None,None,None,None,,['return'],[0.9838909973623231],2016_Nov_23_1406,60.0689277873,famFaceGrey,001,jb,
