num,pic,learn1,learn2,learn3,recall2,recall3,recall1,bart_loop.thisRepN,bart_loop.thisTrialN,bart_loop.thisN,bart_loop.thisIndex,trials.thisRepN,trials.thisTrialN,trials.thisN,trials.thisIndex,trials_2.thisRepN,trials_2.thisTrialN,trials_2.thisN,trials_2.thisIndex,trials_3.thisRepN,trials_3.thisTrialN,trials_3.thisN,trials_3.thisIndex,key_resp_2.keys,key_resp_2.rt,key_resp_4.keys,key_resp_4.rt,rating_1.response,rating_1.rt,key_resp_3.keys,key_resp_3.rt,rating_4.response,rating_4.rt,rating_5.response,rating_5.rt,rating_6.response,rating_6.rt,key_resp_5.keys,key_resp_5.rt,key_resp_6.keys,key_resp_6.rt,rating_7.response,rating_7.rt,rating_8.response,rating_8.rt,key_resp_7.keys,key_resp_7.rt,date,frameRate,expName,session,participant,
,,,,,,,,,,,,,,,,,,,,,,,,space,24.8050225958,,,,,,,,,,,,,,,,,,,,,,,2017_Feb_16_1609,60.0218724002,Cambridge_final3,001,18,
,,,,,,,,,,,,,,,,,,,,,,,,,,space,6.58101387313,,,,,,,,,,,,,,,,,,,,,2017_Feb_16_1609,60.0218724002,Cambridge_final3,001,18,
1,./stim/pract.L.jpg,,,,,,,0,0,0,0,,,,,,,,,,,,,,,,,1,19.212,,,,,,,,,,,,,,,,,,,2017_Feb_16_1609,60.0218724002,Cambridge_final3,001,18,
2,./stim/pract.M.jpg,,,,,,,0,1,1,1,,,,,,,,,,,,,,,,,2,5.9,,,,,,,,,,,,,,,,,,,2017_Feb_16_1609,60.0218724002,Cambridge_final3,001,18,
3,./stim/pract.R.jpg,,,,,,,0,2,2,2,,,,,,,,,,,,,,,,,2,3.319,,,,,,,,,,,,,,,,,,,2017_Feb_16_1609,60.0218724002,Cambridge_final3,001,18,
,,,,,,,,,,,,,,,,,,,,,,,,,,,,,,space,29.238694075,,,,,,,,,,,,,,,,,2017_Feb_16_1609,60.0218724002,Cambridge_final3,001,18,
4,,./stim/LearnLA040.jpg,./stim/LearnFA040.jpg,./stim/LearnRA040.jpg,./stim/LearnFA040_T2.jpg,./stim/LearnRA040_T1.jpg,./stim/LearnLA040_T2.jpg,,,,,0,0,0,3,,,,,,,,,,,,,,,,,2,5.167,2,3.083,1,2.718,,,,,,,,,,,2017_Feb_16_1609,60.0218724002,Cambridge_final3,001,18,
5,,./stim/LearnLA049.jpg,./stim/LearnFA049.jpg,./stim/LearnRA049.jpg,./stim/LearnFA049_T1.jpg,./stim/LearnRA049_T3.jpg,./stim/LearnLA049_T3.jpg,,,,,0,1,1,4,,,,,,,,,,,,,,,,,3,3.418,1,2.585,3,3.435,,,,,,,,,,,2017_Feb_16_1609,60.0218724002,Cambridge_final3,001,18,
6,,./stim/LearnLA076.jpg,./stim/LearnFA076.jpg,./stim/LearnRA076.jpg,./stim/LearnFA076_T3.jpg,./stim/LearnRA076_T1.jpg,./stim/LearnLA076_T1.jpg,,,,,0,2,2,5,,,,,,,,,,,,,,,,,1,4.484,3,3.518,1,3.785,,,,,,,,,,,2017_Feb_16_1609,60.0218724002,Cambridge_final3,001,18,
1,,./stim/LearnLA004.jpg,./stim/LearnFA004.jpg,./stim/LearnRA004.jpg,./stim/LearnFA004_T3.jpg,./stim/LearnRA004_T3.jpg,./stim/LearnLA004_T1.jpg,,,,,0,3,3,0,,,,,,,,,,,,,,,,,1,3.235,3,2.968,3,4.218,,,,,,,,,,,2017_Feb_16_1609,60.0218724002,Cambridge_final3,001,18,
3,,./stim/LearnLA022.jpg,./stim/LearnFA022.jpg,./stim/LearnRA022.jpg,./stim/LearnFA022_T1.jpg,./stim/LearnRA022_T1.jpg,./stim/LearnLA022_T3.jpg,,,,,0,4,4,2,,,,,,,,,,,,,,,,,3,2.701,1,3.318,1,3.301,,,,,,,,,,,2017_Feb_16_1609,60.0218724002,Cambridge_final3,001,18,
2,,./stim/LearnLA011.jpg,./stim/LearnFA011.jpg,./stim/LearnRA011.jpg,./stim/LearnFA011_T3.jpg,./stim/LearnRA011_T3.jpg,./stim/LearnLA011_T2.jpg,,,,,0,5,5,1,,,,,,,,,,,,,,,,,2,3.285,1,7.5,3,2.852,,,,,,,,,,,2017_Feb_16_1609,60.0218724002,Cambridge_final3,001,18,
,,,,,,,,,,,,,,,,,,,,,,,,,,,,,,,,,,,,,,space,6.26457500372,,,,,,,,,2017_Feb_16_1609,60.0218724002,Cambridge_final3,001,18,
,,,,,,,,,,,,,,,,,,,,,,,,,,,,,,,,,,,,,,,,space,11.2125449735,,,,,,,2017_Feb_16_1609,60.0218724002,Cambridge_final3,001,18,
28,./stim/NovelHLFA040_T1.jpg,,,,,,,,,,,,,,,0,0,0,27,,,,,,,,,,,,,,,,,,,,,,,3,10.948,,,,,2017_Feb_16_1609,60.0218724002,Cambridge_final3,001,18,
19,./stim/NovelFBLA004_T3.jpg,,,,,,,,,,,,,,,0,1,1,18,,,,,,,,,,,,,,,,,,,,,,,3,4.784,,,,,2017_Feb_16_1609,60.0218724002,Cambridge_final3,001,18,
15,./stim/Novel60RA022_T2.jpg,,,,,,,,,,,,,,,0,2,2,14,,,,,,,,,,,,,,,,,,,,,,,2,2.851,,,,,2017_Feb_16_1609,60.0218724002,Cambridge_final3,001,18,
17,./stim/Novel60RA049_T2.jpg,,,,,,,,,,,,,,,0,3,3,16,,,,,,,,,,,,,,,,,,,,,,,2,7.916,,,,,2017_Feb_16_1609,60.0218724002,Cambridge_final3,001,18,
10,./stim/Novel60LA040_T2.jpg,,,,,,,,,,,,,,,0,4,4,9,,,,,,,,,,,,,,,,,,,,,,,3,9.232,,,,,2017_Feb_16_1609,60.0218724002,Cambridge_final3,001,18,
27,./stim/NovelHLFA022_T3.jpg,,,,,,,,,,,,,,,0,5,5,26,,,,,,,,,,,,,,,,,,,,,,,3,3.917,,,,,2017_Feb_16_1609,60.0218724002,Cambridge_final3,001,18,
26,./stim/NovelHLFA011_T3.jpg,,,,,,,,,,,,,,,0,6,6,25,,,,,,,,,,,,,,,,,,,,,,,3,4.268,,,,,2017_Feb_16_1609,60.0218724002,Cambridge_final3,001,18,
6,./stim/Novel30RHSA076_T2.jpg,,,,,,,,,,,,,,,0,7,7,5,,,,,,,,,,,,,,,,,,,,,,,2,6.4,,,,,2017_Feb_16_1609,60.0218724002,Cambridge_final3,001,18,
21,./stim/NovelFBLA022_T3.jpg,,,,,,,,,,,,,,,0,8,8,20,,,,,,,,,,,,,,,,,,,,,,,3,3.751,,,,,2017_Feb_16_1609,60.0218724002,Cambridge_final3,001,18,
11,./stim/Novel60LA049_T1.jpg,,,,,,,,,,,,,,,0,9,9,10,,,,,,,,,,,,,,,,,,,,,,,1,4.434,,,,,2017_Feb_16_1609,60.0218724002,Cambridge_final3,001,18,
20,./stim/NovelFBLA011_T1.jpg,,,,,,,,,,,,,,,0,10,10,19,,,,,,,,,,,,,,,,,,,,,,,1,7.167,,,,,2017_Feb_16_1609,60.0218724002,Cambridge_final3,001,18,
18,./stim/Novel60RA076_T2.jpg,,,,,,,,,,,,,,,0,11,11,17,,,,,,,,,,,,,,,,,,,,,,,2,7.183,,,,,2017_Feb_16_1609,60.0218724002,Cambridge_final3,001,18,
5,./stim/Novel30RHSA049_T3.jpg,,,,,,,,,,,,,,,0,12,12,4,,,,,,,,,,,,,,,,,,,,,,,1,4.617,,,,,2017_Feb_16_1609,60.0218724002,Cambridge_final3,001,18,
3,./stim/Novel30RHSA022_T1.jpg,,,,,,,,,,,,,,,0,13,13,2,,,,,,,,,,,,,,,,,,,,,,,1,4.018,,,,,2017_Feb_16_1609,60.0218724002,Cambridge_final3,001,18,
29,./stim/NovelHLFA049_T3.jpg,,,,,,,,,,,,,,,0,14,14,28,,,,,,,,,,,,,,,,,,,,,,,3,5.367,,,,,2017_Feb_16_1609,60.0218724002,Cambridge_final3,001,18,
30,./stim/NovelHLFA076_T3.jpg,,,,,,,,,,,,,,,0,15,15,29,,,,,,,,,,,,,,,,,,,,,,,3,3.518,,,,,2017_Feb_16_1609,60.0218724002,Cambridge_final3,001,18,
25,./stim/NovelHLFA004_T3.jpg,,,,,,,,,,,,,,,0,16,16,24,,,,,,,,,,,,,,,,,,,,,,,3,3.718,,,,,2017_Feb_16_1609,60.0218724002,Cambridge_final3,001,18,
13,./stim/Novel60RA004_T2.jpg,,,,,,,,,,,,,,,0,17,17,12,,,,,,,,,,,,,,,,,,,,,,,3,10.832,,,,,2017_Feb_16_1609,60.0218724002,Cambridge_final3,001,18,
8,./stim/Novel60LA011_T3.jpg,,,,,,,,,,,,,,,0,18,18,7,,,,,,,,,,,,,,,,,,,,,,,3,5.584,,,,,2017_Feb_16_1609,60.0218724002,Cambridge_final3,001,18,
12,./stim/Novel60LA076_T1.jpg,,,,,,,,,,,,,,,0,19,19,11,,,,,,,,,,,,,,,,,,,,,,,1,4.101,,,,,2017_Feb_16_1609,60.0218724002,Cambridge_final3,001,18,
22,./stim/NovelFBLA040_T2.jpg,,,,,,,,,,,,,,,0,20,20,21,,,,,,,,,,,,,,,,,,,,,,,3,8.183,,,,,2017_Feb_16_1609,60.0218724002,Cambridge_final3,001,18,
2,./stim/Novel30RHSA011_T2.jpg,,,,,,,,,,,,,,,0,21,21,1,,,,,,,,,,,,,,,,,,,,,,,2,6.2,,,,,2017_Feb_16_1609,60.0218724002,Cambridge_final3,001,18,
1,./stim/Novel30RHSA004_T3.jpg,,,,,,,,,,,,,,,0,22,22,0,,,,,,,,,,,,,,,,,,,,,,,3,3.801,,,,,2017_Feb_16_1609,60.0218724002,Cambridge_final3,001,18,
23,./stim/NovelFBLA049_T2.jpg,,,,,,,,,,,,,,,0,23,23,22,,,,,,,,,,,,,,,,,,,,,,,2,3.835,,,,,2017_Feb_16_1609,60.0218724002,Cambridge_final3,001,18,
7,./stim/Novel60LA004_T1.jpg,,,,,,,,,,,,,,,0,24,24,6,,,,,,,,,,,,,,,,,,,,,,,1,4.551,,,,,2017_Feb_16_1609,60.0218724002,Cambridge_final3,001,18,
4,./stim/Novel30RHSA040_T3.jpg,,,,,,,,,,,,,,,0,25,25,3,,,,,,,,,,,,,,,,,,,,,,,3,7.183,,,,,2017_Feb_16_1609,60.0218724002,Cambridge_final3,001,18,
24,./stim/NovelFBLA076_T2.jpg,,,,,,,,,,,,,,,0,26,26,23,,,,,,,,,,,,,,,,,,,,,,,2,6.267,,,,,2017_Feb_16_1609,60.0218724002,Cambridge_final3,001,18,
14,./stim/Novel60RA011_T1.jpg,,,,,,,,,,,,,,,0,27,27,13,,,,,,,,,,,,,,,,,,,,,,,1,2.668,,,,,2017_Feb_16_1609,60.0218724002,Cambridge_final3,001,18,
16,./stim/Novel60RA040_T3.jpg,,,,,,,,,,,,,,,0,28,28,15,,,,,,,,,,,,,,,,,,,,,,,2,2.452,,,,,2017_Feb_16_1609,60.0218724002,Cambridge_final3,001,18,
9,./stim/Novel60LA022_T2.jpg,,,,,,,,,,,,,,,0,29,29,8,,,,,,,,,,,,,,,,,,,,,,,2,8.849,,,,,2017_Feb_16_1609,60.0218724002,Cambridge_final3,001,18,
,,,,,,,,,,,,,,,,,,,,,,,,,,,,,,,,,,,,,,,,space,5.11600337718,,,,,,,2017_Feb_16_1609,60.0218724002,Cambridge_final3,001,18,
23,./stim/NoiseFLSA049_T1.jpg,,,,,,,,,,,,,,,,,,,0,0,0,22,,,,,,,,,,,,,,,,,,,,,1,12.448,,,2017_Feb_16_1609,60.0218724002,Cambridge_final3,001,18,
20,./stim/NoiseFLSA011_T1.jpg,,,,,,,,,,,,,,,,,,,0,1,1,19,,,,,,,,,,,,,,,,,,,,,1,2.668,,,2017_Feb_16_1609,60.0218724002,Cambridge_final3,001,18,
12,./stim/Noise60RA076_T2.jpg,,,,,,,,,,,,,,,,,,,0,2,2,11,,,,,,,,,,,,,,,,,,,,,2,2.718,,,2017_Feb_16_1609,60.0218724002,Cambridge_final3,001,18,
5,./stim/Noise30LA049_T2.jpg,,,,,,,,,,,,,,,,,,,0,3,3,4,,,,,,,,,,,,,,,,,,,,,2,7.367,,,2017_Feb_16_1609,60.0218724002,Cambridge_final3,001,18,
22,./stim/NoiseFLSA040_T1.jpg,,,,,,,,,,,,,,,,,,,0,4,4,21,,,,,,,,,,,,,,,,,,,,,1,3.018,,,2017_Feb_16_1609,60.0218724002,Cambridge_final3,001,18,
7,./stim/Noise60RA004_T1.jpg,,,,,,,,,,,,,,,,,,,0,5,5,6,,,,,,,,,,,,,,,,,,,,,1,7.5,,,2017_Feb_16_1609,60.0218724002,Cambridge_final3,001,18,
13,./stim/NoiseFHSA004_T1.jpg,,,,,,,,,,,,,,,,,,,0,6,6,12,,,,,,,,,,,,,,,,,,,,,1,4.035,,,2017_Feb_16_1609,60.0218724002,Cambridge_final3,001,18,
15,./stim/NoiseFHSA022_T1.jpg,,,,,,,,,,,,,,,,,,,0,7,7,14,,,,,,,,,,,,,,,,,,,,,3,3.452,,,2017_Feb_16_1609,60.0218724002,Cambridge_final3,001,18,
8,./stim/Noise60RA011_T3.jpg,,,,,,,,,,,,,,,,,,,0,8,8,7,,,,,,,,,,,,,,,,,,,,,2,4.034,,,2017_Feb_16_1609,60.0218724002,Cambridge_final3,001,18,
21,./stim/NoiseFLSA022_T2.jpg,,,,,,,,,,,,,,,,,,,0,9,9,20,,,,,,,,,,,,,,,,,,,,,2,2.002,,,2017_Feb_16_1609,60.0218724002,Cambridge_final3,001,18,
19,./stim/NoiseFLSA004_T2.jpg,,,,,,,,,,,,,,,,,,,0,10,10,18,,,,,,,,,,,,,,,,,,,,,2,1.952,,,2017_Feb_16_1609,60.0218724002,Cambridge_final3,001,18,
10,./stim/Noise60RA040_T3.jpg,,,,,,,,,,,,,,,,,,,0,11,11,9,,,,,,,,,,,,,,,,,,,,,2,3.868,,,2017_Feb_16_1609,60.0218724002,Cambridge_final3,001,18,
4,./stim/Noise30LA040_T2.jpg,,,,,,,,,,,,,,,,,,,0,12,12,3,,,,,,,,,,,,,,,,,,,,,3,3.619,,,2017_Feb_16_1609,60.0218724002,Cambridge_final3,001,18,
3,./stim/Noise30LA022_T1.jpg,,,,,,,,,,,,,,,,,,,0,13,13,2,,,,,,,,,,,,,,,,,,,,,3,6.017,,,2017_Feb_16_1609,60.0218724002,Cambridge_final3,001,18,
6,./stim/Noise30LA076_T1.jpg,,,,,,,,,,,,,,,,,,,0,14,14,5,,,,,,,,,,,,,,,,,,,,,2,3.651,,,2017_Feb_16_1609,60.0218724002,Cambridge_final3,001,18,
16,./stim/NoiseFHSA040_T1.jpg,,,,,,,,,,,,,,,,,,,0,15,15,15,,,,,,,,,,,,,,,,,,,,,1,5.517,,,2017_Feb_16_1609,60.0218724002,Cambridge_final3,001,18,
18,./stim/NoiseFHSA076_T3.jpg,,,,,,,,,,,,,,,,,,,0,16,16,17,,,,,,,,,,,,,,,,,,,,,3,3.802,,,2017_Feb_16_1609,60.0218724002,Cambridge_final3,001,18,
2,./stim/Noise30LA011_T1.jpg,,,,,,,,,,,,,,,,,,,0,17,17,1,,,,,,,,,,,,,,,,,,,,,2,2.635,,,2017_Feb_16_1609,60.0218724002,Cambridge_final3,001,18,
14,./stim/NoiseFHSA011_T2.jpg,,,,,,,,,,,,,,,,,,,0,18,18,13,,,,,,,,,,,,,,,,,,,,,1,6.917,,,2017_Feb_16_1609,60.0218724002,Cambridge_final3,001,18,
11,./stim/Noise60RA049_T3.jpg,,,,,,,,,,,,,,,,,,,0,19,19,10,,,,,,,,,,,,,,,,,,,,,1,5.234,,,2017_Feb_16_1609,60.0218724002,Cambridge_final3,001,18,
9,./stim/Noise60RA022_T3.jpg,,,,,,,,,,,,,,,,,,,0,20,20,8,,,,,,,,,,,,,,,,,,,,,2,3.718,,,2017_Feb_16_1609,60.0218724002,Cambridge_final3,001,18,
24,./stim/NoiseFLSA076_T3.jpg,,,,,,,,,,,,,,,,,,,0,21,21,23,,,,,,,,,,,,,,,,,,,,,3,5.4,,,2017_Feb_16_1609,60.0218724002,Cambridge_final3,001,18,
1,./stim/Noise30LA004_T2.jpg,,,,,,,,,,,,,,,,,,,0,22,22,0,,,,,,,,,,,,,,,,,,,,,1,2.035,,,2017_Feb_16_1609,60.0218724002,Cambridge_final3,001,18,
17,./stim/NoiseFHSA049_T1.jpg,,,,,,,,,,,,,,,,,,,0,23,23,16,,,,,,,,,,,,,,,,,,,,,1,3.985,,,2017_Feb_16_1609,60.0218724002,Cambridge_final3,001,18,
,,,,,,,,,,,,,,,,,,,,,,,,,,,,,,,,,,,,,,,,,,,,,,space,43.6996027449,2017_Feb_16_1609,60.0218724002,Cambridge_final3,001,18,
