num,pic,learn1,learn2,learn3,recall2,recall3,recall1,bart_loop.thisRepN,bart_loop.thisTrialN,bart_loop.thisN,bart_loop.thisIndex,trials.thisRepN,trials.thisTrialN,trials.thisN,trials.thisIndex,trials_2.thisRepN,trials_2.thisTrialN,trials_2.thisN,trials_2.thisIndex,trials_3.thisRepN,trials_3.thisTrialN,trials_3.thisN,trials_3.thisIndex,key_resp_2.keys,key_resp_2.rt,key_resp_4.keys,key_resp_4.rt,rating_1.response,rating_1.rt,key_resp_3.keys,key_resp_3.rt,rating_4.response,rating_4.rt,rating_5.response,rating_5.rt,rating_6.response,rating_6.rt,key_resp_5.keys,key_resp_5.rt,key_resp_6.keys,key_resp_6.rt,rating_7.response,rating_7.rt,rating_8.response,rating_8.rt,key_resp_7.keys,key_resp_7.rt,date,frameRate,expName,session,participant,
,,,,,,,,,,,,,,,,,,,,,,,,space,33.8446974157,,,,,,,,,,,,,,,,,,,,,,,2016_Nov_23_1332,59.9544226956,Cambridge_final3,001,jb,
,,,,,,,,,,,,,,,,,,,,,,,,,,space,32.9636737191,,,,,,,,,,,,,,,,,,,,,2016_Nov_23_1332,59.9544226956,Cambridge_final3,001,jb,
1,./stim/pract.L.jpg,,,,,,,0,0,0,0,,,,,,,,,,,,,,,,,1,25.699,,,,,,,,,,,,,,,,,,,2016_Nov_23_1332,59.9544226956,Cambridge_final3,001,jb,
3,./stim/pract.R.jpg,,,,,,,0,1,1,2,,,,,,,,,,,,,,,,,2,6.501,,,,,,,,,,,,,,,,,,,2016_Nov_23_1332,59.9544226956,Cambridge_final3,001,jb,
2,./stim/pract.M.jpg,,,,,,,0,2,2,1,,,,,,,,,,,,,,,,,2,4.368,,,,,,,,,,,,,,,,,,,2016_Nov_23_1332,59.9544226956,Cambridge_final3,001,jb,
,,,,,,,,,,,,,,,,,,,,,,,,,,,,,,space,21.2316154254,,,,,,,,,,,,,,,,,2016_Nov_23_1332,59.9544226956,Cambridge_final3,001,jb,
6,,./stim/LearnLA076.jpg,./stim/LearnFA076.jpg,./stim/LearnRA076.jpg,./stim/LearnFA076_T3.jpg,./stim/LearnRA076_T1.jpg,./stim/LearnLA076_T1.jpg,,,,,0,0,0,5,,,,,,,,,,,,,,,,,1,9.751,3,29.132,1,21.116,,,,,,,,,,,2016_Nov_23_1332,59.9544226956,Cambridge_final3,001,jb,
4,,./stim/LearnLA040.jpg,./stim/LearnFA040.jpg,./stim/LearnRA040.jpg,./stim/LearnFA040_T2.jpg,./stim/LearnRA040_T1.jpg,./stim/LearnLA040_T2.jpg,,,,,0,1,1,3,,,,,,,,,,,,,,,,,2,9.184,2,11.367,1,8.4,,,,,,,,,,,2016_Nov_23_1332,59.9544226956,Cambridge_final3,001,jb,
1,,./stim/LearnLA004.jpg,./stim/LearnFA004.jpg,./stim/LearnRA004.jpg,./stim/LearnFA004_T3.jpg,./stim/LearnRA004_T3.jpg,./stim/LearnLA004_T1.jpg,,,,,0,2,2,0,,,,,,,,,,,,,,,,,1,7.134,3,11.034,3,6.934,,,,,,,,,,,2016_Nov_23_1332,59.9544226956,Cambridge_final3,001,jb,
5,,./stim/LearnLA049.jpg,./stim/LearnFA049.jpg,./stim/LearnRA049.jpg,./stim/LearnFA049_T1.jpg,./stim/LearnRA049_T3.jpg,./stim/LearnLA049_T3.jpg,,,,,0,3,3,4,,,,,,,,,,,,,,,,,3,8.651,1,15.633,3,10.184,,,,,,,,,,,2016_Nov_23_1332,59.9544226956,Cambridge_final3,001,jb,
2,,./stim/LearnLA011.jpg,./stim/LearnFA011.jpg,./stim/LearnRA011.jpg,./stim/LearnFA011_T3.jpg,./stim/LearnRA011_T3.jpg,./stim/LearnLA011_T2.jpg,,,,,0,4,4,1,,,,,,,,,,,,,,,,,2,8.817,3,9.784,3,12.65,,,,,,,,,,,2016_Nov_23_1332,59.9544226956,Cambridge_final3,001,jb,
3,,./stim/LearnLA022.jpg,./stim/LearnFA022.jpg,./stim/LearnRA022.jpg,./stim/LearnFA022_T1.jpg,./stim/LearnRA022_T1.jpg,./stim/LearnLA022_T3.jpg,,,,,0,5,5,2,,,,,,,,,,,,,,,,,3,8.234,1,7.534,1,8.501,,,,,,,,,,,2016_Nov_23_1332,59.9544226956,Cambridge_final3,001,jb,
,,,,,,,,,,,,,,,,,,,,,,,,,,,,,,,,,,,,,,space,4.99955036248,,,,,,,,,2016_Nov_23_1332,59.9544226956,Cambridge_final3,001,jb,
,,,,,,,,,,,,,,,,,,,,,,,,,,,,,,,,,,,,,,,,space,13.0498769445,,,,,,,2016_Nov_23_1332,59.9544226956,Cambridge_final3,001,jb,
26,./stim/NovelHLFA011_T3.jpg,,,,,,,,,,,,,,,0,0,0,25,,,,,,,,,,,,,,,,,,,,,,,3,19.633,,,,,2016_Nov_23_1332,59.9544226956,Cambridge_final3,001,jb,
4,./stim/Novel30RHSA040_T3.jpg,,,,,,,,,,,,,,,0,1,1,3,,,,,,,,,,,,,,,,,,,,,,,2,14.367,,,,,2016_Nov_23_1332,59.9544226956,Cambridge_final3,001,jb,
22,./stim/NovelFBLA040_T2.jpg,,,,,,,,,,,,,,,0,2,2,21,,,,,,,,,,,,,,,,,,,,,,,1,29.748,,,,,2016_Nov_23_1332,59.9544226956,Cambridge_final3,001,jb,
11,./stim/Novel60LA049_T1.jpg,,,,,,,,,,,,,,,0,3,3,10,,,,,,,,,,,,,,,,,,,,,,,2,9.867,,,,,2016_Nov_23_1332,59.9544226956,Cambridge_final3,001,jb,
2,./stim/Novel30RHSA011_T2.jpg,,,,,,,,,,,,,,,0,4,4,1,,,,,,,,,,,,,,,,,,,,,,,3,18.866,,,,,2016_Nov_23_1332,59.9544226956,Cambridge_final3,001,jb,
20,./stim/NovelFBLA011_T1.jpg,,,,,,,,,,,,,,,0,5,5,19,,,,,,,,,,,,,,,,,,,,,,,2,17.533,,,,,2016_Nov_23_1332,59.9544226956,Cambridge_final3,001,jb,
27,./stim/NovelHLFA022_T3.jpg,,,,,,,,,,,,,,,0,6,6,26,,,,,,,,,,,,,,,,,,,,,,,3,11.051,,,,,2016_Nov_23_1332,59.9544226956,Cambridge_final3,001,jb,
1,./stim/Novel30RHSA004_T3.jpg,,,,,,,,,,,,,,,0,7,7,0,,,,,,,,,,,,,,,,,,,,,,,1,14.833,,,,,2016_Nov_23_1332,59.9544226956,Cambridge_final3,001,jb,
18,./stim/Novel60RA076_T2.jpg,,,,,,,,,,,,,,,0,8,8,17,,,,,,,,,,,,,,,,,,,,,,,3,13.15,,,,,2016_Nov_23_1332,59.9544226956,Cambridge_final3,001,jb,
16,./stim/Novel60RA040_T3.jpg,,,,,,,,,,,,,,,0,9,9,15,,,,,,,,,,,,,,,,,,,,,,,3,17.683,,,,,2016_Nov_23_1332,59.9544226956,Cambridge_final3,001,jb,
12,./stim/Novel60LA076_T1.jpg,,,,,,,,,,,,,,,0,10,10,11,,,,,,,,,,,,,,,,,,,,,,,2,20.45,,,,,2016_Nov_23_1332,59.9544226956,Cambridge_final3,001,jb,
14,./stim/Novel60RA011_T1.jpg,,,,,,,,,,,,,,,0,11,11,13,,,,,,,,,,,,,,,,,,,,,,,1,13.717,,,,,2016_Nov_23_1332,59.9544226956,Cambridge_final3,001,jb,
10,./stim/Novel60LA040_T2.jpg,,,,,,,,,,,,,,,0,12,12,9,,,,,,,,,,,,,,,,,,,,,,,3,10.5,,,,,2016_Nov_23_1332,59.9544226956,Cambridge_final3,001,jb,
21,./stim/NovelFBLA022_T3.jpg,,,,,,,,,,,,,,,0,13,13,20,,,,,,,,,,,,,,,,,,,,,,,3,15.917,,,,,2016_Nov_23_1332,59.9544226956,Cambridge_final3,001,jb,
7,./stim/Novel60LA004_T1.jpg,,,,,,,,,,,,,,,0,14,14,6,,,,,,,,,,,,,,,,,,,,,,,1,11.734,,,,,2016_Nov_23_1332,59.9544226956,Cambridge_final3,001,jb,
17,./stim/Novel60RA049_T2.jpg,,,,,,,,,,,,,,,0,15,15,16,,,,,,,,,,,,,,,,,,,,,,,2,15.85,,,,,2016_Nov_23_1332,59.9544226956,Cambridge_final3,001,jb,
8,./stim/Novel60LA011_T3.jpg,,,,,,,,,,,,,,,0,16,16,7,,,,,,,,,,,,,,,,,,,,,,,3,11.401,,,,,2016_Nov_23_1332,59.9544226956,Cambridge_final3,001,jb,
23,./stim/NovelFBLA049_T2.jpg,,,,,,,,,,,,,,,0,17,17,22,,,,,,,,,,,,,,,,,,,,,,,2,14.051,,,,,2016_Nov_23_1332,59.9544226956,Cambridge_final3,001,jb,
30,./stim/NovelHLFA076_T3.jpg,,,,,,,,,,,,,,,0,18,18,29,,,,,,,,,,,,,,,,,,,,,,,1,15.833,,,,,2016_Nov_23_1332,59.9544226956,Cambridge_final3,001,jb,
15,./stim/Novel60RA022_T2.jpg,,,,,,,,,,,,,,,0,19,19,14,,,,,,,,,,,,,,,,,,,,,,,3,14.1,,,,,2016_Nov_23_1332,59.9544226956,Cambridge_final3,001,jb,
24,./stim/NovelFBLA076_T2.jpg,,,,,,,,,,,,,,,0,20,20,23,,,,,,,,,,,,,,,,,,,,,,,2,9.75,,,,,2016_Nov_23_1332,59.9544226956,Cambridge_final3,001,jb,
19,./stim/NovelFBLA004_T3.jpg,,,,,,,,,,,,,,,0,21,21,18,,,,,,,,,,,,,,,,,,,,,,,3,9.25,,,,,2016_Nov_23_1332,59.9544226956,Cambridge_final3,001,jb,
9,./stim/Novel60LA022_T2.jpg,,,,,,,,,,,,,,,0,22,22,8,,,,,,,,,,,,,,,,,,,,,,,3,9.084,,,,,2016_Nov_23_1332,59.9544226956,Cambridge_final3,001,jb,
29,./stim/NovelHLFA049_T3.jpg,,,,,,,,,,,,,,,0,23,23,28,,,,,,,,,,,,,,,,,,,,,,,1,20.95,,,,,2016_Nov_23_1332,59.9544226956,Cambridge_final3,001,jb,
6,./stim/Novel30RHSA076_T2.jpg,,,,,,,,,,,,,,,0,24,24,5,,,,,,,,,,,,,,,,,,,,,,,3,10.467,,,,,2016_Nov_23_1332,59.9544226956,Cambridge_final3,001,jb,
3,./stim/Novel30RHSA022_T1.jpg,,,,,,,,,,,,,,,0,25,25,2,,,,,,,,,,,,,,,,,,,,,,,3,6.318,,,,,2016_Nov_23_1332,59.9544226956,Cambridge_final3,001,jb,
5,./stim/Novel30RHSA049_T3.jpg,,,,,,,,,,,,,,,0,26,26,4,,,,,,,,,,,,,,,,,,,,,,,1,8.034,,,,,2016_Nov_23_1332,59.9544226956,Cambridge_final3,001,jb,
28,./stim/NovelHLFA040_T1.jpg,,,,,,,,,,,,,,,0,27,27,27,,,,,,,,,,,,,,,,,,,,,,,3,13.55,,,,,2016_Nov_23_1332,59.9544226956,Cambridge_final3,001,jb,
13,./stim/Novel60RA004_T2.jpg,,,,,,,,,,,,,,,0,28,28,12,,,,,,,,,,,,,,,,,,,,,,,1,15.483,,,,,2016_Nov_23_1332,59.9544226956,Cambridge_final3,001,jb,
25,./stim/NovelHLFA004_T3.jpg,,,,,,,,,,,,,,,0,29,29,24,,,,,,,,,,,,,,,,,,,,,,,2,9.651,,,,,2016_Nov_23_1332,59.9544226956,Cambridge_final3,001,jb,
,,,,,,,,,,,,,,,,,,,,,,,,,,,,,,,,,,,,,,,,space,15.2655852118,,,,,,,2016_Nov_23_1332,59.9544226956,Cambridge_final3,001,jb,
19,./stim/NoiseFLSA004_T2.jpg,,,,,,,,,,,,,,,,,,,0,0,0,18,,,,,,,,,,,,,,,,,,,,,2,11.884,,,2016_Nov_23_1332,59.9544226956,Cambridge_final3,001,jb,
2,./stim/Noise30LA011_T1.jpg,,,,,,,,,,,,,,,,,,,0,1,1,1,,,,,,,,,,,,,,,,,,,,,2,26.599,,,2016_Nov_23_1332,59.9544226956,Cambridge_final3,001,jb,
8,./stim/Noise60RA011_T3.jpg,,,,,,,,,,,,,,,,,,,0,2,2,7,,,,,,,,,,,,,,,,,,,,,1,6.567,,,2016_Nov_23_1332,59.9544226956,Cambridge_final3,001,jb,
18,./stim/NoiseFHSA076_T3.jpg,,,,,,,,,,,,,,,,,,,0,3,3,17,,,,,,,,,,,,,,,,,,,,,3,5.151,,,2016_Nov_23_1332,59.9544226956,Cambridge_final3,001,jb,
11,./stim/Noise60RA049_T3.jpg,,,,,,,,,,,,,,,,,,,0,4,4,10,,,,,,,,,,,,,,,,,,,,,3,9.251,,,2016_Nov_23_1332,59.9544226956,Cambridge_final3,001,jb,
24,./stim/NoiseFLSA076_T3.jpg,,,,,,,,,,,,,,,,,,,0,5,5,23,,,,,,,,,,,,,,,,,,,,,2,15.85,,,2016_Nov_23_1332,59.9544226956,Cambridge_final3,001,jb,
3,./stim/Noise30LA022_T1.jpg,,,,,,,,,,,,,,,,,,,0,6,6,2,,,,,,,,,,,,,,,,,,,,,2,5.084,,,2016_Nov_23_1332,59.9544226956,Cambridge_final3,001,jb,
1,./stim/Noise30LA004_T2.jpg,,,,,,,,,,,,,,,,,,,0,7,7,0,,,,,,,,,,,,,,,,,,,,,2,8.651,,,2016_Nov_23_1332,59.9544226956,Cambridge_final3,001,jb,
10,./stim/Noise60RA040_T3.jpg,,,,,,,,,,,,,,,,,,,0,8,8,9,,,,,,,,,,,,,,,,,,,,,2,11.851,,,2016_Nov_23_1332,59.9544226956,Cambridge_final3,001,jb,
13,./stim/NoiseFHSA004_T1.jpg,,,,,,,,,,,,,,,,,,,0,9,9,12,,,,,,,,,,,,,,,,,,,,,1,13.917,,,2016_Nov_23_1332,59.9544226956,Cambridge_final3,001,jb,
4,./stim/Noise30LA040_T2.jpg,,,,,,,,,,,,,,,,,,,0,10,10,3,,,,,,,,,,,,,,,,,,,,,2,22.933,,,2016_Nov_23_1332,59.9544226956,Cambridge_final3,001,jb,
22,./stim/NoiseFLSA040_T1.jpg,,,,,,,,,,,,,,,,,,,0,11,11,21,,,,,,,,,,,,,,,,,,,,,3,8.384,,,2016_Nov_23_1332,59.9544226956,Cambridge_final3,001,jb,
15,./stim/NoiseFHSA022_T1.jpg,,,,,,,,,,,,,,,,,,,0,12,12,14,,,,,,,,,,,,,,,,,,,,,3,8.102,,,2016_Nov_23_1332,59.9544226956,Cambridge_final3,001,jb,
12,./stim/Noise60RA076_T2.jpg,,,,,,,,,,,,,,,,,,,0,13,13,11,,,,,,,,,,,,,,,,,,,,,3,6.918,,,2016_Nov_23_1332,59.9544226956,Cambridge_final3,001,jb,
6,./stim/Noise30LA076_T1.jpg,,,,,,,,,,,,,,,,,,,0,14,14,5,,,,,,,,,,,,,,,,,,,,,3,14.383,,,2016_Nov_23_1332,59.9544226956,Cambridge_final3,001,jb,
21,./stim/NoiseFLSA022_T2.jpg,,,,,,,,,,,,,,,,,,,0,15,15,20,,,,,,,,,,,,,,,,,,,,,3,7.317,,,2016_Nov_23_1332,59.9544226956,Cambridge_final3,001,jb,
23,./stim/NoiseFLSA049_T1.jpg,,,,,,,,,,,,,,,,,,,0,16,16,22,,,,,,,,,,,,,,,,,,,,,2,7.551,,,2016_Nov_23_1332,59.9544226956,Cambridge_final3,001,jb,
14,./stim/NoiseFHSA011_T2.jpg,,,,,,,,,,,,,,,,,,,0,17,17,13,,,,,,,,,,,,,,,,,,,,,1,12.651,,,2016_Nov_23_1332,59.9544226956,Cambridge_final3,001,jb,
16,./stim/NoiseFHSA040_T1.jpg,,,,,,,,,,,,,,,,,,,0,18,18,15,,,,,,,,,,,,,,,,,,,,,1,5.701,,,2016_Nov_23_1332,59.9544226956,Cambridge_final3,001,jb,
9,./stim/Noise60RA022_T3.jpg,,,,,,,,,,,,,,,,,,,0,19,19,8,,,,,,,,,,,,,,,,,,,,,2,12.834,,,2016_Nov_23_1332,59.9544226956,Cambridge_final3,001,jb,
20,./stim/NoiseFLSA011_T1.jpg,,,,,,,,,,,,,,,,,,,0,20,20,19,,,,,,,,,,,,,,,,,,,,,3,8.417,,,2016_Nov_23_1332,59.9544226956,Cambridge_final3,001,jb,
17,./stim/NoiseFHSA049_T1.jpg,,,,,,,,,,,,,,,,,,,0,21,21,16,,,,,,,,,,,,,,,,,,,,,2,27.082,,,2016_Nov_23_1332,59.9544226956,Cambridge_final3,001,jb,
5,./stim/Noise30LA049_T2.jpg,,,,,,,,,,,,,,,,,,,0,22,22,4,,,,,,,,,,,,,,,,,,,,,3,8.667,,,2016_Nov_23_1332,59.9544226956,Cambridge_final3,001,jb,
7,./stim/Noise60RA004_T1.jpg,,,,,,,,,,,,,,,,,,,0,23,23,6,,,,,,,,,,,,,,,,,,,,,1,13.034,,,2016_Nov_23_1332,59.9544226956,Cambridge_final3,001,jb,
,,,,,,,,,,,,,,,,,,,,,,,,,,,,,,,,,,,,,,,,,,,,,,space,48.329006256,2016_Nov_23_1332,59.9544226956,Cambridge_final3,001,jb,
