img,num,basicLoop.thisRepN,basicLoop.thisTrialN,basicLoop.thisN,basicLoop.thisIndex,trials.thisRepN,trials.thisTrialN,trials.thisN,trials.thisIndex,trials2.thisRepN,trials2.thisTrialN,trials2.thisN,trials2.thisIndex,key_resp_2.keys,key_resp_2.rt,basicRating1.response,basicRating1.rt,basicRating2.response,basicRating2.rt,basicRating3.response,basicRating3.rt,basicRating4.response,basicRating4.rt,key_resp_3.keys,key_resp_3.rt,key_resp_4.keys,key_resp_4.rt,mouseResp.x,mouseResp.y,mouseResp.leftButton,mouseResp.midButton,mouseResp.rightButton,mouseResp.time,key_resp_5.keys,key_resp_5.rt,key_resp_7.keys,key_resp_7.rt,date,group,expName,participant,frameRate,
,,,,,,,,,,,,,,return,38.6158030033,,,,,,,,,,,,,,,,,,,,,,,2015_Sep_20_1307,A,facesParametric,10,59.5918947258,
./basicStim/07F_SP_O.jpg,,0,0,0,33,,,,,,,,,,,None,None,FEA,7.025,None,None,None,None,,,,,,,,,,,,,,,2015_Sep_20_1307,A,facesParametric,10,59.5918947258,
./basicStim/28M_NE_C.jpg,,0,1,1,69,,,,,,,,,,,SAD,4.415,None,None,None,None,None,None,,,,,,,,,,,,,,,2015_Sep_20_1307,A,facesParametric,10,59.5918947258,
./basicStim/06F_NE_C.jpg,,0,2,2,27,,,,,,,,,,,None,None,None,None,None,None,NTR,4.801,,,,,,,,,,,,,,,2015_Sep_20_1307,A,facesParametric,10,59.5918947258,
./basicStim/28M_SA_C.jpg,,0,3,3,67,,,,,,,,,,,None,None,ANG,3.472,None,None,None,None,,,,,,,,,,,,,,,2015_Sep_20_1307,A,facesParametric,10,59.5918947258,
./basicStim/06F_AN_O.jpg,,0,4,4,21,,,,,,,,,,,None,None,ANG,3.925,None,None,None,None,,,,,,,,,,,,,,,2015_Sep_20_1307,A,facesParametric,10,59.5918947258,
./basicStim/06F_FE_O.jpg,,0,5,5,23,,,,,,,,,,,None,None,None,None,SUP,2.031,None,None,,,,,,,,,,,,,,,2015_Sep_20_1307,A,facesParametric,10,59.5918947258,
./basicStim/02F_AN_O.jpg,,0,6,6,7,,,,,,,,,,,None,None,ANG,1.764,None,None,None,None,,,,,,,,,,,,,,,2015_Sep_20_1307,A,facesParametric,10,59.5918947258,
./basicStim/34M_SA_C.jpg,,0,7,7,74,,,,,,,,,,,SAD,1.638,None,None,None,None,None,None,,,,,,,,,,,,,,,2015_Sep_20_1307,A,facesParametric,10,59.5918947258,
./basicStim/09F_FE_O.jpg,,0,8,8,37,,,,,,,,,,,None,None,None,None,DIS,10.908,None,None,,,,,,,,,,,,,,,2015_Sep_20_1307,A,facesParametric,10,59.5918947258,
./basicStim/24M_SP_O.jpg,,0,9,9,61,,,,,,,,,,,None,None,None,None,DIS,13.064,None,None,,,,,,,,,,,,,,,2015_Sep_20_1307,A,facesParametric,10,59.5918947258,
./basicStim/36M_SP_O.jpg,,0,10,10,82,,,,,,,,,,,None,None,None,None,SUP,6.123,None,None,,,,,,,,,,,,,,,2015_Sep_20_1307,A,facesParametric,10,59.5918947258,
./basicStim/34M_SP_O.jpg,,0,11,11,75,,,,,,,,,,,None,None,None,None,SUP,9.16,None,None,,,,,,,,,,,,,,,2015_Sep_20_1307,A,facesParametric,10,59.5918947258,
./basicStim/07F_SA_C.jpg,,0,12,12,32,,,,,,,,,,,SAD,2.047,None,None,None,None,None,None,,,,,,,,,,,,,,,2015_Sep_20_1307,A,facesParametric,10,59.5918947258,
./basicStim/09F_DI_O.jpg,,0,13,13,36,,,,,,,,,,,None,None,None,None,DIS,2.401,None,None,,,,,,,,,,,,,,,2015_Sep_20_1307,A,facesParametric,10,59.5918947258,
./basicStim/21M_HA_O.jpg,,0,14,14,45,,,,,,,,,,,HAP,2.1,None,None,None,None,None,None,,,,,,,,,,,,,,,2015_Sep_20_1307,A,facesParametric,10,59.5918947258,
./basicStim/24M_AN_O.jpg,,0,15,15,56,,,,,,,,,,,None,None,ANG,4.612,None,None,None,None,,,,,,,,,,,,,,,2015_Sep_20_1307,A,facesParametric,10,59.5918947258,
./basicStim/36M_DI_O.jpg,,0,16,16,78,,,,,,,,,,,None,None,None,None,DIS,3.109,None,None,,,,,,,,,,,,,,,2015_Sep_20_1307,A,facesParametric,10,59.5918947258,
./basicStim/23M_NE_C.jpg,,0,17,17,55,,,,,,,,,,,None,None,None,None,None,None,NTR,1.271,,,,,,,,,,,,,,,2015_Sep_20_1307,A,facesParametric,10,59.5918947258,
./basicStim/01F_DI_O.jpg,,0,18,18,1,,,,,,,,,,,None,None,None,None,DIS,2.815,None,None,,,,,,,,,,,,,,,2015_Sep_20_1307,A,facesParametric,10,59.5918947258,
./basicStim/01F_FE_O.jpg,,0,19,19,2,,,,,,,,,,,None,None,None,None,SUP,5.227,None,None,,,,,,,,,,,,,,,2015_Sep_20_1307,A,facesParametric,10,59.5918947258,
./basicStim/34M_HA_O.jpg,,0,20,20,73,,,,,,,,,,,HAP,2.266,None,None,None,None,None,None,,,,,,,,,,,,,,,2015_Sep_20_1307,A,facesParametric,10,59.5918947258,
./basicStim/03F_NE_C.jpg,,0,21,21,20,,,,,,,,,,,None,None,None,None,None,None,NTR,1.444,,,,,,,,,,,,,,,2015_Sep_20_1307,A,facesParametric,10,59.5918947258,
./basicStim/34M_NE_C.jpg,,0,22,22,76,,,,,,,,,,,None,None,None,None,None,None,NTR,3.998,,,,,,,,,,,,,,,2015_Sep_20_1307,A,facesParametric,10,59.5918947258,
./basicStim/28M_HA_O.jpg,,0,23,23,66,,,,,,,,,,,HAP,1.048,None,None,None,None,None,None,,,,,,,,,,,,,,,2015_Sep_20_1307,A,facesParametric,10,59.5918947258,
./basicStim/03F_FE_O.jpg,,0,24,24,16,,,,,,,,,,,None,None,FEA,4.41,None,None,None,None,,,,,,,,,,,,,,,2015_Sep_20_1307,A,facesParametric,10,59.5918947258,
./basicStim/23M_SA_C.jpg,,0,25,25,53,,,,,,,,,,,SAD,2.555,None,None,None,None,None,None,,,,,,,,,,,,,,,2015_Sep_20_1307,A,facesParametric,10,59.5918947258,
./basicStim/21M_FE_O.jpg,,0,26,26,44,,,,,,,,,,,None,None,FEA,4.224,None,None,None,None,,,,,,,,,,,,,,,2015_Sep_20_1307,A,facesParametric,10,59.5918947258,
./basicStim/09F_SP_O.jpg,,0,27,27,40,,,,,,,,,,,None,None,FEA,6.171,None,None,None,None,,,,,,,,,,,,,,,2015_Sep_20_1307,A,facesParametric,10,59.5918947258,
./basicStim/23M_FE_O.jpg,,0,28,28,51,,,,,,,,,,,None,None,FEA,19.359,None,None,None,None,,,,,,,,,,,,,,,2015_Sep_20_1307,A,facesParametric,10,59.5918947258,
./basicStim/28M_DI_O.jpg,,0,29,29,64,,,,,,,,,,,None,None,None,None,DIS,4.926,None,None,,,,,,,,,,,,,,,2015_Sep_20_1307,A,facesParametric,10,59.5918947258,
./basicStim/06F_SA_C.jpg,,0,30,30,25,,,,,,,,,,,SAD,5.678,None,None,None,None,None,None,,,,,,,,,,,,,,,2015_Sep_20_1307,A,facesParametric,10,59.5918947258,
./basicStim/07F_AN_O.jpg,,0,31,31,28,,,,,,,,,,,None,None,ANG,3.838,None,None,None,None,,,,,,,,,,,,,,,2015_Sep_20_1307,A,facesParametric,10,59.5918947258,
./basicStim/36M_FE_O.jpg,,0,32,32,79,,,,,,,,,,,None,None,None,None,SUP,3.026,None,None,,,,,,,,,,,,,,,2015_Sep_20_1307,A,facesParametric,10,59.5918947258,
./basicStim/03F_DI_O.jpg,,0,33,33,15,,,,,,,,,,,None,None,FEA,19.24,None,None,None,None,,,,,,,,,,,,,,,2015_Sep_20_1307,A,facesParametric,10,59.5918947258,
./basicStim/21M_SP_O.jpg,,0,34,34,47,,,,,,,,,,,None,None,FEA,9.571,None,None,None,None,,,,,,,,,,,,,,,2015_Sep_20_1307,A,facesParametric,10,59.5918947258,
./basicStim/06F_SP_O.jpg,,0,35,35,26,,,,,,,,,,,None,None,None,None,SUP,6.386,None,None,,,,,,,,,,,,,,,2015_Sep_20_1307,A,facesParametric,10,59.5918947258,
./basicStim/01F_SA_C.jpg,,0,36,36,4,,,,,,,,,,,SAD,1.514,None,None,None,None,None,None,,,,,,,,,,,,,,,2015_Sep_20_1307,A,facesParametric,10,59.5918947258,
./basicStim/02F_SP_O.jpg,,0,37,37,12,,,,,,,,,,,None,None,None,None,SUP,4.043,None,None,,,,,,,,,,,,,,,2015_Sep_20_1307,A,facesParametric,10,59.5918947258,
./basicStim/34M_DI_O.jpg,,0,38,38,71,,,,,,,,,,,None,None,None,None,DIS,1.512,None,None,,,,,,,,,,,,,,,2015_Sep_20_1307,A,facesParametric,10,59.5918947258,
./basicStim/02F_NE_C.jpg,,0,39,39,13,,,,,,,,,,,None,None,None,None,None,None,NTR,0.841,,,,,,,,,,,,,,,2015_Sep_20_1307,A,facesParametric,10,59.5918947258,
./basicStim/28M_SP_O.jpg,,0,40,40,68,,,,,,,,,,,None,None,None,None,SUP,2.086,None,None,,,,,,,,,,,,,,,2015_Sep_20_1307,A,facesParametric,10,59.5918947258,
./basicStim/01F_HA_O.jpg,,0,41,41,3,,,,,,,,,,,HAP,1.732,None,None,None,None,None,None,,,,,,,,,,,,,,,2015_Sep_20_1307,A,facesParametric,10,59.5918947258,
./basicStim/21M_NE_C.jpg,,0,42,42,48,,,,,,,,,,,None,None,None,None,None,None,NTR,1.56,,,,,,,,,,,,,,,2015_Sep_20_1307,A,facesParametric,10,59.5918947258,
./basicStim/23M_DI_O.jpg,,0,43,43,50,,,,,,,,,,,SAD,1.943,None,None,None,None,None,None,,,,,,,,,,,,,,,2015_Sep_20_1307,A,facesParametric,10,59.5918947258,
./basicStim/09F_SA_C.jpg,,0,44,44,39,,,,,,,,,,,SAD,0.977,None,None,None,None,None,None,,,,,,,,,,,,,,,2015_Sep_20_1307,A,facesParametric,10,59.5918947258,
./basicStim/28M_AN_O.jpg,,0,45,45,63,,,,,,,,,,,None,None,ANG,2.013,None,None,None,None,,,,,,,,,,,,,,,2015_Sep_20_1307,A,facesParametric,10,59.5918947258,
./basicStim/01F_NE_C.jpg,,0,46,46,6,,,,,,,,,,,None,None,None,None,None,None,NTR,1.844,,,,,,,,,,,,,,,2015_Sep_20_1307,A,facesParametric,10,59.5918947258,
./basicStim/01F_AN_O.jpg,,0,47,47,0,,,,,,,,,,,None,None,ANG,3.022,None,None,None,None,,,,,,,,,,,,,,,2015_Sep_20_1307,A,facesParametric,10,59.5918947258,
./basicStim/09F_HA_O.jpg,,0,48,48,38,,,,,,,,,,,HAP,1.025,None,None,None,None,None,None,,,,,,,,,,,,,,,2015_Sep_20_1307,A,facesParametric,10,59.5918947258,
./basicStim/28M_FE_O.jpg,,0,49,49,65,,,,,,,,,,,None,None,FEA,2.788,None,None,None,None,,,,,,,,,,,,,,,2015_Sep_20_1307,A,facesParametric,10,59.5918947258,
./basicStim/09F_AN_O.jpg,,0,50,50,35,,,,,,,,,,,None,None,ANG,2.283,None,None,None,None,,,,,,,,,,,,,,,2015_Sep_20_1307,A,facesParametric,10,59.5918947258,
./basicStim/03F_SP_O.jpg,,0,51,51,19,,,,,,,,,,,HAP,3.198,None,None,None,None,None,None,,,,,,,,,,,,,,,2015_Sep_20_1307,A,facesParametric,10,59.5918947258,
./basicStim/23M_AN_O.jpg,,0,52,52,49,,,,,,,,,,,None,None,ANG,4.011,None,None,None,None,,,,,,,,,,,,,,,2015_Sep_20_1307,A,facesParametric,10,59.5918947258,
./basicStim/24M_HA_O.jpg,,0,53,53,59,,,,,,,,,,,HAP,1.736,None,None,None,None,None,None,,,,,,,,,,,,,,,2015_Sep_20_1307,A,facesParametric,10,59.5918947258,
./basicStim/36M_AN_O.jpg,,0,54,54,77,,,,,,,,,,,None,None,ANG,2.667,None,None,None,None,,,,,,,,,,,,,,,2015_Sep_20_1307,A,facesParametric,10,59.5918947258,
./basicStim/34M_AN_O.jpg,,0,55,55,70,,,,,,,,,,,None,None,ANG,0.559,None,None,None,None,,,,,,,,,,,,,,,2015_Sep_20_1307,A,facesParametric,10,59.5918947258,
./basicStim/03F_SA_C.jpg,,0,56,56,18,,,,,,,,,,,SAD,2.165,None,None,None,None,None,None,,,,,,,,,,,,,,,2015_Sep_20_1307,A,facesParametric,10,59.5918947258,
./basicStim/02F_SA_C.jpg,,0,57,57,11,,,,,,,,,,,SAD,0.896,None,None,None,None,None,None,,,,,,,,,,,,,,,2015_Sep_20_1307,A,facesParametric,10,59.5918947258,
./basicStim/06F_DI_O.jpg,,0,58,58,22,,,,,,,,,,,None,None,None,None,DIS,2.137,None,None,,,,,,,,,,,,,,,2015_Sep_20_1307,A,facesParametric,10,59.5918947258,
./basicStim/24M_SA_C.jpg,,0,59,59,60,,,,,,,,,,,SAD,1.499,None,None,None,None,None,None,,,,,,,,,,,,,,,2015_Sep_20_1307,A,facesParametric,10,59.5918947258,
./basicStim/03F_AN_O.jpg,,0,60,60,14,,,,,,,,,,,None,None,ANG,0.893,None,None,None,None,,,,,,,,,,,,,,,2015_Sep_20_1307,A,facesParametric,10,59.5918947258,
./basicStim/36M_SA_C.jpg,,0,61,61,81,,,,,,,,,,,SAD,1.568,None,None,None,None,None,None,,,,,,,,,,,,,,,2015_Sep_20_1307,A,facesParametric,10,59.5918947258,
./basicStim/03F_HA_O.jpg,,0,62,62,17,,,,,,,,,,,HAP,0.808,None,None,None,None,None,None,,,,,,,,,,,,,,,2015_Sep_20_1307,A,facesParametric,10,59.5918947258,
./basicStim/23M_HA_O.jpg,,0,63,63,52,,,,,,,,,,,HAP,0.812,None,None,None,None,None,None,,,,,,,,,,,,,,,2015_Sep_20_1307,A,facesParametric,10,59.5918947258,
./basicStim/07F_DI_O.jpg,,0,64,64,29,,,,,,,,,,,None,None,None,None,DIS,3.025,None,None,,,,,,,,,,,,,,,2015_Sep_20_1307,A,facesParametric,10,59.5918947258,
./basicStim/01F_SP_O.jpg,,0,65,65,5,,,,,,,,,,,None,None,None,None,SUP,2.269,None,None,,,,,,,,,,,,,,,2015_Sep_20_1307,A,facesParametric,10,59.5918947258,
./basicStim/02F_DI_O.jpg,,0,66,66,8,,,,,,,,,,,None,None,None,None,DIS,4.178,None,None,,,,,,,,,,,,,,,2015_Sep_20_1307,A,facesParametric,10,59.5918947258,
./basicStim/02F_HA_O.jpg,,0,67,67,10,,,,,,,,,,,HAP,1.178,None,None,None,None,None,None,,,,,,,,,,,,,,,2015_Sep_20_1307,A,facesParametric,10,59.5918947258,
./basicStim/21M_SA_C.jpg,,0,68,68,46,,,,,,,,,,,SAD,2.352,None,None,None,None,None,None,,,,,,,,,,,,,,,2015_Sep_20_1307,A,facesParametric,10,59.5918947258,
./basicStim/02F_FE_O.jpg,,0,69,69,9,,,,,,,,,,,None,None,None,None,SUP,5.719,None,None,,,,,,,,,,,,,,,2015_Sep_20_1307,A,facesParametric,10,59.5918947258,
./basicStim/24M_DI_O.jpg,,0,70,70,57,,,,,,,,,,,None,None,FEA,9.461,None,None,None,None,,,,,,,,,,,,,,,2015_Sep_20_1307,A,facesParametric,10,59.5918947258,
./basicStim/09F_NE_C.jpg,,0,71,71,41,,,,,,,,,,,None,None,None,None,None,None,NTR,1.994,,,,,,,,,,,,,,,2015_Sep_20_1307,A,facesParametric,10,59.5918947258,
./basicStim/21M_DI_O.jpg,,0,72,72,43,,,,,,,,,,,None,None,None,None,DIS,6.588,None,None,,,,,,,,,,,,,,,2015_Sep_20_1307,A,facesParametric,10,59.5918947258,
./basicStim/34M_FE_O.jpg,,0,73,73,72,,,,,,,,,,,None,None,FEA,4.613,None,None,None,None,,,,,,,,,,,,,,,2015_Sep_20_1307,A,facesParametric,10,59.5918947258,
./basicStim/06F_HA_O.jpg,,0,74,74,24,,,,,,,,,,,HAP,5.081,None,None,None,None,None,None,,,,,,,,,,,,,,,2015_Sep_20_1307,A,facesParametric,10,59.5918947258,
./basicStim/07F_HA_O.jpg,,0,75,75,31,,,,,,,,,,,HAP,1.38,None,None,None,None,None,None,,,,,,,,,,,,,,,2015_Sep_20_1307,A,facesParametric,10,59.5918947258,
./basicStim/24M_FE_O.jpg,,0,76,76,58,,,,,,,,,,,None,None,None,None,SUP,8.653,None,None,,,,,,,,,,,,,,,2015_Sep_20_1307,A,facesParametric,10,59.5918947258,
./basicStim/36M_NE_C.jpg,,0,77,77,83,,,,,,,,,,,None,None,None,None,None,None,NTR,2.922,,,,,,,,,,,,,,,2015_Sep_20_1307,A,facesParametric,10,59.5918947258,
./basicStim/23M_SP_O.jpg,,0,78,78,54,,,,,,,,,,,None,None,FEA,5.724,None,None,None,None,,,,,,,,,,,,,,,2015_Sep_20_1307,A,facesParametric,10,59.5918947258,
./basicStim/07F_NE_C.jpg,,0,79,79,34,,,,,,,,,,,None,None,None,None,None,None,NTR,1.176,,,,,,,,,,,,,,,2015_Sep_20_1307,A,facesParametric,10,59.5918947258,
./basicStim/24M_NE_C.jpg,,0,80,80,62,,,,,,,,,,,None,None,None,None,None,None,NTR,1.359,,,,,,,,,,,,,,,2015_Sep_20_1307,A,facesParametric,10,59.5918947258,
./basicStim/36M_HA_O.jpg,,0,81,81,80,,,,,,,,,,,HAP,2.803,None,None,None,None,None,None,,,,,,,,,,,,,,,2015_Sep_20_1307,A,facesParametric,10,59.5918947258,
./basicStim/21M_AN_O.jpg,,0,82,82,42,,,,,,,,,,,None,None,ANG,1.122,None,None,None,None,,,,,,,,,,,,,,,2015_Sep_20_1307,A,facesParametric,10,59.5918947258,
./basicStim/07F_FE_O.jpg,,0,83,83,30,,,,,,,,,,,None,None,None,None,DIS,4.619,None,None,,,,,,,,,,,,,,,2015_Sep_20_1307,A,facesParametric,10,59.5918947258,
,,,,,,,,,,,,,,,,,,,,,,,,return,27.2151818275,,,,,,,,,,,,,2015_Sep_20_1307,A,facesParametric,10,59.5918947258,
,,,,,,,,,,,,,,return,11.2959260941,,,,,,,,,,,,,,,,,,,,,,,2015_Sep_20_1307,A,facesParametric,10,59.5918947258,
,,,,,,,,,,,,,,,,,,,,,,,,return,17.0612289906,,,,,,,,,,,,,2015_Sep_20_1307,A,facesParametric,10,59.5918947258,
,,,,,,,,,,,,,,,,,,,,,,,,,,return,3.93808817863,,,,,,,,,,,2015_Sep_20_1307,A,facesParametric,10,59.5918947258,
./stim/MorphM7_05_orig.jpg,0,,,,,0,0,0,0,,,,,,,,,,,,,,,,,,,15.615234375,10.546875,1,0,0,4.62636685371,,,,,2015_Sep_20_1307,A,facesParametric,10,59.5918947258,
./stim/MorphF7_10_orig.jpg,1,,,,,0,1,1,1,,,,,,,,,,,,,,,,,,,15.5859375,10.60546875,1,0,0,1.62120103836,,,,,2015_Sep_20_1307,A,facesParametric,10,59.5918947258,
./stim/MorphM3_03_orig.jpg,2,,,,,0,2,2,2,,,,,,,,,,,,,,,,,,,15.64453125,10.6640625,0,0,1,0.970902919769,,,,,2015_Sep_20_1307,A,facesParametric,10,59.5918947258,
./stim/MorphF5_09_orig.jpg,3,,,,,0,3,3,3,,,,,,,,,,,,,,,,,,,15.703125,10.693359375,1,0,0,1.12171292305,,,,,2015_Sep_20_1307,A,facesParametric,10,59.5918947258,
./stim/MorphF2_04_orig.jpg,4,,,,,0,4,4,4,,,,,,,,,,,,,,,,,,,15.791015625,10.6640625,0,0,1,2.7641711235,,,,,2015_Sep_20_1307,A,facesParametric,10,59.5918947258,
./stim/MorphF10_05_orig.jpg,5,,,,,0,5,5,5,,,,,,,,,,,,,,,,,,,16.0546875,11.455078125,1,0,0,8.52955293655,,,,,2015_Sep_20_1307,A,facesParametric,10,59.5918947258,
./stim/MorphM8_00_orig.jpg,6,,,,,0,6,6,6,,,,,,,,,,,,,,,,,,,16.0546875,11.3671875,0,0,1,1.95977377892,,,,,2015_Sep_20_1307,A,facesParametric,10,59.5918947258,
./stim/MorphM10_06_orig.jpg,7,,,,,0,7,7,7,,,,,,,,,,,,,,,,,,,16.083984375,11.396484375,1,0,0,1.84252619743,,,,,2015_Sep_20_1307,A,facesParametric,10,59.5918947258,
./stim/MorphF1_03_orig.jpg,8,,,,,0,8,8,8,,,,,,,,,,,,,,,,,,,16.171875,11.337890625,0,0,1,1.84167098999,,,,,2015_Sep_20_1307,A,facesParametric,10,59.5918947258,
./stim/MorphM9_03_orig.jpg,9,,,,,0,9,9,9,,,,,,,,,,,,,,,,,,,16.171875,11.42578125,0,0,1,2.5295290947,,,,,2015_Sep_20_1307,A,facesParametric,10,59.5918947258,
./stim/MorphM2_10_orig.jpg,10,,,,,0,10,10,10,,,,,,,,,,,,,,,,,,,16.34765625,11.396484375,1,0,0,1.85764789581,,,,,2015_Sep_20_1307,A,facesParametric,10,59.5918947258,
./stim/MorphM1_09_orig.jpg,11,,,,,0,11,11,11,,,,,,,,,,,,,,,,,,,16.376953125,11.3671875,1,0,0,2.42807292938,,,,,2015_Sep_20_1307,A,facesParametric,10,59.5918947258,
./stim/MorphM7_02_orig.jpg,12,,,,,0,12,12,12,,,,,,,,,,,,,,,,,,,16.58203125,11.3671875,0,0,1,4.02135896683,,,,,2015_Sep_20_1307,A,facesParametric,10,59.5918947258,
./stim/MorphM3_02_orig.jpg,13,,,,,0,13,13,13,,,,,,,,,,,,,,,,,,,17.05078125,11.689453125,0,0,1,3.75255298615,,,,,2015_Sep_20_1307,A,facesParametric,10,59.5918947258,
./stim/MorphM2_03_orig.jpg,14,,,,,0,14,14,14,,,,,,,,,,,,,,,,,,,16.9921875,11.455078125,0,0,1,4.15515089035,,,,,2015_Sep_20_1307,A,facesParametric,10,59.5918947258,
./stim/MorphM5_07_orig.jpg,15,,,,,0,15,15,15,,,,,,,,,,,,,,,,,,,17.021484375,11.396484375,1,0,0,1.50755500793,,,,,2015_Sep_20_1307,A,facesParametric,10,59.5918947258,
./stim/MorphF10_04_orig.jpg,16,,,,,0,16,16,16,,,,,,,,,,,,,,,,,,,17.05078125,11.42578125,1,0,0,1.3547039032,,,,,2015_Sep_20_1307,A,facesParametric,10,59.5918947258,
./stim/MorphF4_04_orig.jpg,17,,,,,0,17,17,17,,,,,,,,,,,,,,,,,,,17.05078125,11.42578125,0,0,1,1.43997001648,,,,,2015_Sep_20_1307,A,facesParametric,10,59.5918947258,
./stim/MorphF7_09_orig.jpg,18,,,,,0,18,18,18,,,,,,,,,,,,,,,,,,,17.16796875,11.455078125,1,0,0,1.4735159874,,,,,2015_Sep_20_1307,A,facesParametric,10,59.5918947258,
./stim/MorphF9_01_orig.jpg,19,,,,,0,19,19,19,,,,,,,,,,,,,,,,,,,17.2265625,11.54296875,0,0,1,1.8425321579,,,,,2015_Sep_20_1307,A,facesParametric,10,59.5918947258,
./stim/MorphM8_06_orig.jpg,20,,,,,0,20,20,20,,,,,,,,,,,,,,,,,,,17.197265625,11.484375,1,0,0,3.23362493515,,,,,2015_Sep_20_1307,A,facesParametric,10,59.5918947258,
./stim/MorphF4_03_orig.jpg,21,,,,,0,21,21,21,,,,,,,,,,,,,,,,,,,17.314453125,11.54296875,0,0,1,2.35990786552,,,,,2015_Sep_20_1307,A,facesParametric,10,59.5918947258,
./stim/MorphF5_05_orig.jpg,22,,,,,0,22,22,22,,,,,,,,,,,,,,,,,,,17.431640625,11.54296875,1,0,0,1.92641711235,,,,,2015_Sep_20_1307,A,facesParametric,10,59.5918947258,
./stim/MorphF3_03_orig.jpg,23,,,,,0,23,23,23,,,,,,,,,,,,,,,,,,,17.607421875,11.54296875,0,0,1,1.65796613693,,,,,2015_Sep_20_1307,A,facesParametric,10,59.5918947258,
./stim/MorphF4_06_orig.jpg,24,,,,,0,24,24,24,,,,,,,,,,,,,,,,,,,17.607421875,11.54296875,1,0,0,6.06577086449,,,,,2015_Sep_20_1307,A,facesParametric,10,59.5918947258,
./stim/MorphF6_01_orig.jpg,25,,,,,0,25,25,25,,,,,,,,,,,,,,,,,,,17.724609375,11.66015625,0,0,1,0.768059968948,,,,,2015_Sep_20_1307,A,facesParametric,10,59.5918947258,
./stim/MorphF9_00_orig.jpg,26,,,,,0,26,26,26,,,,,,,,,,,,,,,,,,,17.724609375,11.689453125,0,0,1,1.00418305397,,,,,2015_Sep_20_1307,A,facesParametric,10,59.5918947258,
./stim/MorphM6_09_orig.jpg,27,,,,,0,27,27,27,,,,,,,,,,,,,,,,,,,17.783203125,11.748046875,1,0,0,2.26151204109,,,,,2015_Sep_20_1307,A,facesParametric,10,59.5918947258,
./stim/MorphF7_01_orig.jpg,28,,,,,0,28,28,28,,,,,,,,,,,,,,,,,,,17.8125,11.748046875,0,0,1,0.702089071274,,,,,2015_Sep_20_1307,A,facesParametric,10,59.5918947258,
./stim/MorphM10_04_orig.jpg,29,,,,,0,29,29,29,,,,,,,,,,,,,,,,,,,17.841796875,11.71875,1,0,0,1.0546169281,,,,,2015_Sep_20_1307,A,facesParametric,10,59.5918947258,
./stim/MorphM8_01_orig.jpg,30,,,,,0,30,30,30,,,,,,,,,,,,,,,,,,,17.841796875,11.71875,0,0,1,3.64997792244,,,,,2015_Sep_20_1307,A,facesParametric,10,59.5918947258,
./stim/MorphM5_06_orig.jpg,31,,,,,0,31,31,31,,,,,,,,,,,,,,,,,,,18.1640625,9.580078125,1,0,0,4.69136691093,,,,,2015_Sep_20_1307,A,facesParametric,10,59.5918947258,
./stim/MorphF8_01_orig.jpg,32,,,,,0,32,32,32,,,,,,,,,,,,,,,,,,,18.369140625,8.935546875,0,0,1,2.64696288109,,,,,2015_Sep_20_1307,A,facesParametric,10,59.5918947258,
./stim/MorphM5_03_orig.jpg,33,,,,,0,33,33,33,,,,,,,,,,,,,,,,,,,18.427734375,8.935546875,0,0,1,3.85333418846,,,,,2015_Sep_20_1307,A,facesParametric,10,59.5918947258,
./stim/MorphF1_01_orig.jpg,34,,,,,0,34,34,34,,,,,,,,,,,,,,,,,,,18.427734375,8.935546875,0,0,1,0.85218000412,,,,,2015_Sep_20_1307,A,facesParametric,10,59.5918947258,
./stim/MorphM2_00_orig.jpg,35,,,,,0,35,35,35,,,,,,,,,,,,,,,,,,,18.369140625,8.876953125,0,0,1,1.00397610664,,,,,2015_Sep_20_1307,A,facesParametric,10,59.5918947258,
./stim/MorphF9_05_orig.jpg,36,,,,,0,36,36,36,,,,,,,,,,,,,,,,,,,18.779296875,9.0234375,0,0,1,3.5333840847,,,,,2015_Sep_20_1307,A,facesParametric,10,59.5918947258,
./stim/MorphF6_07_orig.jpg,37,,,,,0,37,37,37,,,,,,,,,,,,,,,,,,,18.837890625,9.0234375,1,0,0,0.870105981827,,,,,2015_Sep_20_1307,A,facesParametric,10,59.5918947258,
./stim/MorphF1_07_orig.jpg,38,,,,,0,38,38,38,,,,,,,,,,,,,,,,,,,18.8671875,8.994140625,1,0,0,7.25429105759,,,,,2015_Sep_20_1307,A,facesParametric,10,59.5918947258,
./stim/MorphM2_01_orig.jpg,39,,,,,0,39,39,39,,,,,,,,,,,,,,,,,,,18.984375,9.052734375,0,0,1,1.13818097115,,,,,2015_Sep_20_1307,A,facesParametric,10,59.5918947258,
./stim/MorphM1_00_orig.jpg,40,,,,,0,40,40,40,,,,,,,,,,,,,,,,,,,19.04296875,8.73046875,0,0,1,4.08775520325,,,,,2015_Sep_20_1307,A,facesParametric,10,59.5918947258,
./stim/MorphF1_06_orig.jpg,41,,,,,0,41,41,41,,,,,,,,,,,,,,,,,,,18.955078125,8.876953125,0,0,1,6.58551120758,,,,,2015_Sep_20_1307,A,facesParametric,10,59.5918947258,
./stim/MorphM7_03_orig.jpg,42,,,,,0,42,42,42,,,,,,,,,,,,,,,,,,,18.92578125,8.935546875,1,0,0,3.35027718544,,,,,2015_Sep_20_1307,A,facesParametric,10,59.5918947258,
./stim/MorphM2_08_orig.jpg,43,,,,,0,43,43,43,,,,,,,,,,,,,,,,,,,18.955078125,8.876953125,1,0,0,1.33748698235,,,,,2015_Sep_20_1307,A,facesParametric,10,59.5918947258,
./stim/MorphF6_00_orig.jpg,44,,,,,0,44,44,44,,,,,,,,,,,,,,,,,,,18.779296875,8.90625,0,0,1,0.819622993469,,,,,2015_Sep_20_1307,A,facesParametric,10,59.5918947258,
./stim/MorphM8_02_orig.jpg,45,,,,,0,45,45,45,,,,,,,,,,,,,,,,,,,18.837890625,8.84765625,0,0,1,3.01553201675,,,,,2015_Sep_20_1307,A,facesParametric,10,59.5918947258,
./stim/MorphM6_10_orig.jpg,46,,,,,0,46,46,46,,,,,,,,,,,,,,,,,,,18.779296875,8.876953125,1,0,0,0.986734867096,,,,,2015_Sep_20_1307,A,facesParametric,10,59.5918947258,
./stim/MorphF1_09_orig.jpg,47,,,,,0,47,47,47,,,,,,,,,,,,,,,,,,,18.80859375,8.90625,1,0,0,2.57827997208,,,,,2015_Sep_20_1307,A,facesParametric,10,59.5918947258,
./stim/MorphM9_02_orig.jpg,48,,,,,0,48,48,48,,,,,,,,,,,,,,,,,,,18.779296875,8.90625,0,0,1,1.50704479218,,,,,2015_Sep_20_1307,A,facesParametric,10,59.5918947258,
./stim/MorphM2_02_orig.jpg,49,,,,,0,49,49,49,,,,,,,,,,,,,,,,,,,18.75,8.876953125,0,0,1,1.85878515244,,,,,2015_Sep_20_1307,A,facesParametric,10,59.5918947258,
./stim/MorphM6_07_orig.jpg,50,,,,,0,50,50,50,,,,,,,,,,,,,,,,,,,18.720703125,8.90625,0,0,1,2.49632000923,,,,,2015_Sep_20_1307,A,facesParametric,10,59.5918947258,
./stim/MorphF6_06_orig.jpg,51,,,,,0,51,51,51,,,,,,,,,,,,,,,,,,,18.75,8.90625,1,0,0,1.43937301636,,,,,2015_Sep_20_1307,A,facesParametric,10,59.5918947258,
./stim/MorphM10_02_orig.jpg,52,,,,,0,52,52,52,,,,,,,,,,,,,,,,,,,22.734375,9.2578125,0,0,1,13.6895091534,,,,,2015_Sep_20_1307,A,facesParametric,10,59.5918947258,
./stim/MorphF5_07_orig.jpg,53,,,,,0,53,53,53,,,,,,,,,,,,,,,,,,,22.763671875,9.2578125,1,0,0,0.752645969391,,,,,2015_Sep_20_1307,A,facesParametric,10,59.5918947258,
./stim/MorphF10_02_orig.jpg,54,,,,,0,54,54,54,,,,,,,,,,,,,,,,,,,22.67578125,9.287109375,1,0,0,1.85918593407,,,,,2015_Sep_20_1307,A,facesParametric,10,59.5918947258,
./stim/MorphM4_03_orig.jpg,55,,,,,0,55,55,55,,,,,,,,,,,,,,,,,,,22.646484375,9.31640625,0,0,1,1.02080011368,,,,,2015_Sep_20_1307,A,facesParametric,10,59.5918947258,
./stim/MorphF1_10_orig.jpg,56,,,,,0,56,56,56,,,,,,,,,,,,,,,,,,,22.67578125,9.345703125,1,0,0,1.50655698776,,,,,2015_Sep_20_1307,A,facesParametric,10,59.5918947258,
./stim/MorphF3_10_orig.jpg,57,,,,,0,57,57,57,,,,,,,,,,,,,,,,,,,22.412109375,9.375,1,0,0,1.67447304726,,,,,2015_Sep_20_1307,A,facesParametric,10,59.5918947258,
./stim/MorphM6_02_orig.jpg,58,,,,,0,58,58,58,,,,,,,,,,,,,,,,,,,22.412109375,9.375,0,0,1,1.03825902939,,,,,2015_Sep_20_1307,A,facesParametric,10,59.5918947258,
./stim/MorphM1_07_orig.jpg,59,,,,,0,59,59,59,,,,,,,,,,,,,,,,,,,22.412109375,9.404296875,1,0,0,1.02091598511,,,,,2015_Sep_20_1307,A,facesParametric,10,59.5918947258,
./stim/MorphF2_08_orig.jpg,60,,,,,0,60,60,60,,,,,,,,,,,,,,,,,,,22.3828125,9.462890625,1,0,0,2.72931909561,,,,,2015_Sep_20_1307,A,facesParametric,10,59.5918947258,
./stim/MorphM4_04_orig.jpg,61,,,,,0,61,61,61,,,,,,,,,,,,,,,,,,,22.32421875,9.462890625,0,0,1,2.79639291763,,,,,2015_Sep_20_1307,A,facesParametric,10,59.5918947258,
./stim/MorphF8_10_orig.jpg,62,,,,,0,62,62,62,,,,,,,,,,,,,,,,,,,22.294921875,9.4921875,1,0,0,0.669090986252,,,,,2015_Sep_20_1307,A,facesParametric,10,59.5918947258,
./stim/MorphM7_07_orig.jpg,63,,,,,0,63,63,63,,,,,,,,,,,,,,,,,,,22.32421875,9.521484375,1,0,0,1.05490708351,,,,,2015_Sep_20_1307,A,facesParametric,10,59.5918947258,
./stim/MorphM8_05_orig.jpg,64,,,,,0,64,64,64,,,,,,,,,,,,,,,,,,,22.1484375,9.580078125,0,0,1,5.19416713715,,,,,2015_Sep_20_1307,A,facesParametric,10,59.5918947258,
./stim/MorphF6_02_orig.jpg,65,,,,,0,65,65,65,,,,,,,,,,,,,,,,,,,22.119140625,9.55078125,0,0,1,1.690294981,,,,,2015_Sep_20_1307,A,facesParametric,10,59.5918947258,
./stim/MorphF2_10_orig.jpg,66,,,,,0,66,66,66,,,,,,,,,,,,,,,,,,,22.1484375,9.638671875,1,0,0,0.870428800583,,,,,2015_Sep_20_1307,A,facesParametric,10,59.5918947258,
./stim/MorphM5_09_orig.jpg,67,,,,,0,67,67,67,,,,,,,,,,,,,,,,,,,22.1484375,9.697265625,1,0,0,1.63853287697,,,,,2015_Sep_20_1307,A,facesParametric,10,59.5918947258,
./stim/MorphF8_09_orig.jpg,68,,,,,0,68,68,68,,,,,,,,,,,,,,,,,,,22.1484375,9.697265625,1,0,0,0.786280155182,,,,,2015_Sep_20_1307,A,facesParametric,10,59.5918947258,
./stim/MorphM6_08_orig.jpg,69,,,,,0,69,69,69,,,,,,,,,,,,,,,,,,,22.177734375,9.7265625,0,0,1,4.40676093102,,,,,2015_Sep_20_1307,A,facesParametric,10,59.5918947258,
./stim/MorphF2_00_orig.jpg,70,,,,,0,70,70,70,,,,,,,,,,,,,,,,,,,22.177734375,9.755859375,0,0,1,0.70249414444,,,,,2015_Sep_20_1307,A,facesParametric,10,59.5918947258,
./stim/MorphF7_03_orig.jpg,71,,,,,0,71,71,71,,,,,,,,,,,,,,,,,,,10.576171875,13.095703125,0,0,1,5.42928099632,,,,,2015_Sep_20_1307,A,facesParametric,10,59.5918947258,
./stim/MorphM9_10_orig.jpg,72,,,,,0,72,72,72,,,,,,,,,,,,,,,,,,,10.72265625,13.125,1,0,0,1.33739495277,,,,,2015_Sep_20_1307,A,facesParametric,10,59.5918947258,
./stim/MorphF3_05_orig.jpg,73,,,,,0,73,73,73,,,,,,,,,,,,,,,,,,,10.78125,13.095703125,0,0,1,1.50714802742,,,,,2015_Sep_20_1307,A,facesParametric,10,59.5918947258,
./stim/MorphM10_08_orig.jpg,74,,,,,0,74,74,74,,,,,,,,,,,,,,,,,,,10.693359375,13.0078125,1,0,0,0.819483995438,,,,,2015_Sep_20_1307,A,facesParametric,10,59.5918947258,
./stim/MorphF4_01_orig.jpg,75,,,,,0,75,75,75,,,,,,,,,,,,,,,,,,,10.72265625,12.94921875,0,0,1,0.870672941208,,,,,2015_Sep_20_1307,A,facesParametric,10,59.5918947258,
./stim/MorphM5_04_orig.jpg,76,,,,,0,76,76,76,,,,,,,,,,,,,,,,,,,10.72265625,12.861328125,0,0,1,13.5398981571,,,,,2015_Sep_20_1307,A,facesParametric,10,59.5918947258,
./stim/MorphM7_09_orig.jpg,77,,,,,0,77,77,77,,,,,,,,,,,,,,,,,,,10.78125,12.861328125,1,0,0,0.735773086548,,,,,2015_Sep_20_1307,A,facesParametric,10,59.5918947258,
./stim/MorphM1_04_orig.jpg,78,,,,,0,78,78,78,,,,,,,,,,,,,,,,,,,14.267578125,12.861328125,0,0,1,6.35078382492,,,,,2015_Sep_20_1307,A,facesParametric,10,59.5918947258,
./stim/MorphF8_07_orig.jpg,79,,,,,0,79,79,79,,,,,,,,,,,,,,,,,,,14.326171875,12.94921875,1,0,0,0.952608108521,,,,,2015_Sep_20_1307,A,facesParametric,10,59.5918947258,
./stim/MorphM9_06_orig.jpg,80,,,,,0,80,80,80,,,,,,,,,,,,,,,,,,,14.443359375,12.919921875,0,0,1,2.14444804192,,,,,2015_Sep_20_1307,A,facesParametric,10,59.5918947258,
./stim/MorphF8_03_orig.jpg,81,,,,,0,81,81,81,,,,,,,,,,,,,,,,,,,14.47265625,12.919921875,0,0,1,0.971120119095,,,,,2015_Sep_20_1307,A,facesParametric,10,59.5918947258,
./stim/MorphM8_07_orig.jpg,82,,,,,0,82,82,82,,,,,,,,,,,,,,,,,,,14.53125,12.7734375,1,0,0,1.959004879,,,,,2015_Sep_20_1307,A,facesParametric,10,59.5918947258,
./stim/MorphF2_05_orig.jpg,83,,,,,0,83,83,83,,,,,,,,,,,,,,,,,,,14.53125,12.7734375,0,0,1,1.72485494614,,,,,2015_Sep_20_1307,A,facesParametric,10,59.5918947258,
./stim/MorphM9_05_orig.jpg,84,,,,,0,84,84,84,,,,,,,,,,,,,,,,,,,14.443359375,12.7734375,0,0,1,1.18850111961,,,,,2015_Sep_20_1307,A,facesParametric,10,59.5918947258,
./stim/MorphM5_01_orig.jpg,85,,,,,0,85,85,85,,,,,,,,,,,,,,,,,,,14.443359375,12.7734375,0,0,1,4.47400808334,,,,,2015_Sep_20_1307,A,facesParametric,10,59.5918947258,
./stim/MorphF10_01_orig.jpg,86,,,,,0,86,86,86,,,,,,,,,,,,,,,,,,,14.4140625,12.802734375,0,0,1,2.22764086723,,,,,2015_Sep_20_1307,A,facesParametric,10,59.5918947258,
./stim/MorphM5_08_orig.jpg,87,,,,,0,87,87,87,,,,,,,,,,,,,,,,,,,14.443359375,12.83203125,1,0,0,1.08828401566,,,,,2015_Sep_20_1307,A,facesParametric,10,59.5918947258,
./stim/MorphF7_02_orig.jpg,88,,,,,0,88,88,88,,,,,,,,,,,,,,,,,,,14.4140625,12.861328125,0,0,1,1.15483403206,,,,,2015_Sep_20_1307,A,facesParametric,10,59.5918947258,
./stim/MorphF2_03_orig.jpg,89,,,,,0,89,89,89,,,,,,,,,,,,,,,,,,,14.384765625,12.890625,0,0,1,0.870450019836,,,,,2015_Sep_20_1307,A,facesParametric,10,59.5918947258,
./stim/MorphF5_08_orig.jpg,90,,,,,0,90,90,90,,,,,,,,,,,,,,,,,,,14.35546875,12.94921875,1,0,0,0.666860103607,,,,,2015_Sep_20_1307,A,facesParametric,10,59.5918947258,
./stim/MorphM1_03_orig.jpg,91,,,,,0,91,91,91,,,,,,,,,,,,,,,,,,,14.501953125,13.037109375,0,0,1,1.05476307869,,,,,2015_Sep_20_1307,A,facesParametric,10,59.5918947258,
./stim/MorphF8_05_orig.jpg,92,,,,,0,92,92,92,,,,,,,,,,,,,,,,,,,14.53125,13.18359375,1,0,0,5.69702100754,,,,,2015_Sep_20_1307,A,facesParametric,10,59.5918947258,
./stim/MorphM7_01_orig.jpg,93,,,,,0,93,93,93,,,,,,,,,,,,,,,,,,,14.4140625,13.125,0,0,1,4.15622806549,,,,,2015_Sep_20_1307,A,facesParametric,10,59.5918947258,
./stim/MorphF7_06_orig.jpg,94,,,,,0,94,94,94,,,,,,,,,,,,,,,,,,,14.47265625,13.06640625,1,0,0,1.00311803818,,,,,2015_Sep_20_1307,A,facesParametric,10,59.5918947258,
./stim/MorphF10_00_orig.jpg,95,,,,,0,95,95,95,,,,,,,,,,,,,,,,,,,14.47265625,13.06640625,0,0,1,3.40128803253,,,,,2015_Sep_20_1307,A,facesParametric,10,59.5918947258,
./stim/MorphM5_05_orig.jpg,96,,,,,0,96,96,96,,,,,,,,,,,,,,,,,,,14.6484375,12.83203125,1,0,0,8.54612088203,,,,,2015_Sep_20_1307,A,facesParametric,10,59.5918947258,
./stim/MorphF2_09_orig.jpg,97,,,,,0,97,97,97,,,,,,,,,,,,,,,,,,,14.677734375,12.802734375,1,0,0,0.970890045166,,,,,2015_Sep_20_1307,A,facesParametric,10,59.5918947258,
./stim/MorphM1_05_orig.jpg,98,,,,,0,98,98,98,,,,,,,,,,,,,,,,,,,14.794921875,12.626953125,0,0,1,5.31200504303,,,,,2015_Sep_20_1307,A,facesParametric,10,59.5918947258,
./stim/MorphM4_05_orig.jpg,99,,,,,0,99,99,99,,,,,,,,,,,,,,,,,,,14.8828125,12.568359375,0,0,1,3.18293786049,,,,,2015_Sep_20_1307,A,facesParametric,10,59.5918947258,
./stim/MorphF7_00_orig.jpg,100,,,,,0,100,100,100,,,,,,,,,,,,,,,,,,,14.853515625,12.5390625,0,0,1,0.819521903992,,,,,2015_Sep_20_1307,A,facesParametric,10,59.5918947258,
./stim/MorphF6_04_orig.jpg,101,,,,,0,101,101,101,,,,,,,,,,,,,,,,,,,14.82421875,12.568359375,0,0,1,0.635306119919,,,,,2015_Sep_20_1307,A,facesParametric,10,59.5918947258,
./stim/MorphF3_06_orig.jpg,102,,,,,0,102,102,102,,,,,,,,,,,,,,,,,,,14.853515625,12.59765625,0,0,1,0.751171112061,,,,,2015_Sep_20_1307,A,facesParametric,10,59.5918947258,
./stim/MorphM3_09_orig.jpg,103,,,,,0,103,103,103,,,,,,,,,,,,,,,,,,,14.82421875,12.568359375,1,0,0,1.02088594437,,,,,2015_Sep_20_1307,A,facesParametric,10,59.5918947258,
./stim/MorphM6_05_orig.jpg,104,,,,,0,104,104,104,,,,,,,,,,,,,,,,,,,14.794921875,12.59765625,0,0,1,1.47169113159,,,,,2015_Sep_20_1307,A,facesParametric,10,59.5918947258,
./stim/MorphM2_04_orig.jpg,105,,,,,0,105,105,105,,,,,,,,,,,,,,,,,,,14.70703125,12.626953125,0,0,1,1.02127099037,,,,,2015_Sep_20_1307,A,facesParametric,10,59.5918947258,
./stim/MorphM1_02_orig.jpg,106,,,,,0,106,106,106,,,,,,,,,,,,,,,,,,,13.974609375,12.275390625,0,0,1,2.78075313568,,,,,2015_Sep_20_1307,A,facesParametric,10,59.5918947258,
./stim/MorphM8_09_orig.jpg,107,,,,,0,107,107,107,,,,,,,,,,,,,,,,,,,14.00390625,12.275390625,1,0,0,1.00453805923,,,,,2015_Sep_20_1307,A,facesParametric,10,59.5918947258,
./stim/MorphM7_00_orig.jpg,108,,,,,0,108,108,108,,,,,,,,,,,,,,,,,,,14.00390625,12.568359375,0,0,1,2.96366000175,,,,,2015_Sep_20_1307,A,facesParametric,10,59.5918947258,
./stim/MorphF4_10_orig.jpg,109,,,,,0,109,109,109,,,,,,,,,,,,,,,,,,,14.384765625,12.421875,1,0,0,1.03768205643,,,,,2015_Sep_20_1307,A,facesParametric,10,59.5918947258,
./stim/MorphM10_00_orig.jpg,110,,,,,0,110,110,110,,,,,,,,,,,,,,,,,,,14.384765625,12.421875,0,0,1,0.803261995316,,,,,2015_Sep_20_1307,A,facesParametric,10,59.5918947258,
./stim/MorphF1_00_orig.jpg,111,,,,,0,111,111,111,,,,,,,,,,,,,,,,,,,14.1796875,12.509765625,0,0,1,1.00330901146,,,,,2015_Sep_20_1307,A,facesParametric,10,59.5918947258,
./stim/MorphM6_06_orig.jpg,112,,,,,0,112,112,112,,,,,,,,,,,,,,,,,,,14.296875,12.5390625,0,0,1,6.28325891495,,,,,2015_Sep_20_1307,A,facesParametric,10,59.5918947258,
./stim/MorphF3_02_orig.jpg,113,,,,,0,113,113,113,,,,,,,,,,,,,,,,,,,14.326171875,12.5390625,0,0,1,0.836745977402,,,,,2015_Sep_20_1307,A,facesParametric,10,59.5918947258,
./stim/MorphM8_08_orig.jpg,114,,,,,0,114,114,114,,,,,,,,,,,,,,,,,,,14.296875,12.568359375,1,0,0,0.96985912323,,,,,2015_Sep_20_1307,A,facesParametric,10,59.5918947258,
./stim/MorphF1_04_orig.jpg,115,,,,,0,115,115,115,,,,,,,,,,,,,,,,,,,14.267578125,12.509765625,0,0,1,1.23744916916,,,,,2015_Sep_20_1307,A,facesParametric,10,59.5918947258,
./stim/MorphF2_06_orig.jpg,116,,,,,0,116,116,116,,,,,,,,,,,,,,,,,,,14.23828125,12.5390625,0,0,1,3.50074887276,,,,,2015_Sep_20_1307,A,facesParametric,10,59.5918947258,
./stim/MorphF6_10_orig.jpg,117,,,,,0,117,117,117,,,,,,,,,,,,,,,,,,,14.677734375,12.451171875,1,0,0,1.03755402565,,,,,2015_Sep_20_1307,A,facesParametric,10,59.5918947258,
./stim/MorphM7_06_orig.jpg,118,,,,,0,118,118,118,,,,,,,,,,,,,,,,,,,14.560546875,12.48046875,1,0,0,2.68050909042,,,,,2015_Sep_20_1307,A,facesParametric,10,59.5918947258,
./stim/MorphF1_08_orig.jpg,119,,,,,0,119,119,119,,,,,,,,,,,,,,,,,,,14.47265625,12.392578125,0,0,1,0.851558923721,,,,,2015_Sep_20_1307,A,facesParametric,10,59.5918947258,
./stim/MorphM3_05_orig.jpg,120,,,,,0,120,120,120,,,,,,,,,,,,,,,,,,,14.47265625,12.392578125,1,0,0,7.43969202042,,,,,2015_Sep_20_1307,A,facesParametric,10,59.5918947258,
./stim/MorphM5_00_orig.jpg,121,,,,,0,121,121,121,,,,,,,,,,,,,,,,,,,14.4140625,12.421875,0,0,1,1.9084379673,,,,,2015_Sep_20_1307,A,facesParametric,10,59.5918947258,
./stim/MorphF6_08_orig.jpg,122,,,,,0,122,122,122,,,,,,,,,,,,,,,,,,,14.560546875,12.392578125,1,0,0,0.836258888245,,,,,2015_Sep_20_1307,A,facesParametric,10,59.5918947258,
./stim/MorphF2_07_orig.jpg,123,,,,,0,123,123,123,,,,,,,,,,,,,,,,,,,14.443359375,12.421875,0,0,1,1.97559690475,,,,,2015_Sep_20_1307,A,facesParametric,10,59.5918947258,
./stim/MorphF10_07_orig.jpg,124,,,,,0,124,124,124,,,,,,,,,,,,,,,,,,,14.4140625,12.451171875,1,0,0,0.852994918823,,,,,2015_Sep_20_1307,A,facesParametric,10,59.5918947258,
./stim/MorphF9_04_orig.jpg,125,,,,,0,125,125,125,,,,,,,,,,,,,,,,,,,15.8203125,9.43359375,0,0,1,2.49396300316,,,,,2015_Sep_20_1307,A,facesParametric,10,59.5918947258,
./stim/MorphM4_02_orig.jpg,126,,,,,0,126,126,126,,,,,,,,,,,,,,,,,,,16.171875,9.404296875,0,0,1,2.37823200226,,,,,2015_Sep_20_1307,A,facesParametric,10,59.5918947258,
./stim/MorphF9_08_orig.jpg,127,,,,,0,127,127,127,,,,,,,,,,,,,,,,,,,16.2890625,9.404296875,1,0,0,0.6694419384,,,,,2015_Sep_20_1307,A,facesParametric,10,59.5918947258,
./stim/MorphM10_01_orig.jpg,128,,,,,0,128,128,128,,,,,,,,,,,,,,,,,,,16.318359375,9.462890625,0,0,1,1.77348589897,,,,,2015_Sep_20_1307,A,facesParametric,10,59.5918947258,
./stim/MorphF10_06_orig.jpg,129,,,,,0,129,129,129,,,,,,,,,,,,,,,,,,,16.2890625,9.462890625,1,0,0,0.719928979874,,,,,2015_Sep_20_1307,A,facesParametric,10,59.5918947258,
./stim/MorphM6_01_orig.jpg,130,,,,,0,130,130,130,,,,,,,,,,,,,,,,,,,16.2890625,9.462890625,0,0,1,1.15489506721,,,,,2015_Sep_20_1307,A,facesParametric,10,59.5918947258,
./stim/MorphF9_09_orig.jpg,131,,,,,0,131,131,131,,,,,,,,,,,,,,,,,,,16.23046875,9.404296875,1,0,0,1.40633606911,,,,,2015_Sep_20_1307,A,facesParametric,10,59.5918947258,
./stim/MorphM1_10_orig.jpg,132,,,,,0,132,132,132,,,,,,,,,,,,,,,,,,,16.23046875,9.404296875,1,0,0,2.16071295738,,,,,2015_Sep_20_1307,A,facesParametric,10,59.5918947258,
./stim/MorphF8_08_orig.jpg,133,,,,,0,133,133,133,,,,,,,,,,,,,,,,,,,16.201171875,9.404296875,1,0,0,0.903799772263,,,,,2015_Sep_20_1307,A,facesParametric,10,59.5918947258,
./stim/MorphM4_01_orig.jpg,134,,,,,0,134,134,134,,,,,,,,,,,,,,,,,,,16.171875,9.43359375,0,0,1,0.769633769989,,,,,2015_Sep_20_1307,A,facesParametric,10,59.5918947258,
./stim/MorphF8_06_orig.jpg,135,,,,,0,135,135,135,,,,,,,,,,,,,,,,,,,16.171875,9.43359375,1,0,0,0.751842021942,,,,,2015_Sep_20_1307,A,facesParametric,10,59.5918947258,
./stim/MorphF6_05_orig.jpg,136,,,,,0,136,136,136,,,,,,,,,,,,,,,,,,,12.24609375,11.103515625,1,0,0,7.3565428257,,,,,2015_Sep_20_1307,A,facesParametric,10,59.5918947258,
./stim/MorphM3_00_orig.jpg,137,,,,,0,137,137,137,,,,,,,,,,,,,,,,,,,20.21484375,11.630859375,0,0,1,3.08210992813,,,,,2015_Sep_20_1307,A,facesParametric,10,59.5918947258,
./stim/MorphF9_10_orig.jpg,138,,,,,0,138,138,138,,,,,,,,,,,,,,,,,,,20.2734375,11.806640625,1,0,0,1.72491908073,,,,,2015_Sep_20_1307,A,facesParametric,10,59.5918947258,
./stim/MorphF10_08_orig.jpg,139,,,,,0,139,139,139,,,,,,,,,,,,,,,,,,,20.33203125,11.89453125,1,0,0,0.903630018234,,,,,2015_Sep_20_1307,A,facesParametric,10,59.5918947258,
./stim/MorphM7_10_orig.jpg,140,,,,,0,140,140,140,,,,,,,,,,,,,,,,,,,20.361328125,11.89453125,1,0,0,1.557502985,,,,,2015_Sep_20_1307,A,facesParametric,10,59.5918947258,
./stim/MorphM10_10_orig.jpg,141,,,,,0,141,141,141,,,,,,,,,,,,,,,,,,,20.361328125,12.01171875,1,0,0,0.702538967133,,,,,2015_Sep_20_1307,A,facesParametric,10,59.5918947258,
./stim/MorphM3_01_orig.jpg,142,,,,,0,142,142,142,,,,,,,,,,,,,,,,,,,20.390625,12.041015625,0,0,1,1.9593231678,,,,,2015_Sep_20_1307,A,facesParametric,10,59.5918947258,
./stim/MorphM8_04_orig.jpg,143,,,,,0,143,143,143,,,,,,,,,,,,,,,,,,,20.419921875,11.982421875,0,0,1,0.971180915833,,,,,2015_Sep_20_1307,A,facesParametric,10,59.5918947258,
./stim/MorphF7_08_orig.jpg,144,,,,,0,144,144,144,,,,,,,,,,,,,,,,,,,20.5078125,11.953125,1,0,0,0.769566059113,,,,,2015_Sep_20_1307,A,facesParametric,10,59.5918947258,
./stim/MorphM2_09_orig.jpg,145,,,,,0,145,145,145,,,,,,,,,,,,,,,,,,,20.537109375,12.0703125,1,0,0,1.52376794815,,,,,2015_Sep_20_1307,A,facesParametric,10,59.5918947258,
./stim/MorphM4_06_orig.jpg,146,,,,,0,146,146,146,,,,,,,,,,,,,,,,,,,20.390625,11.953125,1,0,0,6.5017478466,,,,,2015_Sep_20_1307,A,facesParametric,10,59.5918947258,
./stim/MorphF8_02_orig.jpg,147,,,,,0,147,147,147,,,,,,,,,,,,,,,,,,,20.2734375,11.8359375,0,0,1,0.769435167313,,,,,2015_Sep_20_1307,A,facesParametric,10,59.5918947258,
./stim/MorphF1_02_orig.jpg,148,,,,,0,148,148,148,,,,,,,,,,,,,,,,,,,21.328125,11.71875,0,0,1,0.685714960098,,,,,2015_Sep_20_1307,A,facesParametric,10,59.5918947258,
./stim/MorphM7_04_orig.jpg,149,,,,,0,149,149,149,,,,,,,,,,,,,,,,,,,21.240234375,11.8359375,1,0,0,5.74750113487,,,,,2015_Sep_20_1307,A,facesParametric,10,59.5918947258,
./stim/MorphF3_04_orig.jpg,150,,,,,0,150,150,150,,,,,,,,,,,,,,,,,,,21.240234375,11.8359375,0,0,1,0.986705064774,,,,,2015_Sep_20_1307,A,facesParametric,10,59.5918947258,
./stim/MorphF5_02_orig.jpg,151,,,,,0,151,151,151,,,,,,,,,,,,,,,,,,,21.298828125,11.865234375,0,0,1,2.04259896278,,,,,2015_Sep_20_1307,A,facesParametric,10,59.5918947258,
./stim/MorphM10_03_orig.jpg,152,,,,,0,152,152,152,,,,,,,,,,,,,,,,,,,21.298828125,11.865234375,0,0,1,3.33316612244,,,,,2015_Sep_20_1307,A,facesParametric,10,59.5918947258,
./stim/MorphM6_00_orig.jpg,153,,,,,0,153,153,153,,,,,,,,,,,,,,,,,,,21.357421875,11.806640625,0,0,1,0.734549999237,,,,,2015_Sep_20_1307,A,facesParametric,10,59.5918947258,
./stim/MorphF7_04_orig.jpg,154,,,,,0,154,154,154,,,,,,,,,,,,,,,,,,,21.416015625,11.8359375,0,0,1,3.08196282387,,,,,2015_Sep_20_1307,A,facesParametric,10,59.5918947258,
./stim/MorphM3_10_orig.jpg,155,,,,,0,155,155,155,,,,,,,,,,,,,,,,,,,21.474609375,11.806640625,1,0,0,1.08794379234,,,,,2015_Sep_20_1307,A,facesParametric,10,59.5918947258,
./stim/MorphM4_08_orig.jpg,156,,,,,0,156,156,156,,,,,,,,,,,,,,,,,,,21.4453125,11.6015625,1,0,0,3.68623495102,,,,,2015_Sep_20_1307,A,facesParametric,10,59.5918947258,
./stim/MorphF5_03_orig.jpg,157,,,,,0,157,157,157,,,,,,,,,,,,,,,,,,,21.4453125,11.6015625,0,0,1,1.40658092499,,,,,2015_Sep_20_1307,A,facesParametric,10,59.5918947258,
./stim/MorphF8_00_orig.jpg,158,,,,,0,158,158,158,,,,,,,,,,,,,,,,,,,21.50390625,11.630859375,0,0,1,2.99880695343,,,,,2015_Sep_20_1307,A,facesParametric,10,59.5918947258,
./stim/MorphM9_04_orig.jpg,159,,,,,0,159,159,159,,,,,,,,,,,,,,,,,,,21.4453125,11.66015625,0,0,1,1.07147097588,,,,,2015_Sep_20_1307,A,facesParametric,10,59.5918947258,
./stim/MorphM5_02_orig.jpg,160,,,,,0,160,160,160,,,,,,,,,,,,,,,,,,,21.416015625,11.748046875,0,0,1,2.54622077942,,,,,2015_Sep_20_1307,A,facesParametric,10,59.5918947258,
./stim/MorphF9_03_orig.jpg,161,,,,,0,161,161,161,,,,,,,,,,,,,,,,,,,21.416015625,11.689453125,0,0,1,1.87555599213,,,,,2015_Sep_20_1307,A,facesParametric,10,59.5918947258,
./stim/MorphF5_00_orig.jpg,162,,,,,0,162,162,162,,,,,,,,,,,,,,,,,,,21.38671875,11.71875,0,0,1,0.618566989899,,,,,2015_Sep_20_1307,A,facesParametric,10,59.5918947258,
./stim/MorphM4_09_orig.jpg,163,,,,,0,163,163,163,,,,,,,,,,,,,,,,,,,21.38671875,11.71875,1,0,0,1.45696401596,,,,,2015_Sep_20_1307,A,facesParametric,10,59.5918947258,
./stim/MorphF3_01_orig.jpg,164,,,,,0,164,164,164,,,,,,,,,,,,,,,,,,,21.416015625,11.748046875,0,0,1,0.77001619339,,,,,2015_Sep_20_1307,A,facesParametric,10,59.5918947258,
./stim/MorphF6_03_orig.jpg,165,,,,,0,165,165,165,,,,,,,,,,,,,,,,,,,21.416015625,11.71875,0,0,1,2.37658119202,,,,,2015_Sep_20_1307,A,facesParametric,10,59.5918947258,
./stim/MorphF5_04_orig.jpg,166,,,,,0,166,166,166,,,,,,,,,,,,,,,,,,,21.416015625,11.71875,0,0,1,0.752650022507,,,,,2015_Sep_20_1307,A,facesParametric,10,59.5918947258,
./stim/MorphM6_03_orig.jpg,167,,,,,0,167,167,167,,,,,,,,,,,,,,,,,,,21.38671875,11.66015625,0,0,1,1.13840413094,,,,,2015_Sep_20_1307,A,facesParametric,10,59.5918947258,
./stim/MorphF4_05_orig.jpg,168,,,,,0,168,168,168,,,,,,,,,,,,,,,,,,,21.38671875,11.66015625,0,0,1,2.02645492554,,,,,2015_Sep_20_1307,A,facesParametric,10,59.5918947258,
./stim/MorphM10_05_orig.jpg,169,,,,,0,169,169,169,,,,,,,,,,,,,,,,,,,21.357421875,11.630859375,1,0,0,0.618820905685,,,,,2015_Sep_20_1307,A,facesParametric,10,59.5918947258,
./stim/MorphF2_01_orig.jpg,170,,,,,0,170,170,170,,,,,,,,,,,,,,,,,,,21.357421875,11.6015625,0,0,1,1.27260088921,,,,,2015_Sep_20_1307,A,facesParametric,10,59.5918947258,
./stim/MorphM9_07_orig.jpg,171,,,,,0,171,171,171,,,,,,,,,,,,,,,,,,,21.181640625,11.689453125,1,0,0,9.45174217224,,,,,2015_Sep_20_1307,A,facesParametric,10,59.5918947258,
./stim/MorphM2_06_orig.jpg,172,,,,,0,172,172,172,,,,,,,,,,,,,,,,,,,21.240234375,11.572265625,0,0,1,2.57832384109,,,,,2015_Sep_20_1307,A,facesParametric,10,59.5918947258,
./stim/MorphF4_00_orig.jpg,173,,,,,0,173,173,173,,,,,,,,,,,,,,,,,,,21.2109375,11.6015625,0,0,1,0.820138216019,,,,,2015_Sep_20_1307,A,facesParametric,10,59.5918947258,
./stim/MorphM5_10_orig.jpg,174,,,,,0,174,174,174,,,,,,,,,,,,,,,,,,,21.240234375,11.6015625,1,0,0,1.03819894791,,,,,2015_Sep_20_1307,A,facesParametric,10,59.5918947258,
./stim/MorphM3_07_orig.jpg,175,,,,,0,175,175,175,,,,,,,,,,,,,,,,,,,21.240234375,11.6015625,1,0,0,0.886528968811,,,,,2015_Sep_20_1307,A,facesParametric,10,59.5918947258,
./stim/MorphM9_01_orig.jpg,176,,,,,0,176,176,176,,,,,,,,,,,,,,,,,,,21.181640625,11.630859375,0,0,1,0.987549066544,,,,,2015_Sep_20_1307,A,facesParametric,10,59.5918947258,
./stim/MorphF2_02_orig.jpg,177,,,,,0,177,177,177,,,,,,,,,,,,,,,,,,,21.181640625,11.630859375,0,0,1,2.07722592354,,,,,2015_Sep_20_1307,A,facesParametric,10,59.5918947258,
./stim/MorphF5_10_orig.jpg,178,,,,,0,178,178,178,,,,,,,,,,,,,,,,,,,21.240234375,11.630859375,1,0,0,1.18688392639,,,,,2015_Sep_20_1307,A,facesParametric,10,59.5918947258,
./stim/MorphF10_03_orig.jpg,179,,,,,0,179,179,179,,,,,,,,,,,,,,,,,,,21.240234375,11.630859375,1,0,0,2.07764482498,,,,,2015_Sep_20_1307,A,facesParametric,10,59.5918947258,
./stim/MorphM4_00_orig.jpg,180,,,,,0,180,180,180,,,,,,,,,,,,,,,,,,,21.240234375,11.630859375,0,0,1,1.32194113731,,,,,2015_Sep_20_1307,A,facesParametric,10,59.5918947258,
./stim/MorphM8_10_orig.jpg,181,,,,,0,181,181,181,,,,,,,,,,,,,,,,,,,21.240234375,11.630859375,1,0,0,0.851392030716,,,,,2015_Sep_20_1307,A,facesParametric,10,59.5918947258,
./stim/MorphF1_05_orig.jpg,182,,,,,0,182,182,182,,,,,,,,,,,,,,,,,,,21.298828125,11.630859375,0,0,1,0.686131954193,,,,,2015_Sep_20_1307,A,facesParametric,10,59.5918947258,
./stim/MorphM2_07_orig.jpg,183,,,,,0,183,183,183,,,,,,,,,,,,,,,,,,,21.357421875,11.71875,1,0,0,2.64676189423,,,,,2015_Sep_20_1307,A,facesParametric,10,59.5918947258,
./stim/MorphM3_06_orig.jpg,184,,,,,0,184,184,184,,,,,,,,,,,,,,,,,,,21.357421875,11.748046875,1,0,0,2.36183094978,,,,,2015_Sep_20_1307,A,facesParametric,10,59.5918947258,
./stim/MorphM10_09_orig.jpg,185,,,,,0,185,185,185,,,,,,,,,,,,,,,,,,,21.328125,11.748046875,1,0,0,0.820126771927,,,,,2015_Sep_20_1307,A,facesParametric,10,59.5918947258,
./stim/MorphF10_09_orig.jpg,186,,,,,0,186,186,186,,,,,,,,,,,,,,,,,,,21.357421875,11.748046875,1,0,0,0.653007984161,,,,,2015_Sep_20_1307,A,facesParametric,10,59.5918947258,
./stim/MorphF7_05_orig.jpg,187,,,,,0,187,187,187,,,,,,,,,,,,,,,,,,,21.796875,11.806640625,0,0,1,6.41687297821,,,,,2015_Sep_20_1307,A,facesParametric,10,59.5918947258,
./stim/MorphF4_09_orig.jpg,188,,,,,0,188,188,188,,,,,,,,,,,,,,,,,,,22.1484375,11.8359375,1,0,0,0.685900211334,,,,,2015_Sep_20_1307,A,facesParametric,10,59.5918947258,
./stim/MorphM3_08_orig.jpg,189,,,,,0,189,189,189,,,,,,,,,,,,,,,,,,,22.1484375,11.923828125,1,0,0,0.920745849609,,,,,2015_Sep_20_1307,A,facesParametric,10,59.5918947258,
./stim/MorphM4_10_orig.jpg,190,,,,,0,190,190,190,,,,,,,,,,,,,,,,,,,22.1484375,11.982421875,1,0,0,0.683479070663,,,,,2015_Sep_20_1307,A,facesParametric,10,59.5918947258,
./stim/MorphF5_06_orig.jpg,191,,,,,0,191,191,191,,,,,,,,,,,,,,,,,,,22.177734375,11.923828125,1,0,0,0.986766815186,,,,,2015_Sep_20_1307,A,facesParametric,10,59.5918947258,
./stim/MorphM1_06_orig.jpg,192,,,,,0,192,192,192,,,,,,,,,,,,,,,,,,,22.177734375,11.8359375,1,0,0,2.97985100746,,,,,2015_Sep_20_1307,A,facesParametric,10,59.5918947258,
./stim/MorphF4_02_orig.jpg,193,,,,,0,193,193,193,,,,,,,,,,,,,,,,,,,22.236328125,11.748046875,0,0,1,0.719509124756,,,,,2015_Sep_20_1307,A,facesParametric,10,59.5918947258,
./stim/MorphF8_04_orig.jpg,194,,,,,0,194,194,194,,,,,,,,,,,,,,,,,,,22.294921875,11.71875,0,0,1,8.79686498642,,,,,2015_Sep_20_1307,A,facesParametric,10,59.5918947258,
./stim/MorphM9_09_orig.jpg,195,,,,,0,195,195,195,,,,,,,,,,,,,,,,,,,22.32421875,11.689453125,1,0,0,0.853268146515,,,,,2015_Sep_20_1307,A,facesParametric,10,59.5918947258,
./stim/MorphM1_08_orig.jpg,196,,,,,0,196,196,196,,,,,,,,,,,,,,,,,,,22.3828125,11.66015625,1,0,0,0.870462179184,,,,,2015_Sep_20_1307,A,facesParametric,10,59.5918947258,
./stim/MorphF3_07_orig.jpg,197,,,,,0,197,197,197,,,,,,,,,,,,,,,,,,,22.3828125,11.572265625,1,0,0,3.1663351059,,,,,2015_Sep_20_1307,A,facesParametric,10,59.5918947258,
./stim/MorphM3_04_orig.jpg,198,,,,,0,198,198,198,,,,,,,,,,,,,,,,,,,22.3828125,11.484375,1,0,0,0.887079000473,,,,,2015_Sep_20_1307,A,facesParametric,10,59.5918947258,
./stim/MorphF10_10_orig.jpg,199,,,,,0,199,199,199,,,,,,,,,,,,,,,,,,,22.3828125,11.54296875,1,0,0,0.685697793961,,,,,2015_Sep_20_1307,A,facesParametric,10,59.5918947258,
./stim/MorphF6_09_orig.jpg,200,,,,,0,200,200,200,,,,,,,,,,,,,,,,,,,22.32421875,11.54296875,1,0,0,0.801870107651,,,,,2015_Sep_20_1307,A,facesParametric,10,59.5918947258,
./stim/MorphM6_04_orig.jpg,201,,,,,0,201,201,201,,,,,,,,,,,,,,,,,,,22.3828125,11.6015625,0,0,1,1.65803790092,,,,,2015_Sep_20_1307,A,facesParametric,10,59.5918947258,
./stim/MorphM7_08_orig.jpg,202,,,,,0,202,202,202,,,,,,,,,,,,,,,,,,,22.353515625,11.54296875,1,0,0,1.06990695,,,,,2015_Sep_20_1307,A,facesParametric,10,59.5918947258,
./stim/MorphM1_01_orig.jpg,203,,,,,0,203,203,203,,,,,,,,,,,,,,,,,,,22.412109375,11.54296875,0,0,1,3.48237490654,,,,,2015_Sep_20_1307,A,facesParametric,10,59.5918947258,
./stim/MorphM9_00_orig.jpg,204,,,,,0,204,204,204,,,,,,,,,,,,,,,,,,,22.3828125,11.572265625,0,0,1,0.652518987656,,,,,2015_Sep_20_1307,A,facesParametric,10,59.5918947258,
./stim/MorphF5_01_orig.jpg,205,,,,,0,205,205,205,,,,,,,,,,,,,,,,,,,22.3828125,11.572265625,0,0,1,0.985561847687,,,,,2015_Sep_20_1307,A,facesParametric,10,59.5918947258,
./stim/MorphF7_07_orig.jpg,206,,,,,0,206,206,206,,,,,,,,,,,,,,,,,,,22.412109375,11.54296875,1,0,0,3.88679790497,,,,,2015_Sep_20_1307,A,facesParametric,10,59.5918947258,
./stim/MorphF3_09_orig.jpg,207,,,,,0,207,207,207,,,,,,,,,,,,,,,,,,,22.5,11.572265625,0,0,1,1.08859014511,,,,,2015_Sep_20_1307,A,facesParametric,10,59.5918947258,
./stim/MorphF9_06_orig.jpg,208,,,,,0,208,208,208,,,,,,,,,,,,,,,,,,,22.6171875,11.71875,0,0,1,3.7195417881,,,,,2015_Sep_20_1307,A,facesParametric,10,59.5918947258,
./stim/MorphF4_07_orig.jpg,209,,,,,0,209,209,209,,,,,,,,,,,,,,,,,,,23.0859375,11.689453125,1,0,0,4.57333397865,,,,,2015_Sep_20_1307,A,facesParametric,10,59.5918947258,
./stim/MorphM4_07_orig.jpg,210,,,,,0,210,210,210,,,,,,,,,,,,,,,,,,,22.998046875,11.630859375,1,0,0,1.00449490547,,,,,2015_Sep_20_1307,A,facesParametric,10,59.5918947258,
./stim/MorphM8_03_orig.jpg,211,,,,,0,211,211,211,,,,,,,,,,,,,,,,,,,23.02734375,11.6015625,1,0,0,6.49951505661,,,,,2015_Sep_20_1307,A,facesParametric,10,59.5918947258,
./stim/MorphM2_05_orig.jpg,212,,,,,0,212,212,212,,,,,,,,,,,,,,,,,,,23.02734375,11.630859375,0,0,1,0.752674102783,,,,,2015_Sep_20_1307,A,facesParametric,10,59.5918947258,
./stim/MorphF9_07_orig.jpg,213,,,,,0,213,213,213,,,,,,,,,,,,,,,,,,,23.02734375,11.630859375,0,0,1,1.8086938858,,,,,2015_Sep_20_1307,A,facesParametric,10,59.5918947258,
./stim/MorphM9_08_orig.jpg,214,,,,,0,214,214,214,,,,,,,,,,,,,,,,,,,23.02734375,11.630859375,1,0,0,1.02056884766,,,,,2015_Sep_20_1307,A,facesParametric,10,59.5918947258,
./stim/MorphF9_02_orig.jpg,215,,,,,0,215,215,215,,,,,,,,,,,,,,,,,,,22.96875,11.630859375,0,0,1,1.99316191673,,,,,2015_Sep_20_1307,A,facesParametric,10,59.5918947258,
./stim/MorphF4_08_orig.jpg,216,,,,,0,216,216,216,,,,,,,,,,,,,,,,,,,23.173828125,11.513671875,1,0,0,2.2267138958,,,,,2015_Sep_20_1307,A,facesParametric,10,59.5918947258,
./stim/MorphF3_08_orig.jpg,217,,,,,0,217,217,217,,,,,,,,,,,,,,,,,,,23.173828125,11.6015625,1,0,0,1.17179298401,,,,,2015_Sep_20_1307,A,facesParametric,10,59.5918947258,
./stim/MorphM10_07_orig.jpg,218,,,,,0,218,218,218,,,,,,,,,,,,,,,,,,,23.14453125,11.630859375,1,0,0,1.1386179924,,,,,2015_Sep_20_1307,A,facesParametric,10,59.5918947258,
./stim/MorphF3_00_orig.jpg,219,,,,,0,219,219,219,,,,,,,,,,,,,,,,,,,23.14453125,11.572265625,0,0,1,1.15496301651,,,,,2015_Sep_20_1307,A,facesParametric,10,59.5918947258,
,,,,,,,,,,,,,,,,,,,,,,,,,,,,,,,,,,return,26.6482281685,,,2015_Sep_20_1307,A,facesParametric,10,59.5918947258,
./stim/MorphM3_01_orig.jpg,0,,,,,,,,,0,0,0,0,,,,,,,,,,,,,,,-0.8203125,-12.041015625,0,0,1,1.85092496872,,,,,2015_Sep_20_1307,A,facesParametric,10,59.5918947258,
./stim/MorphM6_06_orig.jpg,1,,,,,,,,,0,1,1,1,,,,,,,,,,,,,,,-0.263671875,-12.1875,0,0,1,0.935887098312,,,,,2015_Sep_20_1307,A,facesParametric,10,59.5918947258,
./stim/MorphF9_08_orig.jpg,2,,,,,,,,,0,2,2,2,,,,,,,,,,,,,,,-0.05859375,-12.275390625,1,0,0,0.702733039856,,,,,2015_Sep_20_1307,A,facesParametric,10,59.5918947258,
./stim/MorphF1_00_orig.jpg,3,,,,,,,,,0,3,3,3,,,,,,,,,,,,,,,-0.1171875,-12.392578125,0,0,1,0.803618907928,,,,,2015_Sep_20_1307,A,facesParametric,10,59.5918947258,
./stim/MorphM6_07_orig.jpg,4,,,,,,,,,0,4,4,4,,,,,,,,,,,,,,,0.263671875,-12.7734375,0,0,1,5.12723708153,,,,,2015_Sep_20_1307,A,facesParametric,10,59.5918947258,
./stim/MorphF8_01_orig.jpg,5,,,,,,,,,0,5,5,5,,,,,,,,,,,,,,,0.3515625,-13.154296875,0,0,1,0.769663095474,,,,,2015_Sep_20_1307,A,facesParametric,10,59.5918947258,
./stim/MorphF3_08_orig.jpg,6,,,,,,,,,0,6,6,6,,,,,,,,,,,,,,,1.171875,-13.154296875,0,0,1,0.585228919983,,,,,2015_Sep_20_1307,A,facesParametric,10,59.5918947258,
./stim/MorphF5_05_orig.jpg,7,,,,,,,,,0,7,7,7,,,,,,,,,,,,,,,1.318359375,-13.037109375,1,0,0,1.18899202347,,,,,2015_Sep_20_1307,A,facesParametric,10,59.5918947258,
./stim/MorphF9_03_orig.jpg,8,,,,,,,,,0,8,8,8,,,,,,,,,,,,,,,8.291015625,-13.095703125,0,0,1,2.96506810188,,,,,2015_Sep_20_1307,A,facesParametric,10,59.5918947258,
./stim/MorphM3_04_orig.jpg,9,,,,,,,,,0,9,9,9,,,,,,,,,,,,,,,8.232421875,-13.037109375,1,0,0,0.533849954605,,,,,2015_Sep_20_1307,A,facesParametric,10,59.5918947258,
./stim/MorphF9_06_orig.jpg,10,,,,,,,,,0,10,10,10,,,,,,,,,,,,,,,22.8515625,-13.0078125,1,0,0,1.94045805931,,,,,2015_Sep_20_1307,A,facesParametric,10,59.5918947258,
./stim/MorphM9_06_orig.jpg,11,,,,,,,,,0,11,11,11,,,,,,,,,,,,,,,22.763671875,-13.0078125,1,0,0,1.94144701958,,,,,2015_Sep_20_1307,A,facesParametric,10,59.5918947258,
./stim/MorphM1_00_orig.jpg,12,,,,,,,,,0,12,12,12,,,,,,,,,,,,,,,22.8515625,-12.890625,0,0,1,1.92533493042,,,,,2015_Sep_20_1307,A,facesParametric,10,59.5918947258,
./stim/MorphM6_10_orig.jpg,13,,,,,,,,,0,13,13,13,,,,,,,,,,,,,,,22.880859375,-12.94921875,1,0,0,1.1523680687,,,,,2015_Sep_20_1307,A,facesParametric,10,59.5918947258,
./stim/MorphM1_05_orig.jpg,14,,,,,,,,,0,14,14,14,,,,,,,,,,,,,,,22.79296875,-13.06640625,0,0,1,1.28830313683,,,,,2015_Sep_20_1307,A,facesParametric,10,59.5918947258,
./stim/MorphF6_09_orig.jpg,15,,,,,,,,,0,15,15,15,,,,,,,,,,,,,,,22.734375,-13.037109375,1,0,0,0.601699113846,,,,,2015_Sep_20_1307,A,facesParametric,10,59.5918947258,
./stim/MorphM8_02_orig.jpg,16,,,,,,,,,0,16,16,16,,,,,,,,,,,,,,,22.03125,-13.095703125,0,0,1,4.50760102272,,,,,2015_Sep_20_1307,A,facesParametric,10,59.5918947258,
./stim/MorphM2_07_orig.jpg,17,,,,,,,,,0,17,17,17,,,,,,,,,,,,,,,22.060546875,-12.802734375,0,0,1,3.03201198578,,,,,2015_Sep_20_1307,A,facesParametric,10,59.5918947258,
./stim/MorphM8_07_orig.jpg,18,,,,,,,,,0,18,18,18,,,,,,,,,,,,,,,22.03125,-12.7734375,1,0,0,2.12613582611,,,,,2015_Sep_20_1307,A,facesParametric,10,59.5918947258,
./stim/MorphF7_03_orig.jpg,19,,,,,,,,,0,19,19,19,,,,,,,,,,,,,,,22.08984375,-12.919921875,0,0,1,4.77348399162,,,,,2015_Sep_20_1307,A,facesParametric,10,59.5918947258,
./stim/MorphF1_07_orig.jpg,20,,,,,,,,,0,20,20,20,,,,,,,,,,,,,,,22.236328125,-13.095703125,0,0,1,0.820045948029,,,,,2015_Sep_20_1307,A,facesParametric,10,59.5918947258,
./stim/MorphF4_10_orig.jpg,21,,,,,,,,,0,21,21,21,,,,,,,,,,,,,,,22.265625,-13.095703125,1,0,0,0.853451013565,,,,,2015_Sep_20_1307,A,facesParametric,10,59.5918947258,
./stim/MorphM1_10_orig.jpg,22,,,,,,,,,0,22,22,22,,,,,,,,,,,,,,,22.236328125,-13.037109375,1,0,0,1.13828706741,,,,,2015_Sep_20_1307,A,facesParametric,10,59.5918947258,
./stim/MorphM4_10_orig.jpg,23,,,,,,,,,0,23,23,23,,,,,,,,,,,,,,,22.20703125,-13.095703125,1,0,0,0.884989023209,,,,,2015_Sep_20_1307,A,facesParametric,10,59.5918947258,
./stim/MorphM1_09_orig.jpg,24,,,,,,,,,0,24,24,24,,,,,,,,,,,,,,,22.265625,-13.154296875,1,0,0,0.903470993042,,,,,2015_Sep_20_1307,A,facesParametric,10,59.5918947258,
./stim/MorphM2_03_orig.jpg,25,,,,,,,,,0,25,25,25,,,,,,,,,,,,,,,22.294921875,-13.154296875,0,0,1,1.05475592613,,,,,2015_Sep_20_1307,A,facesParametric,10,59.5918947258,
./stim/MorphF4_02_orig.jpg,26,,,,,,,,,0,26,26,26,,,,,,,,,,,,,,,22.265625,-13.154296875,0,0,1,0.786342144012,,,,,2015_Sep_20_1307,A,facesParametric,10,59.5918947258,
./stim/MorphF10_10_orig.jpg,27,,,,,,,,,0,27,27,27,,,,,,,,,,,,,,,22.236328125,-13.095703125,1,0,0,1.94248604774,,,,,2015_Sep_20_1307,A,facesParametric,10,59.5918947258,
./stim/MorphF3_02_orig.jpg,28,,,,,,,,,0,28,28,28,,,,,,,,,,,,,,,22.294921875,-13.037109375,0,0,1,0.702712059021,,,,,2015_Sep_20_1307,A,facesParametric,10,59.5918947258,
./stim/MorphM2_02_orig.jpg,29,,,,,,,,,0,29,29,29,,,,,,,,,,,,,,,22.20703125,-13.06640625,0,0,1,3.33427596092,,,,,2015_Sep_20_1307,A,facesParametric,10,59.5918947258,
./stim/MorphF7_10_orig.jpg,30,,,,,,,,,0,30,30,30,,,,,,,,,,,,,,,22.294921875,-13.06640625,1,0,0,0.648963212967,,,,,2015_Sep_20_1307,A,facesParametric,10,59.5918947258,
./stim/MorphM5_04_orig.jpg,31,,,,,,,,,0,31,31,31,,,,,,,,,,,,,,,22.353515625,-13.095703125,0,0,1,1.84170794487,,,,,2015_Sep_20_1307,A,facesParametric,10,59.5918947258,
./stim/MorphF10_09_orig.jpg,32,,,,,,,,,0,32,32,32,,,,,,,,,,,,,,,22.32421875,-13.037109375,1,0,0,4.28921794891,,,,,2015_Sep_20_1307,A,facesParametric,10,59.5918947258,
./stim/MorphM1_08_orig.jpg,33,,,,,,,,,0,33,33,33,,,,,,,,,,,,,,,22.32421875,-13.037109375,1,0,0,2.25995492935,,,,,2015_Sep_20_1307,A,facesParametric,10,59.5918947258,
./stim/MorphM8_09_orig.jpg,34,,,,,,,,,0,34,34,34,,,,,,,,,,,,,,,22.470703125,-13.0078125,1,0,0,0.887980937958,,,,,2015_Sep_20_1307,A,facesParametric,10,59.5918947258,
./stim/MorphM10_00_orig.jpg,35,,,,,,,,,0,35,35,35,,,,,,,,,,,,,,,22.470703125,-13.0078125,0,0,1,1.97360086441,,,,,2015_Sep_20_1307,A,facesParametric,10,59.5918947258,
./stim/MorphM3_06_orig.jpg,36,,,,,,,,,0,36,36,36,,,,,,,,,,,,,,,22.470703125,-13.0078125,1,0,0,1.15323400497,,,,,2015_Sep_20_1307,A,facesParametric,10,59.5918947258,
./stim/MorphM7_08_orig.jpg,37,,,,,,,,,0,37,37,37,,,,,,,,,,,,,,,22.5,-13.06640625,1,0,0,2.29486298561,,,,,2015_Sep_20_1307,A,facesParametric,10,59.5918947258,
./stim/MorphM5_09_orig.jpg,38,,,,,,,,,0,38,38,38,,,,,,,,,,,,,,,22.55859375,-13.125,1,0,0,3.58519506454,,,,,2015_Sep_20_1307,A,facesParametric,10,59.5918947258,
./stim/MorphF4_08_orig.jpg,39,,,,,,,,,0,39,39,39,,,,,,,,,,,,,,,22.529296875,-12.919921875,1,0,0,1.75792598724,,,,,2015_Sep_20_1307,A,facesParametric,10,59.5918947258,
./stim/MorphF3_03_orig.jpg,40,,,,,,,,,0,40,40,40,,,,,,,,,,,,,,,22.587890625,-12.978515625,0,0,1,0.652004003525,,,,,2015_Sep_20_1307,A,facesParametric,10,59.5918947258,
./stim/MorphF7_00_orig.jpg,41,,,,,,,,,0,41,41,41,,,,,,,,,,,,,,,22.5,-13.125,0,0,1,0.753340005875,,,,,2015_Sep_20_1307,A,facesParametric,10,59.5918947258,
./stim/MorphM3_10_orig.jpg,42,,,,,,,,,0,42,42,42,,,,,,,,,,,,,,,22.470703125,-13.154296875,1,0,0,0.970390081406,,,,,2015_Sep_20_1307,A,facesParametric,10,59.5918947258,
./stim/MorphF9_04_orig.jpg,43,,,,,,,,,0,43,43,43,,,,,,,,,,,,,,,22.236328125,-13.125,0,0,1,2.93114805222,,,,,2015_Sep_20_1307,A,facesParametric,10,59.5918947258,
./stim/MorphF6_05_orig.jpg,44,,,,,,,,,0,44,44,44,,,,,,,,,,,,,,,22.236328125,-13.154296875,1,0,0,0.985248804092,,,,,2015_Sep_20_1307,A,facesParametric,10,59.5918947258,
./stim/MorphM5_10_orig.jpg,45,,,,,,,,,0,45,45,45,,,,,,,,,,,,,,,22.294921875,-13.125,1,0,0,1.08853507042,,,,,2015_Sep_20_1307,A,facesParametric,10,59.5918947258,
./stim/MorphF5_09_orig.jpg,46,,,,,,,,,0,46,46,46,,,,,,,,,,,,,,,22.32421875,-13.125,1,0,0,1.10460495949,,,,,2015_Sep_20_1307,A,facesParametric,10,59.5918947258,
./stim/MorphF6_06_orig.jpg,47,,,,,,,,,0,47,47,47,,,,,,,,,,,,,,,22.353515625,-13.154296875,1,0,0,1.01972794533,,,,,2015_Sep_20_1307,A,facesParametric,10,59.5918947258,
./stim/MorphM9_02_orig.jpg,48,,,,,,,,,0,48,48,48,,,,,,,,,,,,,,,22.294921875,-13.154296875,0,0,1,0.901954889297,,,,,2015_Sep_20_1307,A,facesParametric,10,59.5918947258,
./stim/MorphF3_01_orig.jpg,49,,,,,,,,,0,49,49,49,,,,,,,,,,,,,,,22.20703125,-13.154296875,0,0,1,0.734841108322,,,,,2015_Sep_20_1307,A,facesParametric,10,59.5918947258,
./stim/MorphF1_08_orig.jpg,50,,,,,,,,,0,50,50,50,,,,,,,,,,,,,,,22.08984375,-13.154296875,0,0,1,0.786542892456,,,,,2015_Sep_20_1307,A,facesParametric,10,59.5918947258,
./stim/MorphM4_03_orig.jpg,51,,,,,,,,,0,51,51,51,,,,,,,,,,,,,,,22.060546875,-13.154296875,0,0,1,1.5738670826,,,,,2015_Sep_20_1307,A,facesParametric,10,59.5918947258,
./stim/MorphF3_05_orig.jpg,52,,,,,,,,,0,52,52,52,,,,,,,,,,,,,,,22.03125,-13.154296875,1,0,0,0.803076982498,,,,,2015_Sep_20_1307,A,facesParametric,10,59.5918947258,
./stim/MorphM4_08_orig.jpg,53,,,,,,,,,0,53,53,53,,,,,,,,,,,,,,,22.03125,-13.125,1,0,0,0.736241102219,,,,,2015_Sep_20_1307,A,facesParametric,10,59.5918947258,
./stim/MorphM10_06_orig.jpg,54,,,,,,,,,0,54,54,54,,,,,,,,,,,,,,,22.060546875,-13.154296875,1,0,0,0.769819021225,,,,,2015_Sep_20_1307,A,facesParametric,10,59.5918947258,
./stim/MorphF10_03_orig.jpg,55,,,,,,,,,0,55,55,55,,,,,,,,,,,,,,,22.08984375,-13.154296875,1,0,0,2.61342787743,,,,,2015_Sep_20_1307,A,facesParametric,10,59.5918947258,
./stim/MorphM6_09_orig.jpg,56,,,,,,,,,0,56,56,56,,,,,,,,,,,,,,,22.1484375,-13.06640625,1,0,0,1.45528817177,,,,,2015_Sep_20_1307,A,facesParametric,10,59.5918947258,
./stim/MorphM4_04_orig.jpg,57,,,,,,,,,0,57,57,57,,,,,,,,,,,,,,,22.119140625,-13.154296875,0,0,1,2.26115393639,,,,,2015_Sep_20_1307,A,facesParametric,10,59.5918947258,
./stim/MorphF9_01_orig.jpg,58,,,,,,,,,0,58,58,58,,,,,,,,,,,,,,,22.08984375,-13.154296875,0,0,1,1.25583720207,,,,,2015_Sep_20_1307,A,facesParametric,10,59.5918947258,
./stim/MorphM7_07_orig.jpg,59,,,,,,,,,0,59,59,59,,,,,,,,,,,,,,,22.1484375,-13.154296875,1,0,0,0.651803970337,,,,,2015_Sep_20_1307,A,facesParametric,10,59.5918947258,
./stim/MorphF9_07_orig.jpg,60,,,,,,,,,0,60,60,60,,,,,,,,,,,,,,,22.265625,-13.154296875,1,0,0,1.55778813362,,,,,2015_Sep_20_1307,A,facesParametric,10,59.5918947258,
./stim/MorphF3_06_orig.jpg,61,,,,,,,,,0,61,61,61,,,,,,,,,,,,,,,22.1484375,-13.125,0,0,1,1.90910100937,,,,,2015_Sep_20_1307,A,facesParametric,10,59.5918947258,
./stim/MorphF7_08_orig.jpg,62,,,,,,,,,0,62,62,62,,,,,,,,,,,,,,,22.177734375,-13.154296875,1,0,0,2.57798290253,,,,,2015_Sep_20_1307,A,facesParametric,10,59.5918947258,
./stim/MorphF9_00_orig.jpg,63,,,,,,,,,0,63,63,63,,,,,,,,,,,,,,,22.236328125,-13.154296875,0,0,1,0.686144113541,,,,,2015_Sep_20_1307,A,facesParametric,10,59.5918947258,
./stim/MorphM10_08_orig.jpg,64,,,,,,,,,0,64,64,64,,,,,,,,,,,,,,,22.1484375,-13.154296875,1,0,0,0.551520109177,,,,,2015_Sep_20_1307,A,facesParametric,10,59.5918947258,
./stim/MorphF2_07_orig.jpg,65,,,,,,,,,0,65,65,65,,,,,,,,,,,,,,,22.119140625,-13.06640625,0,0,1,1.90971708298,,,,,2015_Sep_20_1307,A,facesParametric,10,59.5918947258,
./stim/MorphM9_01_orig.jpg,66,,,,,,,,,0,66,66,66,,,,,,,,,,,,,,,22.08984375,-13.095703125,0,0,1,3.49915790558,,,,,2015_Sep_20_1307,A,facesParametric,10,59.5918947258,
./stim/MorphM2_01_orig.jpg,67,,,,,,,,,0,67,67,67,,,,,,,,,,,,,,,22.001953125,-13.154296875,0,0,1,0.702818155289,,,,,2015_Sep_20_1307,A,facesParametric,10,59.5918947258,
./stim/MorphF4_00_orig.jpg,68,,,,,,,,,0,68,68,68,,,,,,,,,,,,,,,21.943359375,-13.154296875,0,0,1,0.635622024536,,,,,2015_Sep_20_1307,A,facesParametric,10,59.5918947258,
./stim/MorphF5_03_orig.jpg,69,,,,,,,,,0,69,69,69,,,,,,,,,,,,,,,21.826171875,-13.095703125,0,0,1,0.700807094574,,,,,2015_Sep_20_1307,A,facesParametric,10,59.5918947258,
./stim/MorphF8_00_orig.jpg,70,,,,,,,,,0,70,70,70,,,,,,,,,,,,,,,21.796875,-13.095703125,0,0,1,0.819212913513,,,,,2015_Sep_20_1307,A,facesParametric,10,59.5918947258,
./stim/MorphM3_05_orig.jpg,71,,,,,,,,,0,71,71,71,,,,,,,,,,,,,,,21.796875,-13.095703125,1,0,0,0.769804000854,,,,,2015_Sep_20_1307,A,facesParametric,10,59.5918947258,
./stim/MorphM7_01_orig.jpg,72,,,,,,,,,0,72,72,72,,,,,,,,,,,,,,,21.708984375,-13.125,0,0,1,1.3892788887,,,,,2015_Sep_20_1307,A,facesParametric,10,59.5918947258,
./stim/MorphM5_05_orig.jpg,73,,,,,,,,,0,73,73,73,,,,,,,,,,,,,,,21.591796875,-13.06640625,0,0,1,10.7905170918,,,,,2015_Sep_20_1307,A,facesParametric,10,59.5918947258,
./stim/MorphF2_04_orig.jpg,74,,,,,,,,,0,74,74,74,,,,,,,,,,,,,,,21.474609375,-13.154296875,0,0,1,2.32684922218,,,,,2015_Sep_20_1307,A,facesParametric,10,59.5918947258,
./stim/MorphF8_09_orig.jpg,75,,,,,,,,,0,75,75,75,,,,,,,,,,,,,,,22.20703125,-11.77734375,1,0,0,3.1327829361,,,,,2015_Sep_20_1307,A,facesParametric,10,59.5918947258,
./stim/MorphF6_07_orig.jpg,76,,,,,,,,,0,76,76,76,,,,,,,,,,,,,,,22.529296875,-12.392578125,1,0,0,0.651789903641,,,,,2015_Sep_20_1307,A,facesParametric,10,59.5918947258,
./stim/MorphM6_02_orig.jpg,77,,,,,,,,,0,77,77,77,,,,,,,,,,,,,,,22.587890625,-12.59765625,0,0,1,0.770215034485,,,,,2015_Sep_20_1307,A,facesParametric,10,59.5918947258,
./stim/MorphF10_06_orig.jpg,78,,,,,,,,,0,78,78,78,,,,,,,,,,,,,,,22.587890625,-12.626953125,1,0,0,0.616615056992,,,,,2015_Sep_20_1307,A,facesParametric,10,59.5918947258,
./stim/MorphF5_07_orig.jpg,79,,,,,,,,,0,79,79,79,,,,,,,,,,,,,,,22.705078125,-12.890625,1,0,0,1.40405893326,,,,,2015_Sep_20_1307,A,facesParametric,10,59.5918947258,
./stim/MorphF2_08_orig.jpg,80,,,,,,,,,0,80,80,80,,,,,,,,,,,,,,,22.646484375,-12.94921875,1,0,0,1.13647794724,,,,,2015_Sep_20_1307,A,facesParametric,10,59.5918947258,
./stim/MorphM1_03_orig.jpg,81,,,,,,,,,0,81,81,81,,,,,,,,,,,,,,,22.763671875,-12.94921875,0,0,1,4.40425395966,,,,,2015_Sep_20_1307,A,facesParametric,10,59.5918947258,
./stim/MorphM8_08_orig.jpg,82,,,,,,,,,0,82,82,82,,,,,,,,,,,,,,,22.822265625,-13.0078125,1,0,0,0.668338060379,,,,,2015_Sep_20_1307,A,facesParametric,10,59.5918947258,
./stim/MorphF7_09_orig.jpg,83,,,,,,,,,0,83,83,83,,,,,,,,,,,,,,,22.939453125,-13.06640625,1,0,0,0.702727079391,,,,,2015_Sep_20_1307,A,facesParametric,10,59.5918947258,
./stim/MorphM2_05_orig.jpg,84,,,,,,,,,0,84,84,84,,,,,,,,,,,,,,,22.8515625,-13.06640625,0,0,1,5.09356188774,,,,,2015_Sep_20_1307,A,facesParametric,10,59.5918947258,
./stim/MorphM4_05_orig.jpg,85,,,,,,,,,0,85,85,85,,,,,,,,,,,,,,,22.880859375,-13.037109375,0,0,1,1.03779697418,,,,,2015_Sep_20_1307,A,facesParametric,10,59.5918947258,
./stim/MorphF1_05_orig.jpg,86,,,,,,,,,0,86,86,86,,,,,,,,,,,,,,,22.939453125,-12.978515625,0,0,1,4.74057197571,,,,,2015_Sep_20_1307,A,facesParametric,10,59.5918947258,
./stim/MorphM2_04_orig.jpg,87,,,,,,,,,0,87,87,87,,,,,,,,,,,,,,,23.056640625,-12.890625,0,0,1,0.835958003998,,,,,2015_Sep_20_1307,A,facesParametric,10,59.5918947258,
./stim/MorphM10_05_orig.jpg,88,,,,,,,,,0,88,88,88,,,,,,,,,,,,,,,23.115234375,-12.919921875,1,0,0,0.534770965576,,,,,2015_Sep_20_1307,A,facesParametric,10,59.5918947258,
./stim/MorphM9_10_orig.jpg,89,,,,,,,,,0,89,89,89,,,,,,,,,,,,,,,23.3203125,-12.861328125,1,0,0,0.719587087631,,,,,2015_Sep_20_1307,A,facesParametric,10,59.5918947258,
./stim/MorphF5_10_orig.jpg,90,,,,,,,,,0,90,90,90,,,,,,,,,,,,,,,23.408203125,-12.94921875,1,0,0,0.602174043655,,,,,2015_Sep_20_1307,A,facesParametric,10,59.5918947258,
./stim/MorphF9_02_orig.jpg,91,,,,,,,,,0,91,91,91,,,,,,,,,,,,,,,23.3203125,-13.095703125,0,0,1,1.20548701286,,,,,2015_Sep_20_1307,A,facesParametric,10,59.5918947258,
./stim/MorphM4_01_orig.jpg,92,,,,,,,,,0,92,92,92,,,,,,,,,,,,,,,23.37890625,-13.125,0,0,1,0.918789863586,,,,,2015_Sep_20_1307,A,facesParametric,10,59.5918947258,
./stim/MorphM10_09_orig.jpg,93,,,,,,,,,0,93,93,93,,,,,,,,,,,,,,,23.37890625,-13.154296875,1,0,0,0.518237113953,,,,,2015_Sep_20_1307,A,facesParametric,10,59.5918947258,
./stim/MorphM7_04_orig.jpg,94,,,,,,,,,0,94,94,94,,,,,,,,,,,,,,,23.408203125,-13.125,1,0,0,1.38997006416,,,,,2015_Sep_20_1307,A,facesParametric,10,59.5918947258,
./stim/MorphF10_00_orig.jpg,95,,,,,,,,,0,95,95,95,,,,,,,,,,,,,,,23.349609375,-13.154296875,1,0,0,0.652268886566,,,,,2015_Sep_20_1307,A,facesParametric,10,59.5918947258,
./stim/MorphF3_07_orig.jpg,96,,,,,,,,,0,96,96,96,,,,,,,,,,,,,,,23.37890625,-13.125,1,0,0,0.652281999588,,,,,2015_Sep_20_1307,A,facesParametric,10,59.5918947258,
./stim/MorphM5_01_orig.jpg,97,,,,,,,,,0,97,97,97,,,,,,,,,,,,,,,23.408203125,-13.154296875,0,0,1,1.18808197975,,,,,2015_Sep_20_1307,A,facesParametric,10,59.5918947258,
./stim/MorphM9_08_orig.jpg,98,,,,,,,,,0,98,98,98,,,,,,,,,,,,,,,23.408203125,-13.154296875,1,0,0,2.54611706734,,,,,2015_Sep_20_1307,A,facesParametric,10,59.5918947258,
./stim/MorphM2_10_orig.jpg,99,,,,,,,,,0,99,99,99,,,,,,,,,,,,,,,23.408203125,-13.154296875,1,0,0,0.786411046982,,,,,2015_Sep_20_1307,A,facesParametric,10,59.5918947258,
./stim/MorphM8_05_orig.jpg,100,,,,,,,,,0,100,100,100,,,,,,,,,,,,,,,23.37890625,-13.125,0,0,1,0.887153148651,,,,,2015_Sep_20_1307,A,facesParametric,10,59.5918947258,
./stim/MorphM1_06_orig.jpg,101,,,,,,,,,0,101,101,101,,,,,,,,,,,,,,,23.37890625,-13.154296875,1,0,0,1.02128100395,,,,,2015_Sep_20_1307,A,facesParametric,10,59.5918947258,
./stim/MorphM7_09_orig.jpg,102,,,,,,,,,0,102,102,102,,,,,,,,,,,,,,,23.37890625,-13.095703125,1,0,0,0.651167154312,,,,,2015_Sep_20_1307,A,facesParametric,10,59.5918947258,
./stim/MorphF8_08_orig.jpg,103,,,,,,,,,0,103,103,103,,,,,,,,,,,,,,,23.3203125,-13.06640625,1,0,0,0.636037826538,,,,,2015_Sep_20_1307,A,facesParametric,10,59.5918947258,
./stim/MorphM8_00_orig.jpg,104,,,,,,,,,0,104,104,104,,,,,,,,,,,,,,,23.056640625,-12.978515625,0,0,1,1.97645401955,,,,,2015_Sep_20_1307,A,facesParametric,10,59.5918947258,
./stim/MorphF1_10_orig.jpg,105,,,,,,,,,0,105,105,105,,,,,,,,,,,,,,,23.0859375,-13.037109375,1,0,0,4.28817820549,,,,,2015_Sep_20_1307,A,facesParametric,10,59.5918947258,
./stim/MorphM10_03_orig.jpg,106,,,,,,,,,0,106,106,106,,,,,,,,,,,,,,,23.203125,-13.037109375,1,0,0,0.551787137985,,,,,2015_Sep_20_1307,A,facesParametric,10,59.5918947258,
./stim/MorphM3_09_orig.jpg,107,,,,,,,,,0,107,107,107,,,,,,,,,,,,,,,23.26171875,-13.095703125,1,0,0,1.57395505905,,,,,2015_Sep_20_1307,A,facesParametric,10,59.5918947258,
./stim/MorphM9_03_orig.jpg,108,,,,,,,,,0,108,108,108,,,,,,,,,,,,,,,23.3203125,-13.154296875,0,0,1,1.59056091309,,,,,2015_Sep_20_1307,A,facesParametric,10,59.5918947258,
./stim/MorphF5_08_orig.jpg,109,,,,,,,,,0,109,109,109,,,,,,,,,,,,,,,23.349609375,-13.154296875,1,0,0,1.13943099976,,,,,2015_Sep_20_1307,A,facesParametric,10,59.5918947258,
./stim/MorphM10_02_orig.jpg,110,,,,,,,,,0,110,110,110,,,,,,,,,,,,,,,23.232421875,-12.71484375,0,0,1,6.06487488747,,,,,2015_Sep_20_1307,A,facesParametric,10,59.5918947258,
./stim/MorphM3_02_orig.jpg,111,,,,,,,,,0,111,111,111,,,,,,,,,,,,,,,23.26171875,-12.94921875,1,0,0,0.686002969742,,,,,2015_Sep_20_1307,A,facesParametric,10,59.5918947258,
./stim/MorphF2_06_orig.jpg,112,,,,,,,,,0,112,112,112,,,,,,,,,,,,,,,15.029296875,-13.095703125,0,0,1,21.5181679726,,,,,2015_Sep_20_1307,A,facesParametric,10,59.5918947258,
./stim/MorphM7_02_orig.jpg,113,,,,,,,,,0,113,113,113,,,,,,,,,,,,,,,18.22265625,-13.0078125,0,0,1,0.87070608139,,,,,2015_Sep_20_1307,A,facesParametric,10,59.5918947258,
./stim/MorphF2_03_orig.jpg,114,,,,,,,,,0,114,114,114,,,,,,,,,,,,,,,18.369140625,-13.06640625,0,0,1,1.07008910179,,,,,2015_Sep_20_1307,A,facesParametric,10,59.5918947258,
./stim/MorphF7_07_orig.jpg,115,,,,,,,,,0,115,115,115,,,,,,,,,,,,,,,18.251953125,-13.154296875,1,0,0,3.09706902504,,,,,2015_Sep_20_1307,A,facesParametric,10,59.5918947258,
./stim/MorphF4_06_orig.jpg,116,,,,,,,,,0,116,116,116,,,,,,,,,,,,,,,18.193359375,-13.125,0,0,1,0.702256202698,,,,,2015_Sep_20_1307,A,facesParametric,10,59.5918947258,
./stim/MorphF8_04_orig.jpg,117,,,,,,,,,0,117,117,117,,,,,,,,,,,,,,,18.193359375,-13.154296875,1,0,0,0.71846985817,,,,,2015_Sep_20_1307,A,facesParametric,10,59.5918947258,
./stim/MorphF5_06_orig.jpg,118,,,,,,,,,0,118,118,118,,,,,,,,,,,,,,,18.134765625,-13.154296875,1,0,0,0.769563913345,,,,,2015_Sep_20_1307,A,facesParametric,10,59.5918947258,
./stim/MorphF3_10_orig.jpg,119,,,,,,,,,0,119,119,119,,,,,,,,,,,,,,,18.1640625,-13.154296875,1,0,0,1.45453310013,,,,,2015_Sep_20_1307,A,facesParametric,10,59.5918947258,
./stim/MorphM2_06_orig.jpg,120,,,,,,,,,0,120,120,120,,,,,,,,,,,,,,,18.193359375,-13.154296875,0,0,1,1.07181096077,,,,,2015_Sep_20_1307,A,facesParametric,10,59.5918947258,
./stim/MorphF4_03_orig.jpg,121,,,,,,,,,0,121,121,121,,,,,,,,,,,,,,,18.193359375,-13.154296875,0,0,1,0.869451999664,,,,,2015_Sep_20_1307,A,facesParametric,10,59.5918947258,
./stim/MorphM6_00_orig.jpg,122,,,,,,,,,0,122,122,122,,,,,,,,,,,,,,,18.1640625,-13.125,0,0,1,0.787127971649,,,,,2015_Sep_20_1307,A,facesParametric,10,59.5918947258,
./stim/MorphF10_08_orig.jpg,123,,,,,,,,,0,123,123,123,,,,,,,,,,,,,,,18.1640625,-13.125,1,0,0,0.618183135986,,,,,2015_Sep_20_1307,A,facesParametric,10,59.5918947258,
./stim/MorphM9_07_orig.jpg,124,,,,,,,,,0,124,124,124,,,,,,,,,,,,,,,18.076171875,-13.154296875,1,0,0,1.12175893784,,,,,2015_Sep_20_1307,A,facesParametric,10,59.5918947258,
./stim/MorphM6_03_orig.jpg,125,,,,,,,,,0,125,125,125,,,,,,,,,,,,,,,18.046875,-13.154296875,0,0,1,1.5241727829,,,,,2015_Sep_20_1307,A,facesParametric,10,59.5918947258,
./stim/MorphF6_00_orig.jpg,126,,,,,,,,,0,126,126,126,,,,,,,,,,,,,,,18.076171875,-13.154296875,0,0,1,0.802676916122,,,,,2015_Sep_20_1307,A,facesParametric,10,59.5918947258,
./stim/MorphF2_09_orig.jpg,127,,,,,,,,,0,127,127,127,,,,,,,,,,,,,,,18.10546875,-13.125,1,0,0,1.07128500938,,,,,2015_Sep_20_1307,A,facesParametric,10,59.5918947258,
./stim/MorphF4_04_orig.jpg,128,,,,,,,,,0,128,128,128,,,,,,,,,,,,,,,18.134765625,-13.154296875,0,0,1,3.06464099884,,,,,2015_Sep_20_1307,A,facesParametric,10,59.5918947258,
./stim/MorphF3_09_orig.jpg,129,,,,,,,,,0,129,129,129,,,,,,,,,,,,,,,18.134765625,-13.154296875,1,0,0,0.618858098984,,,,,2015_Sep_20_1307,A,facesParametric,10,59.5918947258,
./stim/MorphF7_05_orig.jpg,130,,,,,,,,,0,130,130,130,,,,,,,,,,,,,,,18.193359375,-13.095703125,1,0,0,1.65813803673,,,,,2015_Sep_20_1307,A,facesParametric,10,59.5918947258,
./stim/MorphF10_04_orig.jpg,131,,,,,,,,,0,131,131,131,,,,,,,,,,,,,,,18.193359375,-13.095703125,1,0,0,0.585762023926,,,,,2015_Sep_20_1307,A,facesParametric,10,59.5918947258,
./stim/MorphM5_07_orig.jpg,132,,,,,,,,,0,132,132,132,,,,,,,,,,,,,,,18.193359375,-13.095703125,1,0,0,2.56268811226,,,,,2015_Sep_20_1307,A,facesParametric,10,59.5918947258,
./stim/MorphF8_02_orig.jpg,133,,,,,,,,,0,133,133,133,,,,,,,,,,,,,,,18.193359375,-13.0078125,0,0,1,4.07152795792,,,,,2015_Sep_20_1307,A,facesParametric,10,59.5918947258,
./stim/MorphM5_02_orig.jpg,134,,,,,,,,,0,134,134,134,,,,,,,,,,,,,,,12.59765625,-6.97265625,0,0,1,7.00453901291,,,,,2015_Sep_20_1307,A,facesParametric,10,59.5918947258,
./stim/MorphF1_01_orig.jpg,135,,,,,,,,,0,135,135,135,,,,,,,,,,,,,,,13.2421875,-7.353515625,0,0,1,0.685458898544,,,,,2015_Sep_20_1307,A,facesParametric,10,59.5918947258,
./stim/MorphF4_05_orig.jpg,136,,,,,,,,,0,136,136,136,,,,,,,,,,,,,,,13.18359375,-7.3828125,0,0,1,0.719599962234,,,,,2015_Sep_20_1307,A,facesParametric,10,59.5918947258,
./stim/MorphF2_10_orig.jpg,137,,,,,,,,,0,137,137,137,,,,,,,,,,,,,,,13.06640625,-7.470703125,1,0,0,0.686077833176,,,,,2015_Sep_20_1307,A,facesParametric,10,59.5918947258,
./stim/MorphM3_00_orig.jpg,138,,,,,,,,,0,138,138,138,,,,,,,,,,,,,,,13.06640625,-7.6171875,1,0,0,0.753183841705,,,,,2015_Sep_20_1307,A,facesParametric,10,59.5918947258,
./stim/MorphM5_06_orig.jpg,139,,,,,,,,,0,139,139,139,,,,,,,,,,,,,,,13.095703125,-7.705078125,1,0,0,1.80706095695,,,,,2015_Sep_20_1307,A,facesParametric,10,59.5918947258,
./stim/MorphF2_01_orig.jpg,140,,,,,,,,,0,140,140,140,,,,,,,,,,,,,,,13.06640625,-7.763671875,0,0,1,1.1717569828,,,,,2015_Sep_20_1307,A,facesParametric,10,59.5918947258,
./stim/MorphM6_05_orig.jpg,141,,,,,,,,,0,141,141,141,,,,,,,,,,,,,,,13.06640625,-7.822265625,0,0,1,1.32309508324,,,,,2015_Sep_20_1307,A,facesParametric,10,59.5918947258,
./stim/MorphM8_10_orig.jpg,142,,,,,,,,,0,142,142,142,,,,,,,,,,,,,,,13.037109375,-7.8515625,1,0,0,0.551584005356,,,,,2015_Sep_20_1307,A,facesParametric,10,59.5918947258,
./stim/MorphM4_02_orig.jpg,143,,,,,,,,,0,143,143,143,,,,,,,,,,,,,,,12.978515625,-7.822265625,0,0,1,0.751679897308,,,,,2015_Sep_20_1307,A,facesParametric,10,59.5918947258,
./stim/MorphM5_03_orig.jpg,144,,,,,,,,,0,144,144,144,,,,,,,,,,,,,,,12.978515625,-7.822265625,0,0,1,1.75872206688,,,,,2015_Sep_20_1307,A,facesParametric,10,59.5918947258,
./stim/MorphM6_08_orig.jpg,145,,,,,,,,,0,145,145,145,,,,,,,,,,,,,,,13.0078125,-7.763671875,1,0,0,2.66279578209,,,,,2015_Sep_20_1307,A,facesParametric,10,59.5918947258,
./stim/MorphF6_02_orig.jpg,146,,,,,,,,,0,146,146,146,,,,,,,,,,,,,,,12.94921875,-7.91015625,0,0,1,0.803681135178,,,,,2015_Sep_20_1307,A,facesParametric,10,59.5918947258,
./stim/MorphM6_04_orig.jpg,147,,,,,,,,,0,147,147,147,,,,,,,,,,,,,,,12.890625,-7.96875,0,0,1,2.1094648838,,,,,2015_Sep_20_1307,A,facesParametric,10,59.5918947258,
./stim/MorphM9_05_orig.jpg,148,,,,,,,,,0,148,148,148,,,,,,,,,,,,,,,12.890625,-8.02734375,0,0,1,2.7983250618,,,,,2015_Sep_20_1307,A,facesParametric,10,59.5918947258,
./stim/MorphF8_06_orig.jpg,149,,,,,,,,,0,149,149,149,,,,,,,,,,,,,,,12.919921875,-8.115234375,1,0,0,0.602142095566,,,,,2015_Sep_20_1307,A,facesParametric,10,59.5918947258,
./stim/MorphM1_02_orig.jpg,150,,,,,,,,,0,150,150,150,,,,,,,,,,,,,,,12.890625,-8.0859375,0,0,1,1.18849611282,,,,,2015_Sep_20_1307,A,facesParametric,10,59.5918947258,
./stim/MorphF3_00_orig.jpg,151,,,,,,,,,0,151,151,151,,,,,,,,,,,,,,,12.890625,-8.14453125,0,0,1,0.601001977921,,,,,2015_Sep_20_1307,A,facesParametric,10,59.5918947258,
./stim/MorphF10_02_orig.jpg,152,,,,,,,,,0,152,152,152,,,,,,,,,,,,,,,12.890625,-8.203125,0,0,1,0.735929012299,,,,,2015_Sep_20_1307,A,facesParametric,10,59.5918947258,
./stim/MorphF4_07_orig.jpg,153,,,,,,,,,0,153,153,153,,,,,,,,,,,,,,,12.919921875,-8.26171875,1,0,0,2.67921590805,,,,,2015_Sep_20_1307,A,facesParametric,10,59.5918947258,
./stim/MorphM2_09_orig.jpg,154,,,,,,,,,0,154,154,154,,,,,,,,,,,,,,,12.94921875,-8.349609375,1,0,0,0.685628890991,,,,,2015_Sep_20_1307,A,facesParametric,10,59.5918947258,
./stim/MorphF1_02_orig.jpg,155,,,,,,,,,0,155,155,155,,,,,,,,,,,,,,,13.06640625,-8.466796875,0,0,1,4.25571608543,,,,,2015_Sep_20_1307,A,facesParametric,10,59.5918947258,
./stim/MorphF7_06_orig.jpg,156,,,,,,,,,0,156,156,156,,,,,,,,,,,,,,,13.06640625,-8.5546875,1,0,0,0.971575021744,,,,,2015_Sep_20_1307,A,facesParametric,10,59.5918947258,
./stim/MorphM3_03_orig.jpg,157,,,,,,,,,0,157,157,157,,,,,,,,,,,,,,,13.0078125,-8.73046875,1,0,0,0.70175909996,,,,,2015_Sep_20_1307,A,facesParametric,10,59.5918947258,
./stim/MorphM7_03_orig.jpg,158,,,,,,,,,0,158,158,158,,,,,,,,,,,,,,,12.626953125,-8.759765625,1,0,0,8.27838897705,,,,,2015_Sep_20_1307,A,facesParametric,10,59.5918947258,
./stim/MorphM2_08_orig.jpg,159,,,,,,,,,0,159,159,159,,,,,,,,,,,,,,,12.65625,-8.7890625,1,0,0,0.668926000595,,,,,2015_Sep_20_1307,A,facesParametric,10,59.5918947258,
./stim/MorphF5_01_orig.jpg,160,,,,,,,,,0,160,160,160,,,,,,,,,,,,,,,12.65625,-8.7890625,0,0,1,0.98663187027,,,,,2015_Sep_20_1307,A,facesParametric,10,59.5918947258,
./stim/MorphF8_07_orig.jpg,161,,,,,,,,,0,161,161,161,,,,,,,,,,,,,,,12.802734375,-8.73046875,1,0,0,1.06970191002,,,,,2015_Sep_20_1307,A,facesParametric,10,59.5918947258,
./stim/MorphM4_00_orig.jpg,162,,,,,,,,,0,162,162,162,,,,,,,,,,,,,,,12.744140625,-8.671875,0,0,1,0.936988115311,,,,,2015_Sep_20_1307,A,facesParametric,10,59.5918947258,
./stim/MorphM7_10_orig.jpg,163,,,,,,,,,0,163,163,163,,,,,,,,,,,,,,,12.802734375,-8.642578125,1,0,0,0.786945819855,,,,,2015_Sep_20_1307,A,facesParametric,10,59.5918947258,
./stim/MorphM1_01_orig.jpg,164,,,,,,,,,0,164,164,164,,,,,,,,,,,,,,,12.861328125,-8.701171875,0,0,1,2.10973095894,,,,,2015_Sep_20_1307,A,facesParametric,10,59.5918947258,
./stim/MorphM8_01_orig.jpg,165,,,,,,,,,0,165,165,165,,,,,,,,,,,,,,,12.7734375,-8.701171875,1,0,0,1.74147295952,,,,,2015_Sep_20_1307,A,facesParametric,10,59.5918947258,
./stim/MorphM10_04_orig.jpg,166,,,,,,,,,0,166,166,166,,,,,,,,,,,,,,,12.744140625,-8.7890625,1,0,0,0.702639818192,,,,,2015_Sep_20_1307,A,facesParametric,10,59.5918947258,
./stim/MorphF10_07_orig.jpg,167,,,,,,,,,0,167,167,167,,,,,,,,,,,,,,,12.744140625,-8.818359375,1,0,0,0.636066913605,,,,,2015_Sep_20_1307,A,facesParametric,10,59.5918947258,
./stim/MorphM5_00_orig.jpg,168,,,,,,,,,0,168,168,168,,,,,,,,,,,,,,,12.744140625,-8.90625,0,0,1,1.94308519363,,,,,2015_Sep_20_1307,A,facesParametric,10,59.5918947258,
./stim/MorphF1_06_orig.jpg,169,,,,,,,,,0,169,169,169,,,,,,,,,,,,,,,12.685546875,-8.818359375,0,0,1,2.6463830471,,,,,2015_Sep_20_1307,A,facesParametric,10,59.5918947258,
./stim/MorphF8_05_orig.jpg,170,,,,,,,,,0,170,170,170,,,,,,,,,,,,,,,12.626953125,-8.84765625,1,0,0,0.887213945389,,,,,2015_Sep_20_1307,A,facesParametric,10,59.5918947258,
./stim/MorphM9_00_orig.jpg,171,,,,,,,,,0,171,171,171,,,,,,,,,,,,,,,12.685546875,-8.96484375,0,0,1,1.9253590107,,,,,2015_Sep_20_1307,A,facesParametric,10,59.5918947258,
./stim/MorphF5_04_orig.jpg,172,,,,,,,,,0,172,172,172,,,,,,,,,,,,,,,12.71484375,-9.08203125,1,0,0,3.78612804413,,,,,2015_Sep_20_1307,A,facesParametric,10,59.5918947258,
./stim/MorphM7_05_orig.jpg,173,,,,,,,,,0,173,173,173,,,,,,,,,,,,,,,12.685546875,-9.169921875,1,0,0,0.686769008636,,,,,2015_Sep_20_1307,A,facesParametric,10,59.5918947258,
./stim/MorphM8_04_orig.jpg,174,,,,,,,,,0,174,174,174,,,,,,,,,,,,,,,12.744140625,-9.140625,1,0,0,1.10407781601,,,,,2015_Sep_20_1307,A,facesParametric,10,59.5918947258,
./stim/MorphF10_01_orig.jpg,175,,,,,,,,,0,175,175,175,,,,,,,,,,,,,,,12.744140625,-9.169921875,1,0,0,1.03788495064,,,,,2015_Sep_20_1307,A,facesParametric,10,59.5918947258,
./stim/MorphF2_05_orig.jpg,176,,,,,,,,,0,176,176,176,,,,,,,,,,,,,,,12.626953125,-9.111328125,0,0,1,6.03225708008,,,,,2015_Sep_20_1307,A,facesParametric,10,59.5918947258,
./stim/MorphM5_08_orig.jpg,177,,,,,,,,,0,177,177,177,,,,,,,,,,,,,,,13.095703125,-9.169921875,1,0,0,3.86852502823,,,,,2015_Sep_20_1307,A,facesParametric,10,59.5918947258,
./stim/MorphF5_02_orig.jpg,178,,,,,,,,,0,178,178,178,,,,,,,,,,,,,,,13.095703125,-9.287109375,0,0,1,0.886225938797,,,,,2015_Sep_20_1307,A,facesParametric,10,59.5918947258,
./stim/MorphF7_01_orig.jpg,179,,,,,,,,,0,179,179,179,,,,,,,,,,,,,,,13.095703125,-9.375,0,0,1,2.84668016434,,,,,2015_Sep_20_1307,A,facesParametric,10,59.5918947258,
./stim/MorphF6_01_orig.jpg,180,,,,,,,,,0,180,180,180,,,,,,,,,,,,,,,13.18359375,-9.462890625,0,0,1,0.937304019928,,,,,2015_Sep_20_1307,A,facesParametric,10,59.5918947258,
./stim/MorphF8_10_orig.jpg,181,,,,,,,,,0,181,181,181,,,,,,,,,,,,,,,13.2421875,-9.697265625,1,0,0,0.802513122559,,,,,2015_Sep_20_1307,A,facesParametric,10,59.5918947258,
./stim/MorphF6_03_orig.jpg,182,,,,,,,,,0,182,182,182,,,,,,,,,,,,,,,13.095703125,-9.580078125,0,0,1,6.449477911,,,,,2015_Sep_20_1307,A,facesParametric,10,59.5918947258,
./stim/MorphF1_09_orig.jpg,183,,,,,,,,,0,183,183,183,,,,,,,,,,,,,,,13.212890625,-10.48828125,1,0,0,6.16466093063,,,,,2015_Sep_20_1307,A,facesParametric,10,59.5918947258,
./stim/MorphM10_01_orig.jpg,184,,,,,,,,,0,184,184,184,,,,,,,,,,,,,,,13.125,-10.517578125,0,0,1,0.700798034668,,,,,2015_Sep_20_1307,A,facesParametric,10,59.5918947258,
./stim/MorphM1_04_orig.jpg,185,,,,,,,,,0,185,185,185,,,,,,,,,,,,,,,12.94921875,-10.60546875,1,0,0,0.851581811905,,,,,2015_Sep_20_1307,A,facesParametric,10,59.5918947258,
./stim/MorphF8_03_orig.jpg,186,,,,,,,,,0,186,186,186,,,,,,,,,,,,,,,12.890625,-10.546875,0,0,1,2.57960009575,,,,,2015_Sep_20_1307,A,facesParametric,10,59.5918947258,
./stim/MorphF7_02_orig.jpg,187,,,,,,,,,0,187,187,187,,,,,,,,,,,,,,,12.919921875,-10.634765625,0,0,1,1.35707306862,,,,,2015_Sep_20_1307,A,facesParametric,10,59.5918947258,
./stim/MorphM6_01_orig.jpg,188,,,,,,,,,0,188,188,188,,,,,,,,,,,,,,,13.212890625,-10.6640625,0,0,1,1.20439600945,,,,,2015_Sep_20_1307,A,facesParametric,10,59.5918947258,
./stim/MorphM7_00_orig.jpg,189,,,,,,,,,0,189,189,189,,,,,,,,,,,,,,,13.212890625,-10.751953125,0,0,1,1.43795895576,,,,,2015_Sep_20_1307,A,facesParametric,10,59.5918947258,
./stim/MorphF6_08_orig.jpg,190,,,,,,,,,0,190,190,190,,,,,,,,,,,,,,,13.18359375,-10.810546875,1,0,0,0.988062858582,,,,,2015_Sep_20_1307,A,facesParametric,10,59.5918947258,
./stim/MorphM9_09_orig.jpg,191,,,,,,,,,0,191,191,191,,,,,,,,,,,,,,,13.154296875,-10.751953125,1,0,0,0.752542972565,,,,,2015_Sep_20_1307,A,facesParametric,10,59.5918947258,
./stim/MorphF5_00_orig.jpg,192,,,,,,,,,0,192,192,192,,,,,,,,,,,,,,,13.06640625,-10.751953125,0,0,1,0.667707920074,,,,,2015_Sep_20_1307,A,facesParametric,10,59.5918947258,
./stim/MorphM9_04_orig.jpg,193,,,,,,,,,0,193,193,193,,,,,,,,,,,,,,,13.59375,-10.83984375,0,0,1,0.886531829834,,,,,2015_Sep_20_1307,A,facesParametric,10,59.5918947258,
./stim/MorphM4_09_orig.jpg,194,,,,,,,,,0,194,194,194,,,,,,,,,,,,,,,13.623046875,-10.95703125,1,0,0,0.702456951141,,,,,2015_Sep_20_1307,A,facesParametric,10,59.5918947258,
./stim/MorphF2_02_orig.jpg,195,,,,,,,,,0,195,195,195,,,,,,,,,,,,,,,13.65234375,-10.869140625,0,0,1,1.95959591866,,,,,2015_Sep_20_1307,A,facesParametric,10,59.5918947258,
./stim/MorphF9_09_orig.jpg,196,,,,,,,,,0,196,196,196,,,,,,,,,,,,,,,13.681640625,-10.95703125,1,0,0,1.07033920288,,,,,2015_Sep_20_1307,A,facesParametric,10,59.5918947258,
./stim/MorphF3_04_orig.jpg,197,,,,,,,,,0,197,197,197,,,,,,,,,,,,,,,13.76953125,-10.927734375,0,0,1,1.11896109581,,,,,2015_Sep_20_1307,A,facesParametric,10,59.5918947258,
./stim/MorphM3_08_orig.jpg,198,,,,,,,,,0,198,198,198,,,,,,,,,,,,,,,13.740234375,-10.927734375,1,0,0,0.668946027756,,,,,2015_Sep_20_1307,A,facesParametric,10,59.5918947258,
./stim/MorphF7_04_orig.jpg,199,,,,,,,,,0,199,199,199,,,,,,,,,,,,,,,13.76953125,-10.927734375,1,0,0,1.00425601006,,,,,2015_Sep_20_1307,A,facesParametric,10,59.5918947258,
./stim/MorphM8_06_orig.jpg,200,,,,,,,,,0,200,200,200,,,,,,,,,,,,,,,13.740234375,-11.19140625,1,0,0,0.736088991165,,,,,2015_Sep_20_1307,A,facesParametric,10,59.5918947258,
./stim/MorphF9_05_orig.jpg,201,,,,,,,,,0,201,201,201,,,,,,,,,,,,,,,13.7109375,-10.927734375,0,0,1,6.01472806931,,,,,2015_Sep_20_1307,A,facesParametric,10,59.5918947258,
./stim/MorphM2_00_orig.jpg,202,,,,,,,,,0,202,202,202,,,,,,,,,,,,,,,13.740234375,-11.015625,0,0,1,0.753324985504,,,,,2015_Sep_20_1307,A,facesParametric,10,59.5918947258,
./stim/MorphF1_03_orig.jpg,203,,,,,,,,,0,203,203,203,,,,,,,,,,,,,,,13.681640625,-11.044921875,0,0,1,0.685000896454,,,,,2015_Sep_20_1307,A,facesParametric,10,59.5918947258,
./stim/MorphM8_03_orig.jpg,204,,,,,,,,,0,204,204,204,,,,,,,,,,,,,,,13.7109375,-11.015625,0,0,1,0.652024030685,,,,,2015_Sep_20_1307,A,facesParametric,10,59.5918947258,
./stim/MorphF2_00_orig.jpg,205,,,,,,,,,0,205,205,205,,,,,,,,,,,,,,,13.59375,-11.07421875,0,0,1,1.37104797363,,,,,2015_Sep_20_1307,A,facesParametric,10,59.5918947258,
./stim/MorphF10_05_orig.jpg,206,,,,,,,,,0,206,206,206,,,,,,,,,,,,,,,14.736328125,-11.162109375,1,0,0,0.569334983826,,,,,2015_Sep_20_1307,A,facesParametric,10,59.5918947258,
./stim/MorphM7_06_orig.jpg,207,,,,,,,,,0,207,207,207,,,,,,,,,,,,,,,14.794921875,-11.19140625,1,0,0,0.666441917419,,,,,2015_Sep_20_1307,A,facesParametric,10,59.5918947258,
./stim/MorphF1_04_orig.jpg,208,,,,,,,,,0,208,208,208,,,,,,,,,,,,,,,14.8828125,-11.07421875,0,0,1,1.44028306007,,,,,2015_Sep_20_1307,A,facesParametric,10,59.5918947258,
./stim/MorphF6_10_orig.jpg,209,,,,,,,,,0,209,209,209,,,,,,,,,,,,,,,14.912109375,-11.103515625,1,0,0,0.667551994324,,,,,2015_Sep_20_1307,A,facesParametric,10,59.5918947258,
./stim/MorphF9_10_orig.jpg,210,,,,,,,,,0,210,210,210,,,,,,,,,,,,,,,15.0,-11.1328125,1,0,0,0.937146902084,,,,,2015_Sep_20_1307,A,facesParametric,10,59.5918947258,
./stim/MorphM10_07_orig.jpg,211,,,,,,,,,0,211,211,211,,,,,,,,,,,,,,,14.94140625,-11.162109375,1,0,0,0.736088991165,,,,,2015_Sep_20_1307,A,facesParametric,10,59.5918947258,
./stim/MorphM4_06_orig.jpg,212,,,,,,,,,0,212,212,212,,,,,,,,,,,,,,,15.0,-11.07421875,1,0,0,1.27252006531,,,,,2015_Sep_20_1307,A,facesParametric,10,59.5918947258,
./stim/MorphF4_09_orig.jpg,213,,,,,,,,,0,213,213,213,,,,,,,,,,,,,,,15.05859375,-11.044921875,1,0,0,1.38870501518,,,,,2015_Sep_20_1307,A,facesParametric,10,59.5918947258,
./stim/MorphM3_07_orig.jpg,214,,,,,,,,,0,214,214,214,,,,,,,,,,,,,,,15.087890625,-11.19140625,1,0,0,0.919428110123,,,,,2015_Sep_20_1307,A,facesParametric,10,59.5918947258,
./stim/MorphM10_10_orig.jpg,215,,,,,,,,,0,215,215,215,,,,,,,,,,,,,,,15.029296875,-11.19140625,1,0,0,0.753244876862,,,,,2015_Sep_20_1307,A,facesParametric,10,59.5918947258,
./stim/MorphF6_04_orig.jpg,216,,,,,,,,,0,216,216,216,,,,,,,,,,,,,,,14.853515625,-11.19140625,0,0,1,0.920589923859,,,,,2015_Sep_20_1307,A,facesParametric,10,59.5918947258,
./stim/MorphM1_07_orig.jpg,217,,,,,,,,,0,217,217,217,,,,,,,,,,,,,,,15.029296875,-10.95703125,1,0,0,10.2554900646,,,,,2015_Sep_20_1307,A,facesParametric,10,59.5918947258,
./stim/MorphM4_07_orig.jpg,218,,,,,,,,,0,218,218,218,,,,,,,,,,,,,,,14.970703125,-11.07421875,1,0,0,0.887356996536,,,,,2015_Sep_20_1307,A,facesParametric,10,59.5918947258,
./stim/MorphF4_01_orig.jpg,219,,,,,,,,,0,219,219,219,,,,,,,,,,,,,,,14.912109375,-11.162109375,0,0,1,1.15514683723,,,,,2015_Sep_20_1307,A,facesParametric,10,59.5918947258,
,,,,,,,,,,,,,,,,,,,,,,,,,,,,,,,,,,,,return,9.006098032,2015_Sep_20_1307,A,facesParametric,10,59.5918947258,
