img,num,basicLoop.thisRepN,basicLoop.thisTrialN,basicLoop.thisN,basicLoop.thisIndex,trials.thisRepN,trials.thisTrialN,trials.thisN,trials.thisIndex,trials2.thisRepN,trials2.thisTrialN,trials2.thisN,trials2.thisIndex,key_resp_2.keys,key_resp_2.rt,basicRating1.response,basicRating1.rt,basicRating2.response,basicRating2.rt,basicRating3.response,basicRating3.rt,basicRating4.response,basicRating4.rt,key_resp_3.keys,key_resp_3.rt,key_resp_4.keys,key_resp_4.rt,mouseResp.x,mouseResp.y,mouseResp.leftButton,mouseResp.midButton,mouseResp.rightButton,mouseResp.time,key_resp_5.keys,key_resp_5.rt,key_resp_7.keys,key_resp_7.rt,date,group,expName,participant,frameRate,
,,,,,,,,,,,,,,return,52.5248911381,,,,,,,,,,,,,,,,,,,,,,,2015_Sep_25_1753,A,facesParametric,11,59.712535022,
./basicStim/21M_NE_C.jpg,,0,0,0,48,,,,,,,,,,,None,None,None,None,DIS,11.241,None,None,,,,,,,,,,,,,,,2015_Sep_25_1753,A,facesParametric,11,59.712535022,
./basicStim/01F_SP_O.jpg,,0,1,1,5,,,,,,,,,,,None,None,None,None,SUP,7.601,None,None,,,,,,,,,,,,,,,2015_Sep_25_1753,A,facesParametric,11,59.712535022,
./basicStim/07F_SA_C.jpg,,0,2,2,32,,,,,,,,,,,SAD,4.064,None,None,None,None,None,None,,,,,,,,,,,,,,,2015_Sep_25_1753,A,facesParametric,11,59.712535022,
./basicStim/24M_NE_C.jpg,,0,3,3,62,,,,,,,,,,,None,None,None,None,SUP,9.624,None,None,,,,,,,,,,,,,,,2015_Sep_25_1753,A,facesParametric,11,59.712535022,
./basicStim/06F_NE_C.jpg,,0,4,4,27,,,,,,,,,,,None,None,None,None,None,None,NTR,6.389,,,,,,,,,,,,,,,2015_Sep_25_1753,A,facesParametric,11,59.712535022,
./basicStim/34M_NE_C.jpg,,0,5,5,76,,,,,,,,,,,None,None,None,None,None,None,NTR,5.7,,,,,,,,,,,,,,,2015_Sep_25_1753,A,facesParametric,11,59.712535022,
./basicStim/01F_HA_O.jpg,,0,6,6,3,,,,,,,,,,,HAP,1.854,None,None,None,None,None,None,,,,,,,,,,,,,,,2015_Sep_25_1753,A,facesParametric,11,59.712535022,
./basicStim/09F_FE_O.jpg,,0,7,7,37,,,,,,,,,,,None,None,FEA,5.139,None,None,None,None,,,,,,,,,,,,,,,2015_Sep_25_1753,A,facesParametric,11,59.712535022,
./basicStim/24M_DI_O.jpg,,0,8,8,57,,,,,,,,,,,SAD,4.129,None,None,None,None,None,None,,,,,,,,,,,,,,,2015_Sep_25_1753,A,facesParametric,11,59.712535022,
./basicStim/09F_SA_C.jpg,,0,9,9,39,,,,,,,,,,,None,None,ANG,2.954,None,None,None,None,,,,,,,,,,,,,,,2015_Sep_25_1753,A,facesParametric,11,59.712535022,
./basicStim/07F_HA_O.jpg,,0,10,10,31,,,,,,,,,,,HAP,2.404,None,None,None,None,None,None,,,,,,,,,,,,,,,2015_Sep_25_1753,A,facesParametric,11,59.712535022,
./basicStim/24M_SA_C.jpg,,0,11,11,60,,,,,,,,,,,SAD,3.024,None,None,None,None,None,None,,,,,,,,,,,,,,,2015_Sep_25_1753,A,facesParametric,11,59.712535022,
./basicStim/23M_DI_O.jpg,,0,12,12,50,,,,,,,,,,,None,None,None,None,DIS,2.75,None,None,,,,,,,,,,,,,,,2015_Sep_25_1753,A,facesParametric,11,59.712535022,
./basicStim/06F_AN_O.jpg,,0,13,13,21,,,,,,,,,,,None,None,ANG,3.021,None,None,None,None,,,,,,,,,,,,,,,2015_Sep_25_1753,A,facesParametric,11,59.712535022,
./basicStim/36M_SA_C.jpg,,0,14,14,81,,,,,,,,,,,SAD,5.151,None,None,None,None,None,None,,,,,,,,,,,,,,,2015_Sep_25_1753,A,facesParametric,11,59.712535022,
./basicStim/23M_AN_O.jpg,,0,15,15,49,,,,,,,,,,,None,None,ANG,7.61,None,None,None,None,,,,,,,,,,,,,,,2015_Sep_25_1753,A,facesParametric,11,59.712535022,
./basicStim/23M_SP_O.jpg,,0,16,16,54,,,,,,,,,,,None,None,None,None,SUP,2.934,None,None,,,,,,,,,,,,,,,2015_Sep_25_1753,A,facesParametric,11,59.712535022,
./basicStim/02F_SP_O.jpg,,0,17,17,12,,,,,,,,,,,None,None,None,None,SUP,4.7,None,None,,,,,,,,,,,,,,,2015_Sep_25_1753,A,facesParametric,11,59.712535022,
./basicStim/03F_HA_O.jpg,,0,18,18,17,,,,,,,,,,,HAP,3.943,None,None,None,None,None,None,,,,,,,,,,,,,,,2015_Sep_25_1753,A,facesParametric,11,59.712535022,
./basicStim/21M_HA_O.jpg,,0,19,19,45,,,,,,,,,,,HAP,1.631,None,None,None,None,None,None,,,,,,,,,,,,,,,2015_Sep_25_1753,A,facesParametric,11,59.712535022,
./basicStim/24M_AN_O.jpg,,0,20,20,56,,,,,,,,,,,None,None,ANG,2.255,None,None,None,None,,,,,,,,,,,,,,,2015_Sep_25_1753,A,facesParametric,11,59.712535022,
./basicStim/28M_FE_O.jpg,,0,21,21,65,,,,,,,,,,,None,None,None,None,SUP,5.403,None,None,,,,,,,,,,,,,,,2015_Sep_25_1753,A,facesParametric,11,59.712535022,
./basicStim/24M_SP_O.jpg,,0,22,22,61,,,,,,,,,,,None,None,None,None,SUP,11.466,None,None,,,,,,,,,,,,,,,2015_Sep_25_1753,A,facesParametric,11,59.712535022,
./basicStim/23M_SA_C.jpg,,0,23,23,53,,,,,,,,,,,SAD,3.993,None,None,None,None,None,None,,,,,,,,,,,,,,,2015_Sep_25_1753,A,facesParametric,11,59.712535022,
./basicStim/06F_HA_O.jpg,,0,24,24,24,,,,,,,,,,,HAP,1.869,None,None,None,None,None,None,,,,,,,,,,,,,,,2015_Sep_25_1753,A,facesParametric,11,59.712535022,
./basicStim/01F_SA_C.jpg,,0,25,25,4,,,,,,,,,,,None,None,None,None,DIS,6.603,None,None,,,,,,,,,,,,,,,2015_Sep_25_1753,A,facesParametric,11,59.712535022,
./basicStim/21M_FE_O.jpg,,0,26,26,44,,,,,,,,,,,None,None,FEA,2.634,None,None,None,None,,,,,,,,,,,,,,,2015_Sep_25_1753,A,facesParametric,11,59.712535022,
./basicStim/03F_SA_C.jpg,,0,27,27,18,,,,,,,,,,,SAD,3.224,None,None,None,None,None,None,,,,,,,,,,,,,,,2015_Sep_25_1753,A,facesParametric,11,59.712535022,
./basicStim/07F_NE_C.jpg,,0,28,28,34,,,,,,,,,,,None,None,None,None,SUP,5.13,None,None,,,,,,,,,,,,,,,2015_Sep_25_1753,A,facesParametric,11,59.712535022,
./basicStim/36M_FE_O.jpg,,0,29,29,79,,,,,,,,,,,None,None,FEA,1.929,None,None,None,None,,,,,,,,,,,,,,,2015_Sep_25_1753,A,facesParametric,11,59.712535022,
./basicStim/34M_DI_O.jpg,,0,30,30,71,,,,,,,,,,,None,None,None,None,DIS,1.66,None,None,,,,,,,,,,,,,,,2015_Sep_25_1753,A,facesParametric,11,59.712535022,
./basicStim/03F_DI_O.jpg,,0,31,31,15,,,,,,,,,,,None,None,None,None,DIS,0.655,None,None,,,,,,,,,,,,,,,2015_Sep_25_1753,A,facesParametric,11,59.712535022,
./basicStim/02F_AN_O.jpg,,0,32,32,7,,,,,,,,,,,None,None,ANG,1.721,None,None,None,None,,,,,,,,,,,,,,,2015_Sep_25_1753,A,facesParametric,11,59.712535022,
./basicStim/23M_NE_C.jpg,,0,33,33,55,,,,,,,,,,,None,None,None,None,None,None,NTR,3.972,,,,,,,,,,,,,,,2015_Sep_25_1753,A,facesParametric,11,59.712535022,
./basicStim/06F_DI_O.jpg,,0,34,34,22,,,,,,,,,,,None,None,None,None,DIS,1.595,None,None,,,,,,,,,,,,,,,2015_Sep_25_1753,A,facesParametric,11,59.712535022,
./basicStim/34M_HA_O.jpg,,0,35,35,73,,,,,,,,,,,HAP,1.365,None,None,None,None,None,None,,,,,,,,,,,,,,,2015_Sep_25_1753,A,facesParametric,11,59.712535022,
./basicStim/28M_AN_O.jpg,,0,36,36,63,,,,,,,,,,,None,None,None,None,DIS,3.554,None,None,,,,,,,,,,,,,,,2015_Sep_25_1753,A,facesParametric,11,59.712535022,
./basicStim/34M_SA_C.jpg,,0,37,37,74,,,,,,,,,,,SAD,1.815,None,None,None,None,None,None,,,,,,,,,,,,,,,2015_Sep_25_1753,A,facesParametric,11,59.712535022,
./basicStim/06F_FE_O.jpg,,0,38,38,23,,,,,,,,,,,None,None,FEA,1.261,None,None,None,None,,,,,,,,,,,,,,,2015_Sep_25_1753,A,facesParametric,11,59.712535022,
./basicStim/07F_DI_O.jpg,,0,39,39,29,,,,,,,,,,,None,None,None,None,DIS,1.156,None,None,,,,,,,,,,,,,,,2015_Sep_25_1753,A,facesParametric,11,59.712535022,
./basicStim/03F_AN_O.jpg,,0,40,40,14,,,,,,,,,,,None,None,ANG,1.58,None,None,None,None,,,,,,,,,,,,,,,2015_Sep_25_1753,A,facesParametric,11,59.712535022,
./basicStim/21M_SA_C.jpg,,0,41,41,46,,,,,,,,,,,None,None,None,None,DIS,6.455,None,None,,,,,,,,,,,,,,,2015_Sep_25_1753,A,facesParametric,11,59.712535022,
./basicStim/28M_HA_O.jpg,,0,42,42,66,,,,,,,,,,,HAP,1.515,None,None,None,None,None,None,,,,,,,,,,,,,,,2015_Sep_25_1753,A,facesParametric,11,59.712535022,
./basicStim/21M_DI_O.jpg,,0,43,43,43,,,,,,,,,,,None,None,None,None,DIS,1.798,None,None,,,,,,,,,,,,,,,2015_Sep_25_1753,A,facesParametric,11,59.712535022,
./basicStim/02F_NE_C.jpg,,0,44,44,13,,,,,,,,,,,None,None,None,None,None,None,NTR,8.451,,,,,,,,,,,,,,,2015_Sep_25_1753,A,facesParametric,11,59.712535022,
./basicStim/36M_HA_O.jpg,,0,45,45,80,,,,,,,,,,,HAP,1.802,None,None,None,None,None,None,,,,,,,,,,,,,,,2015_Sep_25_1753,A,facesParametric,11,59.712535022,
./basicStim/03F_SP_O.jpg,,0,46,46,19,,,,,,,,,,,HAP,0.674,None,None,None,None,None,None,,,,,,,,,,,,,,,2015_Sep_25_1753,A,facesParametric,11,59.712535022,
./basicStim/36M_SP_O.jpg,,0,47,47,82,,,,,,,,,,,None,None,None,None,SUP,4.157,None,None,,,,,,,,,,,,,,,2015_Sep_25_1753,A,facesParametric,11,59.712535022,
./basicStim/24M_FE_O.jpg,,0,48,48,58,,,,,,,,,,,None,None,FEA,1.278,None,None,None,None,,,,,,,,,,,,,,,2015_Sep_25_1753,A,facesParametric,11,59.712535022,
./basicStim/28M_DI_O.jpg,,0,49,49,64,,,,,,,,,,,None,None,None,None,DIS,2.632,None,None,,,,,,,,,,,,,,,2015_Sep_25_1753,A,facesParametric,11,59.712535022,
./basicStim/36M_DI_O.jpg,,0,50,50,78,,,,,,,,,,,None,None,None,None,DIS,0.943,None,None,,,,,,,,,,,,,,,2015_Sep_25_1753,A,facesParametric,11,59.712535022,
./basicStim/07F_FE_O.jpg,,0,51,51,30,,,,,,,,,,,None,None,FEA,3.329,None,None,None,None,,,,,,,,,,,,,,,2015_Sep_25_1753,A,facesParametric,11,59.712535022,
./basicStim/01F_NE_C.jpg,,0,52,52,6,,,,,,,,,,,None,None,None,None,None,None,NTR,1.88,,,,,,,,,,,,,,,2015_Sep_25_1753,A,facesParametric,11,59.712535022,
./basicStim/09F_DI_O.jpg,,0,53,53,36,,,,,,,,,,,None,None,None,None,DIS,1.207,None,None,,,,,,,,,,,,,,,2015_Sep_25_1753,A,facesParametric,11,59.712535022,
./basicStim/02F_HA_O.jpg,,0,54,54,10,,,,,,,,,,,HAP,1.379,None,None,None,None,None,None,,,,,,,,,,,,,,,2015_Sep_25_1753,A,facesParametric,11,59.712535022,
./basicStim/21M_SP_O.jpg,,0,55,55,47,,,,,,,,,,,None,None,None,None,SUP,1.733,None,None,,,,,,,,,,,,,,,2015_Sep_25_1753,A,facesParametric,11,59.712535022,
./basicStim/02F_SA_C.jpg,,0,56,56,11,,,,,,,,,,,SAD,2.101,None,None,None,None,None,None,,,,,,,,,,,,,,,2015_Sep_25_1753,A,facesParametric,11,59.712535022,
./basicStim/07F_AN_O.jpg,,0,57,57,28,,,,,,,,,,,None,None,ANG,3.121,None,None,None,None,,,,,,,,,,,,,,,2015_Sep_25_1753,A,facesParametric,11,59.712535022,
./basicStim/36M_AN_O.jpg,,0,58,58,77,,,,,,,,,,,None,None,ANG,0.724,None,None,None,None,,,,,,,,,,,,,,,2015_Sep_25_1753,A,facesParametric,11,59.712535022,
./basicStim/09F_HA_O.jpg,,0,59,59,38,,,,,,,,,,,HAP,1.311,None,None,None,None,None,None,,,,,,,,,,,,,,,2015_Sep_25_1753,A,facesParametric,11,59.712535022,
./basicStim/03F_NE_C.jpg,,0,60,60,20,,,,,,,,,,,None,None,None,None,None,None,NTR,1.692,,,,,,,,,,,,,,,2015_Sep_25_1753,A,facesParametric,11,59.712535022,
./basicStim/06F_SP_O.jpg,,0,61,61,26,,,,,,,,,,,None,None,None,None,SUP,2.484,None,None,,,,,,,,,,,,,,,2015_Sep_25_1753,A,facesParametric,11,59.712535022,
./basicStim/01F_FE_O.jpg,,0,62,62,2,,,,,,,,,,,None,None,FEA,1.139,None,None,None,None,,,,,,,,,,,,,,,2015_Sep_25_1753,A,facesParametric,11,59.712535022,
./basicStim/28M_NE_C.jpg,,0,63,63,69,,,,,,,,,,,None,None,FEA,0.642,None,None,None,None,,,,,,,,,,,,,,,2015_Sep_25_1753,A,facesParametric,11,59.712535022,
./basicStim/21M_AN_O.jpg,,0,64,64,42,,,,,,,,,,,None,None,ANG,1.183,None,None,None,None,,,,,,,,,,,,,,,2015_Sep_25_1753,A,facesParametric,11,59.712535022,
./basicStim/03F_FE_O.jpg,,0,65,65,16,,,,,,,,,,,None,None,FEA,4.596,None,None,None,None,,,,,,,,,,,,,,,2015_Sep_25_1753,A,facesParametric,11,59.712535022,
./basicStim/09F_NE_C.jpg,,0,66,66,41,,,,,,,,,,,None,None,None,None,None,None,NTR,1.512,,,,,,,,,,,,,,,2015_Sep_25_1753,A,facesParametric,11,59.712535022,
./basicStim/34M_SP_O.jpg,,0,67,67,75,,,,,,,,,,,None,None,None,None,SUP,1.788,None,None,,,,,,,,,,,,,,,2015_Sep_25_1753,A,facesParametric,11,59.712535022,
./basicStim/07F_SP_O.jpg,,0,68,68,33,,,,,,,,,,,None,None,None,None,SUP,0.657,None,None,,,,,,,,,,,,,,,2015_Sep_25_1753,A,facesParametric,11,59.712535022,
./basicStim/02F_FE_O.jpg,,0,69,69,9,,,,,,,,,,,None,None,None,None,DIS,7.714,None,None,,,,,,,,,,,,,,,2015_Sep_25_1753,A,facesParametric,11,59.712535022,
./basicStim/34M_FE_O.jpg,,0,70,70,72,,,,,,,,,,,None,None,FEA,3.328,None,None,None,None,,,,,,,,,,,,,,,2015_Sep_25_1753,A,facesParametric,11,59.712535022,
./basicStim/02F_DI_O.jpg,,0,71,71,8,,,,,,,,,,,None,None,None,None,DIS,6.499,None,None,,,,,,,,,,,,,,,2015_Sep_25_1753,A,facesParametric,11,59.712535022,
./basicStim/06F_SA_C.jpg,,0,72,72,25,,,,,,,,,,,SAD,11.885,None,None,None,None,None,None,,,,,,,,,,,,,,,2015_Sep_25_1753,A,facesParametric,11,59.712535022,
./basicStim/24M_HA_O.jpg,,0,73,73,59,,,,,,,,,,,HAP,4.028,None,None,None,None,None,None,,,,,,,,,,,,,,,2015_Sep_25_1753,A,facesParametric,11,59.712535022,
./basicStim/23M_HA_O.jpg,,0,74,74,52,,,,,,,,,,,HAP,1.058,None,None,None,None,None,None,,,,,,,,,,,,,,,2015_Sep_25_1753,A,facesParametric,11,59.712535022,
./basicStim/01F_DI_O.jpg,,0,75,75,1,,,,,,,,,,,None,None,None,None,DIS,1.568,None,None,,,,,,,,,,,,,,,2015_Sep_25_1753,A,facesParametric,11,59.712535022,
./basicStim/36M_NE_C.jpg,,0,76,76,83,,,,,,,,,,,None,None,None,None,None,None,NTR,1.46,,,,,,,,,,,,,,,2015_Sep_25_1753,A,facesParametric,11,59.712535022,
./basicStim/09F_SP_O.jpg,,0,77,77,40,,,,,,,,,,,None,None,None,None,SUP,2.969,None,None,,,,,,,,,,,,,,,2015_Sep_25_1753,A,facesParametric,11,59.712535022,
./basicStim/28M_SA_C.jpg,,0,78,78,67,,,,,,,,,,,None,None,FEA,1.161,None,None,None,None,,,,,,,,,,,,,,,2015_Sep_25_1753,A,facesParametric,11,59.712535022,
./basicStim/28M_SP_O.jpg,,0,79,79,68,,,,,,,,,,,None,None,None,None,SUP,1.949,None,None,,,,,,,,,,,,,,,2015_Sep_25_1753,A,facesParametric,11,59.712535022,
./basicStim/23M_FE_O.jpg,,0,80,80,51,,,,,,,,,,,None,None,FEA,1.246,None,None,None,None,,,,,,,,,,,,,,,2015_Sep_25_1753,A,facesParametric,11,59.712535022,
./basicStim/34M_AN_O.jpg,,0,81,81,70,,,,,,,,,,,None,None,ANG,0.993,None,None,None,None,,,,,,,,,,,,,,,2015_Sep_25_1753,A,facesParametric,11,59.712535022,
./basicStim/01F_AN_O.jpg,,0,82,82,0,,,,,,,,,,,None,None,ANG,1.956,None,None,None,None,,,,,,,,,,,,,,,2015_Sep_25_1753,A,facesParametric,11,59.712535022,
./basicStim/09F_AN_O.jpg,,0,83,83,35,,,,,,,,,,,None,None,ANG,3.462,None,None,None,None,,,,,,,,,,,,,,,2015_Sep_25_1753,A,facesParametric,11,59.712535022,
,,,,,,,,,,,,,,,,,,,,,,,,return,16.6221568584,,,,,,,,,,,,,2015_Sep_25_1753,A,facesParametric,11,59.712535022,
,,,,,,,,,,,,,,return,8.78204989433,,,,,,,,,,,,,,,,,,,,,,,2015_Sep_25_1753,A,facesParametric,11,59.712535022,
,,,,,,,,,,,,,,,,,,,,,,,,return,11.328993082,,,,,,,,,,,,,2015_Sep_25_1753,A,facesParametric,11,59.712535022,
,,,,,,,,,,,,,,,,,,,,,,,,,,return,2.17847204208,,,,,,,,,,,2015_Sep_25_1753,A,facesParametric,11,59.712535022,
./stim/MorphM10_09_orig.jpg,0,,,,,0,0,0,0,,,,,,,,,,,,,,,,,,,4.658203125,-8.02734375,0,0,1,3.86436605453,,,,,2015_Sep_25_1753,A,facesParametric,11,59.712535022,
./stim/MorphF7_07_orig.jpg,1,,,,,0,1,1,1,,,,,,,,,,,,,,,,,,,4.658203125,-8.02734375,1,0,0,1.15242409706,,,,,2015_Sep_25_1753,A,facesParametric,11,59.712535022,
./stim/MorphF9_01_orig.jpg,2,,,,,0,2,2,2,,,,,,,,,,,,,,,,,,,4.658203125,-8.02734375,1,0,0,1.00351214409,,,,,2015_Sep_25_1753,A,facesParametric,11,59.712535022,
./stim/MorphM6_06_orig.jpg,3,,,,,0,3,3,3,,,,,,,,,,,,,,,,,,,4.658203125,-8.02734375,1,0,0,1.60751700401,,,,,2015_Sep_25_1753,A,facesParametric,11,59.712535022,
./stim/MorphM4_01_orig.jpg,4,,,,,0,4,4,4,,,,,,,,,,,,,,,,,,,4.658203125,-8.02734375,1,0,0,5.47921514511,,,,,2015_Sep_25_1753,A,facesParametric,11,59.712535022,
./stim/MorphM5_07_orig.jpg,5,,,,,0,5,5,5,,,,,,,,,,,,,,,,,,,4.658203125,-8.02734375,0,0,1,1.08780503273,,,,,2015_Sep_25_1753,A,facesParametric,11,59.712535022,
./stim/MorphF1_01_orig.jpg,6,,,,,0,6,6,6,,,,,,,,,,,,,,,,,,,4.658203125,-8.02734375,1,0,0,1.75657916069,,,,,2015_Sep_25_1753,A,facesParametric,11,59.712535022,
./stim/MorphM9_01_orig.jpg,7,,,,,0,7,7,7,,,,,,,,,,,,,,,,,,,4.658203125,-8.02734375,1,0,0,1.13794183731,,,,,2015_Sep_25_1753,A,facesParametric,11,59.712535022,
./stim/MorphM7_05_orig.jpg,8,,,,,0,8,8,8,,,,,,,,,,,,,,,,,,,4.658203125,-8.02734375,0,0,1,0.819000005722,,,,,2015_Sep_25_1753,A,facesParametric,11,59.712535022,
./stim/MorphM6_00_orig.jpg,9,,,,,0,9,9,9,,,,,,,,,,,,,,,,,,,4.658203125,-8.02734375,1,0,0,3.39915895462,,,,,2015_Sep_25_1753,A,facesParametric,11,59.712535022,
./stim/MorphM7_10_orig.jpg,10,,,,,0,10,10,10,,,,,,,,,,,,,,,,,,,4.658203125,-8.02734375,0,0,1,4.15481996536,,,,,2015_Sep_25_1753,A,facesParametric,11,59.712535022,
./stim/MorphM10_06_orig.jpg,11,,,,,0,11,11,11,,,,,,,,,,,,,,,,,,,4.658203125,-8.02734375,0,0,1,3.21648001671,,,,,2015_Sep_25_1753,A,facesParametric,11,59.712535022,
./stim/MorphM2_04_orig.jpg,12,,,,,0,12,12,12,,,,,,,,,,,,,,,,,,,4.658203125,-8.02734375,1,0,0,0.904792070389,,,,,2015_Sep_25_1753,A,facesParametric,11,59.712535022,
./stim/MorphF1_07_orig.jpg,13,,,,,0,13,13,13,,,,,,,,,,,,,,,,,,,4.658203125,-8.02734375,1,0,0,1.92552900314,,,,,2015_Sep_25_1753,A,facesParametric,11,59.712535022,
./stim/MorphF7_04_orig.jpg,14,,,,,0,14,14,14,,,,,,,,,,,,,,,,,,,4.658203125,-8.02734375,0,0,1,1.72480797768,,,,,2015_Sep_25_1753,A,facesParametric,11,59.712535022,
./stim/MorphM3_09_orig.jpg,15,,,,,0,15,15,15,,,,,,,,,,,,,,,,,,,4.658203125,-8.02734375,0,0,1,3.13192510605,,,,,2015_Sep_25_1753,A,facesParametric,11,59.712535022,
./stim/MorphF1_05_orig.jpg,16,,,,,0,16,16,16,,,,,,,,,,,,,,,,,,,4.658203125,-8.02734375,1,0,0,0.970766067505,,,,,2015_Sep_25_1753,A,facesParametric,11,59.712535022,
./stim/MorphF5_08_orig.jpg,17,,,,,0,17,17,17,,,,,,,,,,,,,,,,,,,4.658203125,-8.02734375,1,0,0,0.837562084198,,,,,2015_Sep_25_1753,A,facesParametric,11,59.712535022,
./stim/MorphM9_06_orig.jpg,18,,,,,0,18,18,18,,,,,,,,,,,,,,,,,,,4.658203125,-8.02734375,1,0,0,3.63478112221,,,,,2015_Sep_25_1753,A,facesParametric,11,59.712535022,
./stim/MorphF10_06_orig.jpg,19,,,,,0,19,19,19,,,,,,,,,,,,,,,,,,,4.658203125,-8.02734375,0,0,1,1.00546097755,,,,,2015_Sep_25_1753,A,facesParametric,11,59.712535022,
./stim/MorphM10_08_orig.jpg,20,,,,,0,20,20,20,,,,,,,,,,,,,,,,,,,4.658203125,-8.02734375,0,0,1,0.884475946426,,,,,2015_Sep_25_1753,A,facesParametric,11,59.712535022,
./stim/MorphF3_08_orig.jpg,21,,,,,0,21,21,21,,,,,,,,,,,,,,,,,,,4.658203125,-8.02734375,0,0,1,2.54629707336,,,,,2015_Sep_25_1753,A,facesParametric,11,59.712535022,
./stim/MorphM9_00_orig.jpg,22,,,,,0,22,22,22,,,,,,,,,,,,,,,,,,,4.658203125,-8.02734375,1,0,0,1.12171196938,,,,,2015_Sep_25_1753,A,facesParametric,11,59.712535022,
./stim/MorphM1_10_orig.jpg,23,,,,,0,23,23,23,,,,,,,,,,,,,,,,,,,4.658203125,-8.02734375,0,0,1,1.55678200722,,,,,2015_Sep_25_1753,A,facesParametric,11,59.712535022,
./stim/MorphM2_10_orig.jpg,24,,,,,0,24,24,24,,,,,,,,,,,,,,,,,,,4.658203125,-8.02734375,0,0,1,0.91921710968,,,,,2015_Sep_25_1753,A,facesParametric,11,59.712535022,
./stim/MorphF1_04_orig.jpg,25,,,,,0,25,25,25,,,,,,,,,,,,,,,,,,,4.658203125,-8.02734375,1,0,0,0.820076942444,,,,,2015_Sep_25_1753,A,facesParametric,11,59.712535022,
./stim/MorphM8_01_orig.jpg,26,,,,,0,26,26,26,,,,,,,,,,,,,,,,,,,4.658203125,-8.02734375,1,0,0,1.38981103897,,,,,2015_Sep_25_1753,A,facesParametric,11,59.712535022,
./stim/MorphF4_00_orig.jpg,27,,,,,0,27,27,27,,,,,,,,,,,,,,,,,,,4.658203125,-8.02734375,1,0,0,0.819895029068,,,,,2015_Sep_25_1753,A,facesParametric,11,59.712535022,
./stim/MorphF2_07_orig.jpg,28,,,,,0,28,28,28,,,,,,,,,,,,,,,,,,,4.658203125,-8.02734375,0,0,1,6.90403985977,,,,,2015_Sep_25_1753,A,facesParametric,11,59.712535022,
./stim/MorphF6_06_orig.jpg,29,,,,,0,29,29,29,,,,,,,,,,,,,,,,,,,4.658203125,-8.02734375,1,0,0,1.0864841938,,,,,2015_Sep_25_1753,A,facesParametric,11,59.712535022,
./stim/MorphF4_06_orig.jpg,30,,,,,0,30,30,30,,,,,,,,,,,,,,,,,,,4.658203125,-8.02734375,1,0,0,4.62397503853,,,,,2015_Sep_25_1753,A,facesParametric,11,59.712535022,
./stim/MorphF8_10_orig.jpg,31,,,,,0,31,31,31,,,,,,,,,,,,,,,,,,,4.658203125,-8.02734375,0,0,1,1.0551109314,,,,,2015_Sep_25_1753,A,facesParametric,11,59.712535022,
./stim/MorphF7_03_orig.jpg,32,,,,,0,32,32,32,,,,,,,,,,,,,,,,,,,4.658203125,-8.02734375,1,0,0,2.98136806488,,,,,2015_Sep_25_1753,A,facesParametric,11,59.712535022,
./stim/MorphM4_09_orig.jpg,33,,,,,0,33,33,33,,,,,,,,,,,,,,,,,,,4.658203125,-8.02734375,0,0,1,1.17205095291,,,,,2015_Sep_25_1753,A,facesParametric,11,59.712535022,
./stim/MorphM1_09_orig.jpg,34,,,,,0,34,34,34,,,,,,,,,,,,,,,,,,,4.658203125,-8.02734375,1,0,0,3.46723008156,,,,,2015_Sep_25_1753,A,facesParametric,11,59.712535022,
./stim/MorphM8_02_orig.jpg,35,,,,,0,35,35,35,,,,,,,,,,,,,,,,,,,4.658203125,-8.02734375,1,0,0,1.47150802612,,,,,2015_Sep_25_1753,A,facesParametric,11,59.712535022,
./stim/MorphF6_05_orig.jpg,36,,,,,0,36,36,36,,,,,,,,,,,,,,,,,,,4.658203125,-8.02734375,1,0,0,1.80823802948,,,,,2015_Sep_25_1753,A,facesParametric,11,59.712535022,
./stim/MorphM6_01_orig.jpg,37,,,,,0,37,37,37,,,,,,,,,,,,,,,,,,,4.658203125,-8.02734375,1,0,0,5.6798992157,,,,,2015_Sep_25_1753,A,facesParametric,11,59.712535022,
./stim/MorphF9_02_orig.jpg,38,,,,,0,38,38,38,,,,,,,,,,,,,,,,,,,4.658203125,-8.02734375,1,0,0,1.20472884178,,,,,2015_Sep_25_1753,A,facesParametric,11,59.712535022,
./stim/MorphF6_09_orig.jpg,39,,,,,0,39,39,39,,,,,,,,,,,,,,,,,,,4.658203125,-8.02734375,0,0,1,6.01598501205,,,,,2015_Sep_25_1753,A,facesParametric,11,59.712535022,
./stim/MorphM6_09_orig.jpg,40,,,,,0,40,40,40,,,,,,,,,,,,,,,,,,,4.658203125,-8.02734375,1,0,0,14.3442049026,,,,,2015_Sep_25_1753,A,facesParametric,11,59.712535022,
./stim/MorphF7_08_orig.jpg,41,,,,,0,41,41,41,,,,,,,,,,,,,,,,,,,4.658203125,-8.02734375,1,0,0,5.24465799332,,,,,2015_Sep_25_1753,A,facesParametric,11,59.712535022,
./stim/MorphM9_05_orig.jpg,42,,,,,0,42,42,42,,,,,,,,,,,,,,,,,,,4.658203125,-8.02734375,1,0,0,1.03767180443,,,,,2015_Sep_25_1753,A,facesParametric,11,59.712535022,
./stim/MorphF3_09_orig.jpg,43,,,,,0,43,43,43,,,,,,,,,,,,,,,,,,,4.658203125,-8.02734375,0,0,1,14.9651579857,,,,,2015_Sep_25_1753,A,facesParametric,11,59.712535022,
./stim/MorphF8_07_orig.jpg,44,,,,,0,44,44,44,,,,,,,,,,,,,,,,,,,4.658203125,-8.02734375,0,0,1,2.51123595238,,,,,2015_Sep_25_1753,A,facesParametric,11,59.712535022,
./stim/MorphM2_03_orig.jpg,45,,,,,0,45,45,45,,,,,,,,,,,,,,,,,,,4.658203125,-8.02734375,1,0,0,1.13845801353,,,,,2015_Sep_25_1753,A,facesParametric,11,59.712535022,
./stim/MorphF2_00_orig.jpg,46,,,,,0,46,46,46,,,,,,,,,,,,,,,,,,,4.658203125,-8.02734375,1,0,0,10.3562600613,,,,,2015_Sep_25_1753,A,facesParametric,11,59.712535022,
./stim/MorphM1_01_orig.jpg,47,,,,,0,47,47,47,,,,,,,,,,,,,,,,,,,4.658203125,-8.02734375,1,0,0,12.2825388908,,,,,2015_Sep_25_1753,A,facesParametric,11,59.712535022,
./stim/MorphM10_02_orig.jpg,48,,,,,0,48,48,48,,,,,,,,,,,,,,,,,,,4.658203125,-8.02734375,1,0,0,2.34395718575,,,,,2015_Sep_25_1753,A,facesParametric,11,59.712535022,
./stim/MorphF10_02_orig.jpg,49,,,,,0,49,49,49,,,,,,,,,,,,,,,,,,,4.658203125,-8.02734375,1,0,0,14.0604870319,,,,,2015_Sep_25_1753,A,facesParametric,11,59.712535022,
./stim/MorphM1_03_orig.jpg,50,,,,,0,50,50,50,,,,,,,,,,,,,,,,,,,4.658203125,-8.02734375,1,0,0,10.2874898911,,,,,2015_Sep_25_1753,A,facesParametric,11,59.712535022,
./stim/MorphF1_03_orig.jpg,51,,,,,0,51,51,51,,,,,,,,,,,,,,,,,,,4.658203125,-8.02734375,1,0,0,5.5625731945,,,,,2015_Sep_25_1753,A,facesParametric,11,59.712535022,
./stim/MorphM8_03_orig.jpg,52,,,,,0,52,52,52,,,,,,,,,,,,,,,,,,,4.658203125,-8.02734375,1,0,0,46.3559510708,,,,,2015_Sep_25_1753,A,facesParametric,11,59.712535022,
./stim/MorphF2_01_orig.jpg,53,,,,,0,53,53,53,,,,,,,,,,,,,,,,,,,4.658203125,-8.02734375,1,0,0,2.73005795479,,,,,2015_Sep_25_1753,A,facesParametric,11,59.712535022,
./stim/MorphF9_06_orig.jpg,54,,,,,0,54,54,54,,,,,,,,,,,,,,,,,,,4.658203125,-8.02734375,1,0,0,2.46120905876,,,,,2015_Sep_25_1753,A,facesParametric,11,59.712535022,
./stim/MorphF10_09_orig.jpg,55,,,,,0,55,55,55,,,,,,,,,,,,,,,,,,,4.658203125,-8.02734375,0,0,1,1.35494995117,,,,,2015_Sep_25_1753,A,facesParametric,11,59.712535022,
./stim/MorphM1_07_orig.jpg,56,,,,,0,56,56,56,,,,,,,,,,,,,,,,,,,4.658203125,-8.02734375,1,0,0,9.53544688225,,,,,2015_Sep_25_1753,A,facesParametric,11,59.712535022,
./stim/MorphM8_04_orig.jpg,57,,,,,0,57,57,57,,,,,,,,,,,,,,,,,,,4.658203125,-8.02734375,1,0,0,2.7642788887,,,,,2015_Sep_25_1753,A,facesParametric,11,59.712535022,
./stim/MorphM7_07_orig.jpg,58,,,,,0,58,58,58,,,,,,,,,,,,,,,,,,,4.658203125,-8.02734375,0,0,1,1.10470795631,,,,,2015_Sep_25_1753,A,facesParametric,11,59.712535022,
./stim/MorphM1_06_orig.jpg,59,,,,,0,59,59,59,,,,,,,,,,,,,,,,,,,4.658203125,-8.02734375,0,0,1,4.52381777763,,,,,2015_Sep_25_1753,A,facesParametric,11,59.712535022,
./stim/MorphF9_10_orig.jpg,60,,,,,0,60,60,60,,,,,,,,,,,,,,,,,,,4.658203125,-8.02734375,0,0,1,2.93148589134,,,,,2015_Sep_25_1753,A,facesParametric,11,59.712535022,
./stim/MorphF3_03_orig.jpg,61,,,,,0,61,61,61,,,,,,,,,,,,,,,,,,,4.658203125,-8.02734375,1,0,0,1.725949049,,,,,2015_Sep_25_1753,A,facesParametric,11,59.712535022,
./stim/MorphM9_04_orig.jpg,62,,,,,0,62,62,62,,,,,,,,,,,,,,,,,,,4.658203125,-8.02734375,1,0,0,1.6905708313,,,,,2015_Sep_25_1753,A,facesParametric,11,59.712535022,
./stim/MorphF8_09_orig.jpg,63,,,,,0,63,63,63,,,,,,,,,,,,,,,,,,,4.658203125,-8.02734375,0,0,1,1.22244596481,,,,,2015_Sep_25_1753,A,facesParametric,11,59.712535022,
./stim/MorphM3_06_orig.jpg,64,,,,,0,64,64,64,,,,,,,,,,,,,,,,,,,4.658203125,-8.02734375,0,0,1,2.07694911957,,,,,2015_Sep_25_1753,A,facesParametric,11,59.712535022,
./stim/MorphM5_01_orig.jpg,65,,,,,0,65,65,65,,,,,,,,,,,,,,,,,,,4.658203125,-8.02734375,1,0,0,8.39559984207,,,,,2015_Sep_25_1753,A,facesParametric,11,59.712535022,
./stim/MorphM4_08_orig.jpg,66,,,,,0,66,66,66,,,,,,,,,,,,,,,,,,,4.658203125,-8.02734375,0,0,1,1.33722805977,,,,,2015_Sep_25_1753,A,facesParametric,11,59.712535022,
./stim/MorphF8_01_orig.jpg,67,,,,,0,67,67,67,,,,,,,,,,,,,,,,,,,4.658203125,-8.02734375,1,0,0,1.10490512848,,,,,2015_Sep_25_1753,A,facesParametric,11,59.712535022,
./stim/MorphM4_03_orig.jpg,68,,,,,0,68,68,68,,,,,,,,,,,,,,,,,,,4.658203125,-8.02734375,1,0,0,1.02089500427,,,,,2015_Sep_25_1753,A,facesParametric,11,59.712535022,
./stim/MorphM7_06_orig.jpg,69,,,,,0,69,69,69,,,,,,,,,,,,,,,,,,,4.658203125,-8.02734375,1,0,0,0.887351989746,,,,,2015_Sep_25_1753,A,facesParametric,11,59.712535022,
./stim/MorphF10_03_orig.jpg,70,,,,,0,70,70,70,,,,,,,,,,,,,,,,,,,4.658203125,-8.02734375,0,0,1,4.59060907364,,,,,2015_Sep_25_1753,A,facesParametric,11,59.712535022,
./stim/MorphM3_07_orig.jpg,71,,,,,0,71,71,71,,,,,,,,,,,,,,,,,,,4.658203125,-8.02734375,0,0,1,5.2616610527,,,,,2015_Sep_25_1753,A,facesParametric,11,59.712535022,
./stim/MorphF5_10_orig.jpg,72,,,,,0,72,72,72,,,,,,,,,,,,,,,,,,,4.658203125,-8.02734375,0,0,1,1.03574800491,,,,,2015_Sep_25_1753,A,facesParametric,11,59.712535022,
./stim/MorphF9_07_orig.jpg,73,,,,,0,73,73,73,,,,,,,,,,,,,,,,,,,4.658203125,-8.02734375,1,0,0,1.80832600594,,,,,2015_Sep_25_1753,A,facesParametric,11,59.712535022,
./stim/MorphM7_03_orig.jpg,74,,,,,0,74,74,74,,,,,,,,,,,,,,,,,,,4.658203125,-8.02734375,1,0,0,1.33958411217,,,,,2015_Sep_25_1753,A,facesParametric,11,59.712535022,
./stim/MorphF8_06_orig.jpg,75,,,,,0,75,75,75,,,,,,,,,,,,,,,,,,,4.658203125,-8.02734375,1,0,0,8.11048698425,,,,,2015_Sep_25_1753,A,facesParametric,11,59.712535022,
./stim/MorphF10_01_orig.jpg,76,,,,,0,76,76,76,,,,,,,,,,,,,,,,,,,4.658203125,-8.02734375,1,0,0,1.7915289402,,,,,2015_Sep_25_1753,A,facesParametric,11,59.712535022,
./stim/MorphF8_08_orig.jpg,77,,,,,0,77,77,77,,,,,,,,,,,,,,,,,,,4.658203125,-8.02734375,0,0,1,1.05470299721,,,,,2015_Sep_25_1753,A,facesParametric,11,59.712535022,
./stim/MorphM10_05_orig.jpg,78,,,,,0,78,78,78,,,,,,,,,,,,,,,,,,,4.658203125,-8.02734375,0,0,1,1.37293696404,,,,,2015_Sep_25_1753,A,facesParametric,11,59.712535022,
./stim/MorphM9_07_orig.jpg,79,,,,,0,79,79,79,,,,,,,,,,,,,,,,,,,4.658203125,-8.02734375,1,0,0,7.70881915092,,,,,2015_Sep_25_1753,A,facesParametric,11,59.712535022,
./stim/MorphM5_10_orig.jpg,80,,,,,0,80,80,80,,,,,,,,,,,,,,,,,,,4.658203125,-8.02734375,1,0,0,16.3046519756,,,,,2015_Sep_25_1753,A,facesParametric,11,59.712535022,
./stim/MorphM3_10_orig.jpg,81,,,,,0,81,81,81,,,,,,,,,,,,,,,,,,,4.658203125,-8.02734375,1,0,0,3.23414707184,,,,,2015_Sep_25_1753,A,facesParametric,11,59.712535022,
./stim/MorphF5_01_orig.jpg,82,,,,,0,82,82,82,,,,,,,,,,,,,,,,,,,4.658203125,-8.02734375,1,0,0,2.91383099556,,,,,2015_Sep_25_1753,A,facesParametric,11,59.712535022,
./stim/MorphM2_05_orig.jpg,83,,,,,0,83,83,83,,,,,,,,,,,,,,,,,,,4.658203125,-8.02734375,1,0,0,1.30605006218,,,,,2015_Sep_25_1753,A,facesParametric,11,59.712535022,
./stim/MorphM4_04_orig.jpg,84,,,,,0,84,84,84,,,,,,,,,,,,,,,,,,,4.658203125,-8.02734375,1,0,0,1.33846187592,,,,,2015_Sep_25_1753,A,facesParametric,11,59.712535022,
./stim/MorphM10_04_orig.jpg,85,,,,,0,85,85,85,,,,,,,,,,,,,,,,,,,4.658203125,-8.02734375,1,0,0,6.48253703117,,,,,2015_Sep_25_1753,A,facesParametric,11,59.712535022,
./stim/MorphF7_02_orig.jpg,86,,,,,0,86,86,86,,,,,,,,,,,,,,,,,,,4.658203125,-8.02734375,1,0,0,1.05485296249,,,,,2015_Sep_25_1753,A,facesParametric,11,59.712535022,
./stim/MorphM4_05_orig.jpg,87,,,,,0,87,87,87,,,,,,,,,,,,,,,,,,,4.658203125,-8.02734375,1,0,0,1.27236294746,,,,,2015_Sep_25_1753,A,facesParametric,11,59.712535022,
./stim/MorphM2_09_orig.jpg,88,,,,,0,88,88,88,,,,,,,,,,,,,,,,,,,4.658203125,-8.02734375,1,0,0,5.59471201897,,,,,2015_Sep_25_1753,A,facesParametric,11,59.712535022,
./stim/MorphF5_02_orig.jpg,89,,,,,0,89,89,89,,,,,,,,,,,,,,,,,,,4.658203125,-8.02734375,1,0,0,0.920390844345,,,,,2015_Sep_25_1753,A,facesParametric,11,59.712535022,
./stim/MorphM10_01_orig.jpg,90,,,,,0,90,90,90,,,,,,,,,,,,,,,,,,,4.658203125,-8.02734375,1,0,0,3.73529100418,,,,,2015_Sep_25_1753,A,facesParametric,11,59.712535022,
./stim/MorphF4_03_orig.jpg,91,,,,,0,91,91,91,,,,,,,,,,,,,,,,,,,4.658203125,-8.02734375,1,0,0,0.887678146362,,,,,2015_Sep_25_1753,A,facesParametric,11,59.712535022,
./stim/MorphF3_00_orig.jpg,92,,,,,0,92,92,92,,,,,,,,,,,,,,,,,,,4.658203125,-8.02734375,1,0,0,1.74146413803,,,,,2015_Sep_25_1753,A,facesParametric,11,59.712535022,
./stim/MorphF6_03_orig.jpg,93,,,,,0,93,93,93,,,,,,,,,,,,,,,,,,,4.658203125,-8.02734375,1,0,0,1.05225992203,,,,,2015_Sep_25_1753,A,facesParametric,11,59.712535022,
./stim/MorphF7_05_orig.jpg,94,,,,,0,94,94,94,,,,,,,,,,,,,,,,,,,4.658203125,-8.02734375,0,0,1,8.04120802879,,,,,2015_Sep_25_1753,A,facesParametric,11,59.712535022,
./stim/MorphF9_04_orig.jpg,95,,,,,0,95,95,95,,,,,,,,,,,,,,,,,,,4.658203125,-8.02734375,0,0,1,3.5017478466,,,,,2015_Sep_25_1753,A,facesParametric,11,59.712535022,
./stim/MorphM7_02_orig.jpg,96,,,,,0,96,96,96,,,,,,,,,,,,,,,,,,,4.658203125,-8.02734375,1,0,0,0.986201047897,,,,,2015_Sep_25_1753,A,facesParametric,11,59.712535022,
./stim/MorphF5_09_orig.jpg,97,,,,,0,97,97,97,,,,,,,,,,,,,,,,,,,4.658203125,-8.02734375,1,0,0,3.35090184212,,,,,2015_Sep_25_1753,A,facesParametric,11,59.712535022,
./stim/MorphF1_10_orig.jpg,98,,,,,0,98,98,98,,,,,,,,,,,,,,,,,,,4.658203125,-8.02734375,0,0,1,2.47672796249,,,,,2015_Sep_25_1753,A,facesParametric,11,59.712535022,
./stim/MorphM5_05_orig.jpg,99,,,,,0,99,99,99,,,,,,,,,,,,,,,,,,,4.658203125,-8.02734375,1,0,0,6.35101699829,,,,,2015_Sep_25_1753,A,facesParametric,11,59.712535022,
./stim/MorphF7_01_orig.jpg,100,,,,,0,100,100,100,,,,,,,,,,,,,,,,,,,4.658203125,-8.02734375,1,0,0,1.90926408768,,,,,2015_Sep_25_1753,A,facesParametric,11,59.712535022,
./stim/MorphF2_09_orig.jpg,101,,,,,0,101,101,101,,,,,,,,,,,,,,,,,,,4.658203125,-8.02734375,0,0,1,2.19280815125,,,,,2015_Sep_25_1753,A,facesParametric,11,59.712535022,
./stim/MorphM3_05_orig.jpg,102,,,,,0,102,102,102,,,,,,,,,,,,,,,,,,,4.658203125,-8.02734375,0,0,1,2.42887496948,,,,,2015_Sep_25_1753,A,facesParametric,11,59.712535022,
./stim/MorphM5_00_orig.jpg,103,,,,,0,103,103,103,,,,,,,,,,,,,,,,,,,4.658203125,-8.02734375,1,0,0,7.10475301743,,,,,2015_Sep_25_1753,A,facesParametric,11,59.712535022,
./stim/MorphF3_06_orig.jpg,104,,,,,0,104,104,104,,,,,,,,,,,,,,,,,,,4.658203125,-8.02734375,0,0,1,1.15422582626,,,,,2015_Sep_25_1753,A,facesParametric,11,59.712535022,
./stim/MorphF2_03_orig.jpg,105,,,,,0,105,105,105,,,,,,,,,,,,,,,,,,,4.658203125,-8.02734375,1,0,0,1.82477402687,,,,,2015_Sep_25_1753,A,facesParametric,11,59.712535022,
./stim/MorphF6_02_orig.jpg,106,,,,,0,106,106,106,,,,,,,,,,,,,,,,,,,4.658203125,-8.02734375,1,0,0,1.22199606895,,,,,2015_Sep_25_1753,A,facesParametric,11,59.712535022,
./stim/MorphF1_09_orig.jpg,107,,,,,0,107,107,107,,,,,,,,,,,,,,,,,,,4.658203125,-8.02734375,0,0,1,3.6030061245,,,,,2015_Sep_25_1753,A,facesParametric,11,59.712535022,
./stim/MorphM9_10_orig.jpg,108,,,,,0,108,108,108,,,,,,,,,,,,,,,,,,,4.658203125,-8.02734375,0,0,1,1.18822598457,,,,,2015_Sep_25_1753,A,facesParametric,11,59.712535022,
./stim/MorphF4_01_orig.jpg,109,,,,,0,109,109,109,,,,,,,,,,,,,,,,,,,4.658203125,-8.02734375,1,0,0,0.902640104294,,,,,2015_Sep_25_1753,A,facesParametric,11,59.712535022,
./stim/MorphF3_07_orig.jpg,110,,,,,0,110,110,110,,,,,,,,,,,,,,,,,,,4.658203125,-8.02734375,0,0,1,2.09153103828,,,,,2015_Sep_25_1753,A,facesParametric,11,59.712535022,
./stim/MorphM8_10_orig.jpg,111,,,,,0,111,111,111,,,,,,,,,,,,,,,,,,,4.658203125,-8.02734375,0,0,1,1.15437293053,,,,,2015_Sep_25_1753,A,facesParametric,11,59.712535022,
./stim/MorphM5_06_orig.jpg,112,,,,,0,112,112,112,,,,,,,,,,,,,,,,,,,4.658203125,-8.02734375,0,0,1,9.8703019619,,,,,2015_Sep_25_1753,A,facesParametric,11,59.712535022,
./stim/MorphF3_04_orig.jpg,113,,,,,0,113,113,113,,,,,,,,,,,,,,,,,,,4.658203125,-8.02734375,1,0,0,7.43663811684,,,,,2015_Sep_25_1753,A,facesParametric,11,59.712535022,
./stim/MorphM5_02_orig.jpg,114,,,,,0,114,114,114,,,,,,,,,,,,,,,,,,,4.658203125,-8.02734375,1,0,0,1.50699305534,,,,,2015_Sep_25_1753,A,facesParametric,11,59.712535022,
./stim/MorphF7_00_orig.jpg,115,,,,,0,115,115,115,,,,,,,,,,,,,,,,,,,4.658203125,-8.02734375,1,0,0,2.56308412552,,,,,2015_Sep_25_1753,A,facesParametric,11,59.712535022,
./stim/MorphM5_08_orig.jpg,116,,,,,0,116,116,116,,,,,,,,,,,,,,,,,,,4.658203125,-8.02734375,0,0,1,6.14958310127,,,,,2015_Sep_25_1753,A,facesParametric,11,59.712535022,
./stim/MorphF3_05_orig.jpg,117,,,,,0,117,117,117,,,,,,,,,,,,,,,,,,,4.658203125,-8.02734375,0,0,1,1.70650792122,,,,,2015_Sep_25_1753,A,facesParametric,11,59.712535022,
./stim/MorphM10_07_orig.jpg,118,,,,,0,118,118,118,,,,,,,,,,,,,,,,,,,4.658203125,-8.02734375,0,0,1,0.92060303688,,,,,2015_Sep_25_1753,A,facesParametric,11,59.712535022,
./stim/MorphF2_05_orig.jpg,119,,,,,0,119,119,119,,,,,,,,,,,,,,,,,,,4.658203125,-8.02734375,1,0,0,2.06001400948,,,,,2015_Sep_25_1753,A,facesParametric,11,59.712535022,
./stim/MorphF8_05_orig.jpg,120,,,,,0,120,120,120,,,,,,,,,,,,,,,,,,,4.658203125,-8.02734375,1,0,0,3.14934587479,,,,,2015_Sep_25_1753,A,facesParametric,11,59.712535022,
./stim/MorphF5_07_orig.jpg,121,,,,,0,121,121,121,,,,,,,,,,,,,,,,,,,4.658203125,-8.02734375,1,0,0,0.885751962662,,,,,2015_Sep_25_1753,A,facesParametric,11,59.712535022,
./stim/MorphM5_04_orig.jpg,122,,,,,0,122,122,122,,,,,,,,,,,,,,,,,,,4.658203125,-8.02734375,1,0,0,3.81937217712,,,,,2015_Sep_25_1753,A,facesParametric,11,59.712535022,
./stim/MorphM2_08_orig.jpg,123,,,,,0,123,123,123,,,,,,,,,,,,,,,,,,,4.658203125,-8.02734375,1,0,0,5.69712090492,,,,,2015_Sep_25_1753,A,facesParametric,11,59.712535022,
./stim/MorphM7_01_orig.jpg,124,,,,,0,124,124,124,,,,,,,,,,,,,,,,,,,4.658203125,-8.02734375,1,0,0,2.69672489166,,,,,2015_Sep_25_1753,A,facesParametric,11,59.712535022,
./stim/MorphF5_04_orig.jpg,125,,,,,0,125,125,125,,,,,,,,,,,,,,,,,,,4.658203125,-8.02734375,1,0,0,1.12191200256,,,,,2015_Sep_25_1753,A,facesParametric,11,59.712535022,
./stim/MorphF6_08_orig.jpg,126,,,,,0,126,126,126,,,,,,,,,,,,,,,,,,,4.658203125,-8.02734375,0,0,1,1.07115387917,,,,,2015_Sep_25_1753,A,facesParametric,11,59.712535022,
./stim/MorphM10_00_orig.jpg,127,,,,,0,127,127,127,,,,,,,,,,,,,,,,,,,4.658203125,-8.02734375,1,0,0,1.27259302139,,,,,2015_Sep_25_1753,A,facesParametric,11,59.712535022,
./stim/MorphF5_06_orig.jpg,128,,,,,0,128,128,128,,,,,,,,,,,,,,,,,,,4.658203125,-8.02734375,1,0,0,1.27228498459,,,,,2015_Sep_25_1753,A,facesParametric,11,59.712535022,
./stim/MorphM4_02_orig.jpg,129,,,,,0,129,129,129,,,,,,,,,,,,,,,,,,,4.658203125,-8.02734375,1,0,0,1.67283821106,,,,,2015_Sep_25_1753,A,facesParametric,11,59.712535022,
./stim/MorphF1_08_orig.jpg,130,,,,,0,130,130,130,,,,,,,,,,,,,,,,,,,4.658203125,-8.02734375,1,0,0,1.12129592896,,,,,2015_Sep_25_1753,A,facesParametric,11,59.712535022,
./stim/MorphF9_09_orig.jpg,131,,,,,0,131,131,131,,,,,,,,,,,,,,,,,,,4.658203125,-8.02734375,0,0,1,0.903883934021,,,,,2015_Sep_25_1753,A,facesParametric,11,59.712535022,
./stim/MorphF2_04_orig.jpg,132,,,,,0,132,132,132,,,,,,,,,,,,,,,,,,,4.658203125,-8.02734375,1,0,0,1.57402992249,,,,,2015_Sep_25_1753,A,facesParametric,11,59.712535022,
./stim/MorphF10_04_orig.jpg,133,,,,,0,133,133,133,,,,,,,,,,,,,,,,,,,4.658203125,-8.02734375,1,0,0,3.91983699799,,,,,2015_Sep_25_1753,A,facesParametric,11,59.712535022,
./stim/MorphM8_06_orig.jpg,134,,,,,0,134,134,134,,,,,,,,,,,,,,,,,,,4.658203125,-8.02734375,0,0,1,5.29394984245,,,,,2015_Sep_25_1753,A,facesParametric,11,59.712535022,
./stim/MorphF8_02_orig.jpg,135,,,,,0,135,135,135,,,,,,,,,,,,,,,,,,,4.658203125,-8.02734375,1,0,0,4.28898191452,,,,,2015_Sep_25_1753,A,facesParametric,11,59.712535022,
./stim/MorphM1_00_orig.jpg,136,,,,,0,136,136,136,,,,,,,,,,,,,,,,,,,4.658203125,-8.02734375,1,0,0,1.03613495827,,,,,2015_Sep_25_1753,A,facesParametric,11,59.712535022,
./stim/MorphM7_00_orig.jpg,137,,,,,0,137,137,137,,,,,,,,,,,,,,,,,,,4.658203125,-8.02734375,1,0,0,0.86985206604,,,,,2015_Sep_25_1753,A,facesParametric,11,59.712535022,
./stim/MorphF10_10_orig.jpg,138,,,,,0,138,138,138,,,,,,,,,,,,,,,,,,,4.658203125,-8.02734375,0,0,1,1.0872220993,,,,,2015_Sep_25_1753,A,facesParametric,11,59.712535022,
./stim/MorphF4_08_orig.jpg,139,,,,,0,139,139,139,,,,,,,,,,,,,,,,,,,4.658203125,-8.02734375,0,0,1,1.03613781929,,,,,2015_Sep_25_1753,A,facesParametric,11,59.712535022,
./stim/MorphM2_06_orig.jpg,140,,,,,0,140,140,140,,,,,,,,,,,,,,,,,,,4.658203125,-8.02734375,1,0,0,8.21124815941,,,,,2015_Sep_25_1753,A,facesParametric,11,59.712535022,
./stim/MorphF1_06_orig.jpg,141,,,,,0,141,141,141,,,,,,,,,,,,,,,,,,,4.658203125,-8.02734375,1,0,0,1.94158411026,,,,,2015_Sep_25_1753,A,facesParametric,11,59.712535022,
./stim/MorphM9_02_orig.jpg,142,,,,,0,142,142,142,,,,,,,,,,,,,,,,,,,4.658203125,-8.02734375,1,0,0,7.69205904007,,,,,2015_Sep_25_1753,A,facesParametric,11,59.712535022,
./stim/MorphF8_00_orig.jpg,143,,,,,0,143,143,143,,,,,,,,,,,,,,,,,,,4.658203125,-8.02734375,1,0,0,6.28131604195,,,,,2015_Sep_25_1753,A,facesParametric,11,59.712535022,
./stim/MorphF1_02_orig.jpg,144,,,,,0,144,144,144,,,,,,,,,,,,,,,,,,,4.658203125,-8.02734375,1,0,0,0.819850921631,,,,,2015_Sep_25_1753,A,facesParametric,11,59.712535022,
./stim/MorphM6_03_orig.jpg,145,,,,,0,145,145,145,,,,,,,,,,,,,,,,,,,4.658203125,-8.02734375,1,0,0,13.7081310749,,,,,2015_Sep_25_1753,A,facesParametric,11,59.712535022,
./stim/MorphM7_08_orig.jpg,146,,,,,0,146,146,146,,,,,,,,,,,,,,,,,,,4.658203125,-8.02734375,0,0,1,1.27204394341,,,,,2015_Sep_25_1753,A,facesParametric,11,59.712535022,
./stim/MorphM6_05_orig.jpg,147,,,,,0,147,147,147,,,,,,,,,,,,,,,,,,,4.658203125,-8.02734375,1,0,0,2.36117386818,,,,,2015_Sep_25_1753,A,facesParametric,11,59.712535022,
./stim/MorphF7_10_orig.jpg,148,,,,,0,148,148,148,,,,,,,,,,,,,,,,,,,4.658203125,-8.02734375,0,0,1,2.96520400047,,,,,2015_Sep_25_1753,A,facesParametric,11,59.712535022,
./stim/MorphM9_09_orig.jpg,149,,,,,0,149,149,149,,,,,,,,,,,,,,,,,,,4.658203125,-8.02734375,0,0,1,1.15506386757,,,,,2015_Sep_25_1753,A,facesParametric,11,59.712535022,
./stim/MorphF9_00_orig.jpg,150,,,,,0,150,150,150,,,,,,,,,,,,,,,,,,,4.658203125,-8.02734375,1,0,0,1.27243614197,,,,,2015_Sep_25_1753,A,facesParametric,11,59.712535022,
./stim/MorphM7_09_orig.jpg,151,,,,,0,151,151,151,,,,,,,,,,,,,,,,,,,4.658203125,-8.02734375,0,0,1,0.702436923981,,,,,2015_Sep_25_1753,A,facesParametric,11,59.712535022,
./stim/MorphM3_02_orig.jpg,152,,,,,0,152,152,152,,,,,,,,,,,,,,,,,,,4.658203125,-8.02734375,0,0,1,1.02133798599,,,,,2015_Sep_25_1753,A,facesParametric,11,59.712535022,
./stim/MorphM5_03_orig.jpg,153,,,,,0,153,153,153,,,,,,,,,,,,,,,,,,,4.658203125,-8.02734375,1,0,0,21.2978861332,,,,,2015_Sep_25_1753,A,facesParametric,11,59.712535022,
./stim/MorphM3_03_orig.jpg,154,,,,,0,154,154,154,,,,,,,,,,,,,,,,,,,4.658203125,-8.02734375,1,0,0,7.18847203255,,,,,2015_Sep_25_1753,A,facesParametric,11,59.712535022,
./stim/MorphF4_04_orig.jpg,155,,,,,0,155,155,155,,,,,,,,,,,,,,,,,,,4.658203125,-8.02734375,1,0,0,1.00390601158,,,,,2015_Sep_25_1753,A,facesParametric,11,59.712535022,
./stim/MorphF2_08_orig.jpg,156,,,,,0,156,156,156,,,,,,,,,,,,,,,,,,,4.658203125,-8.02734375,0,0,1,1.13839101791,,,,,2015_Sep_25_1753,A,facesParametric,11,59.712535022,
./stim/MorphM4_10_orig.jpg,157,,,,,0,157,157,157,,,,,,,,,,,,,,,,,,,4.658203125,-8.02734375,0,0,1,0.970854043961,,,,,2015_Sep_25_1753,A,facesParametric,11,59.712535022,
./stim/MorphF9_05_orig.jpg,158,,,,,0,158,158,158,,,,,,,,,,,,,,,,,,,4.658203125,-8.02734375,1,0,0,2.56065416336,,,,,2015_Sep_25_1753,A,facesParametric,11,59.712535022,
./stim/MorphF10_00_orig.jpg,159,,,,,0,159,159,159,,,,,,,,,,,,,,,,,,,4.658203125,-8.02734375,1,0,0,0.853219985962,,,,,2015_Sep_25_1753,A,facesParametric,11,59.712535022,
./stim/MorphF6_00_orig.jpg,160,,,,,0,160,160,160,,,,,,,,,,,,,,,,,,,4.658203125,-8.02734375,1,0,0,1.32270216942,,,,,2015_Sep_25_1753,A,facesParametric,11,59.712535022,
./stim/MorphM4_06_orig.jpg,161,,,,,0,161,161,161,,,,,,,,,,,,,,,,,,,4.658203125,-8.02734375,0,0,1,1.10361909866,,,,,2015_Sep_25_1753,A,facesParametric,11,59.712535022,
./stim/MorphF10_08_orig.jpg,162,,,,,0,162,162,162,,,,,,,,,,,,,,,,,,,4.658203125,-8.02734375,0,0,1,0.870106935501,,,,,2015_Sep_25_1753,A,facesParametric,11,59.712535022,
./stim/MorphF6_01_orig.jpg,163,,,,,0,163,163,163,,,,,,,,,,,,,,,,,,,4.658203125,-8.02734375,1,0,0,0.786620855331,,,,,2015_Sep_25_1753,A,facesParametric,11,59.712535022,
./stim/MorphM2_02_orig.jpg,164,,,,,0,164,164,164,,,,,,,,,,,,,,,,,,,4.658203125,-8.02734375,1,0,0,1.05427503586,,,,,2015_Sep_25_1753,A,facesParametric,11,59.712535022,
./stim/MorphF9_03_orig.jpg,165,,,,,0,165,165,165,,,,,,,,,,,,,,,,,,,4.658203125,-8.02734375,1,0,0,1.42304491997,,,,,2015_Sep_25_1753,A,facesParametric,11,59.712535022,
./stim/MorphM1_04_orig.jpg,166,,,,,0,166,166,166,,,,,,,,,,,,,,,,,,,4.658203125,-8.02734375,1,0,0,1.22235298157,,,,,2015_Sep_25_1753,A,facesParametric,11,59.712535022,
./stim/MorphF6_04_orig.jpg,167,,,,,0,167,167,167,,,,,,,,,,,,,,,,,,,4.658203125,-8.02734375,0,0,1,25.4717800617,,,,,2015_Sep_25_1753,A,facesParametric,11,59.712535022,
./stim/MorphF1_00_orig.jpg,168,,,,,0,168,168,168,,,,,,,,,,,,,,,,,,,4.658203125,-8.02734375,1,0,0,3.75151491165,,,,,2015_Sep_25_1753,A,facesParametric,11,59.712535022,
./stim/MorphM10_03_orig.jpg,169,,,,,0,169,169,169,,,,,,,,,,,,,,,,,,,4.658203125,-8.02734375,1,0,0,3.75294804573,,,,,2015_Sep_25_1753,A,facesParametric,11,59.712535022,
./stim/MorphM8_05_orig.jpg,170,,,,,0,170,170,170,,,,,,,,,,,,,,,,,,,4.658203125,-8.02734375,1,0,0,4.85855197906,,,,,2015_Sep_25_1753,A,facesParametric,11,59.712535022,
./stim/MorphF4_09_orig.jpg,171,,,,,0,171,171,171,,,,,,,,,,,,,,,,,,,4.658203125,-8.02734375,0,0,1,1.80707097054,,,,,2015_Sep_25_1753,A,facesParametric,11,59.712535022,
./stim/MorphF2_06_orig.jpg,172,,,,,0,172,172,172,,,,,,,,,,,,,,,,,,,4.658203125,-8.02734375,0,0,1,1.62423300743,,,,,2015_Sep_25_1753,A,facesParametric,11,59.712535022,
./stim/MorphM10_10_orig.jpg,173,,,,,0,173,173,173,,,,,,,,,,,,,,,,,,,4.658203125,-8.02734375,0,0,1,0.8351790905,,,,,2015_Sep_25_1753,A,facesParametric,11,59.712535022,
./stim/MorphM1_02_orig.jpg,174,,,,,0,174,174,174,,,,,,,,,,,,,,,,,,,4.658203125,-8.02734375,1,0,0,1.10517597198,,,,,2015_Sep_25_1753,A,facesParametric,11,59.712535022,
./stim/MorphM9_08_orig.jpg,175,,,,,0,175,175,175,,,,,,,,,,,,,,,,,,,4.658203125,-8.02734375,0,0,1,3.85188698769,,,,,2015_Sep_25_1753,A,facesParametric,11,59.712535022,
./stim/MorphF7_06_orig.jpg,176,,,,,0,176,176,176,,,,,,,,,,,,,,,,,,,4.658203125,-8.02734375,0,0,1,1.28930497169,,,,,2015_Sep_25_1753,A,facesParametric,11,59.712535022,
./stim/MorphM6_02_orig.jpg,177,,,,,0,177,177,177,,,,,,,,,,,,,,,,,,,4.658203125,-8.02734375,1,0,0,1.10543298721,,,,,2015_Sep_25_1753,A,facesParametric,11,59.712535022,
./stim/MorphF2_02_orig.jpg,178,,,,,0,178,178,178,,,,,,,,,,,,,,,,,,,4.658203125,-8.02734375,1,0,0,1.00281214714,,,,,2015_Sep_25_1753,A,facesParametric,11,59.712535022,
./stim/MorphF7_09_orig.jpg,179,,,,,0,179,179,179,,,,,,,,,,,,,,,,,,,4.658203125,-8.02734375,0,0,1,0.920629024506,,,,,2015_Sep_25_1753,A,facesParametric,11,59.712535022,
./stim/MorphF6_10_orig.jpg,180,,,,,0,180,180,180,,,,,,,,,,,,,,,,,,,4.658203125,-8.02734375,0,0,1,1.00467014313,,,,,2015_Sep_25_1753,A,facesParametric,11,59.712535022,
./stim/MorphM1_05_orig.jpg,181,,,,,0,181,181,181,,,,,,,,,,,,,,,,,,,4.658203125,-8.02734375,1,0,0,1.94127893448,,,,,2015_Sep_25_1753,A,facesParametric,11,59.712535022,
./stim/MorphF5_00_orig.jpg,182,,,,,0,182,182,182,,,,,,,,,,,,,,,,,,,4.658203125,-8.02734375,1,0,0,1.15250086784,,,,,2015_Sep_25_1753,A,facesParametric,11,59.712535022,
./stim/MorphM5_09_orig.jpg,183,,,,,0,183,183,183,,,,,,,,,,,,,,,,,,,4.658203125,-8.02734375,0,0,1,1.62454199791,,,,,2015_Sep_25_1753,A,facesParametric,11,59.712535022,
./stim/MorphM2_01_orig.jpg,184,,,,,0,184,184,184,,,,,,,,,,,,,,,,,,,4.658203125,-8.02734375,1,0,0,1.32272601128,,,,,2015_Sep_25_1753,A,facesParametric,11,59.712535022,
./stim/MorphM6_04_orig.jpg,185,,,,,0,185,185,185,,,,,,,,,,,,,,,,,,,4.658203125,-8.02734375,1,0,0,1.69179105759,,,,,2015_Sep_25_1753,A,facesParametric,11,59.712535022,
./stim/MorphM1_08_orig.jpg,186,,,,,0,186,186,186,,,,,,,,,,,,,,,,,,,4.658203125,-8.02734375,1,0,0,1.50647997856,,,,,2015_Sep_25_1753,A,facesParametric,11,59.712535022,
./stim/MorphM3_04_orig.jpg,187,,,,,0,187,187,187,,,,,,,,,,,,,,,,,,,4.658203125,-8.02734375,0,0,1,1.08763694763,,,,,2015_Sep_25_1753,A,facesParametric,11,59.712535022,
./stim/MorphF9_08_orig.jpg,188,,,,,0,188,188,188,,,,,,,,,,,,,,,,,,,4.658203125,-8.02734375,0,0,1,1.13926482201,,,,,2015_Sep_25_1753,A,facesParametric,11,59.712535022,
./stim/MorphM3_01_orig.jpg,189,,,,,0,189,189,189,,,,,,,,,,,,,,,,,,,4.658203125,-8.02734375,0,0,1,1.03677392006,,,,,2015_Sep_25_1753,A,facesParametric,11,59.712535022,
./stim/MorphF3_02_orig.jpg,190,,,,,0,190,190,190,,,,,,,,,,,,,,,,,,,4.658203125,-8.02734375,1,0,0,0.970099925995,,,,,2015_Sep_25_1753,A,facesParametric,11,59.712535022,
./stim/MorphF4_02_orig.jpg,191,,,,,0,191,191,191,,,,,,,,,,,,,,,,,,,4.658203125,-8.02734375,1,0,0,1.00247693062,,,,,2015_Sep_25_1753,A,facesParametric,11,59.712535022,
./stim/MorphM6_08_orig.jpg,192,,,,,0,192,192,192,,,,,,,,,,,,,,,,,,,4.658203125,-8.02734375,0,0,1,1.03826999664,,,,,2015_Sep_25_1753,A,facesParametric,11,59.712535022,
./stim/MorphF4_07_orig.jpg,193,,,,,0,193,193,193,,,,,,,,,,,,,,,,,,,4.658203125,-8.02734375,0,0,1,4.00207901001,,,,,2015_Sep_25_1753,A,facesParametric,11,59.712535022,
./stim/MorphM3_08_orig.jpg,194,,,,,0,194,194,194,,,,,,,,,,,,,,,,,,,4.658203125,-8.02734375,0,0,1,1.17213392258,,,,,2015_Sep_25_1753,A,facesParametric,11,59.712535022,
./stim/MorphF5_05_orig.jpg,195,,,,,0,195,195,195,,,,,,,,,,,,,,,,,,,4.658203125,-8.02734375,1,0,0,0.802816152573,,,,,2015_Sep_25_1753,A,facesParametric,11,59.712535022,
./stim/MorphM8_08_orig.jpg,196,,,,,0,196,196,196,,,,,,,,,,,,,,,,,,,4.658203125,-8.02734375,0,0,1,1.08679103851,,,,,2015_Sep_25_1753,A,facesParametric,11,59.712535022,
./stim/MorphM2_00_orig.jpg,197,,,,,0,197,197,197,,,,,,,,,,,,,,,,,,,4.658203125,-8.02734375,1,0,0,0.836462974548,,,,,2015_Sep_25_1753,A,facesParametric,11,59.712535022,
./stim/MorphM9_03_orig.jpg,198,,,,,0,198,198,198,,,,,,,,,,,,,,,,,,,4.658203125,-8.02734375,1,0,0,1.69110512733,,,,,2015_Sep_25_1753,A,facesParametric,11,59.712535022,
./stim/MorphF8_03_orig.jpg,199,,,,,0,199,199,199,,,,,,,,,,,,,,,,,,,4.658203125,-8.02734375,1,0,0,0.819167137146,,,,,2015_Sep_25_1753,A,facesParametric,11,59.712535022,
./stim/MorphM8_09_orig.jpg,200,,,,,0,200,200,200,,,,,,,,,,,,,,,,,,,4.658203125,-8.02734375,0,0,1,0.987613916397,,,,,2015_Sep_25_1753,A,facesParametric,11,59.712535022,
./stim/MorphM6_10_orig.jpg,201,,,,,0,201,201,201,,,,,,,,,,,,,,,,,,,4.658203125,-8.02734375,0,0,1,1.00480484962,,,,,2015_Sep_25_1753,A,facesParametric,11,59.712535022,
./stim/MorphF5_03_orig.jpg,202,,,,,0,202,202,202,,,,,,,,,,,,,,,,,,,4.658203125,-8.02734375,1,0,0,1.01822090149,,,,,2015_Sep_25_1753,A,facesParametric,11,59.712535022,
./stim/MorphF3_01_orig.jpg,203,,,,,0,203,203,203,,,,,,,,,,,,,,,,,,,4.658203125,-8.02734375,1,0,0,1.22221398354,,,,,2015_Sep_25_1753,A,facesParametric,11,59.712535022,
./stim/MorphF6_07_orig.jpg,204,,,,,0,204,204,204,,,,,,,,,,,,,,,,,,,4.658203125,-8.02734375,0,0,1,2.57960391045,,,,,2015_Sep_25_1753,A,facesParametric,11,59.712535022,
./stim/MorphF2_10_orig.jpg,205,,,,,0,205,205,205,,,,,,,,,,,,,,,,,,,4.658203125,-8.02734375,0,0,1,0.903697967529,,,,,2015_Sep_25_1753,A,facesParametric,11,59.712535022,
./stim/MorphM3_00_orig.jpg,206,,,,,0,206,206,206,,,,,,,,,,,,,,,,,,,4.658203125,-8.02734375,0,0,1,0.920368909836,,,,,2015_Sep_25_1753,A,facesParametric,11,59.712535022,
./stim/MorphM7_04_orig.jpg,207,,,,,0,207,207,207,,,,,,,,,,,,,,,,,,,4.658203125,-8.02734375,1,0,0,0.920584917068,,,,,2015_Sep_25_1753,A,facesParametric,11,59.712535022,
./stim/MorphF8_04_orig.jpg,208,,,,,0,208,208,208,,,,,,,,,,,,,,,,,,,4.658203125,-8.02734375,1,0,0,1.43991494179,,,,,2015_Sep_25_1753,A,facesParametric,11,59.712535022,
./stim/MorphM8_00_orig.jpg,209,,,,,0,209,209,209,,,,,,,,,,,,,,,,,,,4.658203125,-8.02734375,1,0,0,3.06358194351,,,,,2015_Sep_25_1753,A,facesParametric,11,59.712535022,
./stim/MorphM2_07_orig.jpg,210,,,,,0,210,210,210,,,,,,,,,,,,,,,,,,,4.658203125,-8.02734375,1,0,0,2.81421995163,,,,,2015_Sep_25_1753,A,facesParametric,11,59.712535022,
./stim/MorphF3_10_orig.jpg,211,,,,,0,211,211,211,,,,,,,,,,,,,,,,,,,4.658203125,-8.02734375,1,0,0,0.870347976685,,,,,2015_Sep_25_1753,A,facesParametric,11,59.712535022,
./stim/MorphF10_05_orig.jpg,212,,,,,0,212,212,212,,,,,,,,,,,,,,,,,,,4.658203125,-8.02734375,1,0,0,0.786725997925,,,,,2015_Sep_25_1753,A,facesParametric,11,59.712535022,
./stim/MorphM4_00_orig.jpg,213,,,,,0,213,213,213,,,,,,,,,,,,,,,,,,,4.658203125,-8.02734375,1,0,0,0.903594970703,,,,,2015_Sep_25_1753,A,facesParametric,11,59.712535022,
./stim/MorphF10_07_orig.jpg,214,,,,,0,214,214,214,,,,,,,,,,,,,,,,,,,4.658203125,-8.02734375,0,0,1,1.42308998108,,,,,2015_Sep_25_1753,A,facesParametric,11,59.712535022,
./stim/MorphM6_07_orig.jpg,215,,,,,0,215,215,215,,,,,,,,,,,,,,,,,,,4.658203125,-8.02734375,1,0,0,1.37224507332,,,,,2015_Sep_25_1753,A,facesParametric,11,59.712535022,
./stim/MorphM4_07_orig.jpg,216,,,,,0,216,216,216,,,,,,,,,,,,,,,,,,,4.658203125,-8.02734375,0,0,1,2.3619248867,,,,,2015_Sep_25_1753,A,facesParametric,11,59.712535022,
./stim/MorphF4_10_orig.jpg,217,,,,,0,217,217,217,,,,,,,,,,,,,,,,,,,4.658203125,-8.02734375,0,0,1,0.836783885956,,,,,2015_Sep_25_1753,A,facesParametric,11,59.712535022,
./stim/MorphM8_07_orig.jpg,218,,,,,0,218,218,218,,,,,,,,,,,,,,,,,,,4.658203125,-8.02734375,0,0,1,1.89245390892,,,,,2015_Sep_25_1753,A,facesParametric,11,59.712535022,
./stim/MorphF4_05_orig.jpg,219,,,,,0,219,219,219,,,,,,,,,,,,,,,,,,,4.658203125,-8.02734375,1,0,0,1.27259111404,,,,,2015_Sep_25_1753,A,facesParametric,11,59.712535022,
,,,,,,,,,,,,,,,,,,,,,,,,,,,,,,,,,,return,1.96104621887,,,2015_Sep_25_1753,A,facesParametric,11,59.712535022,
./stim/MorphM8_06_orig.jpg,0,,,,,,,,,0,0,0,0,,,,,,,,,,,,,,,4.658203125,-8.02734375,1,0,0,6.78082990646,,,,,2015_Sep_25_1753,A,facesParametric,11,59.712535022,
./stim/MorphF3_06_orig.jpg,1,,,,,,,,,0,1,1,1,,,,,,,,,,,,,,,4.658203125,-8.02734375,0,0,1,1.27079200745,,,,,2015_Sep_25_1753,A,facesParametric,11,59.712535022,
./stim/MorphF4_10_orig.jpg,2,,,,,,,,,0,2,2,2,,,,,,,,,,,,,,,4.658203125,-8.02734375,0,0,1,0.870627880096,,,,,2015_Sep_25_1753,A,facesParametric,11,59.712535022,
./stim/MorphM10_07_orig.jpg,3,,,,,,,,,0,3,3,3,,,,,,,,,,,,,,,4.658203125,-8.02734375,0,0,1,4.00413393974,,,,,2015_Sep_25_1753,A,facesParametric,11,59.712535022,
./stim/MorphF3_02_orig.jpg,4,,,,,,,,,0,4,4,4,,,,,,,,,,,,,,,4.658203125,-8.02734375,1,0,0,1.1217341423,,,,,2015_Sep_25_1753,A,facesParametric,11,59.712535022,
./stim/MorphF9_01_orig.jpg,5,,,,,,,,,0,5,5,5,,,,,,,,,,,,,,,4.658203125,-8.02734375,1,0,0,0.869931221008,,,,,2015_Sep_25_1753,A,facesParametric,11,59.712535022,
./stim/MorphM2_05_orig.jpg,6,,,,,,,,,0,6,6,6,,,,,,,,,,,,,,,4.658203125,-8.02734375,1,0,0,4.12181091309,,,,,2015_Sep_25_1753,A,facesParametric,11,59.712535022,
./stim/MorphM1_05_orig.jpg,7,,,,,,,,,0,7,7,7,,,,,,,,,,,,,,,4.658203125,-8.02734375,1,0,0,1.01994490623,,,,,2015_Sep_25_1753,A,facesParametric,11,59.712535022,
./stim/MorphM3_09_orig.jpg,8,,,,,,,,,0,8,8,8,,,,,,,,,,,,,,,4.658203125,-8.02734375,0,0,1,0.987675189972,,,,,2015_Sep_25_1753,A,facesParametric,11,59.712535022,
./stim/MorphF1_05_orig.jpg,9,,,,,,,,,0,9,9,9,,,,,,,,,,,,,,,4.658203125,-8.02734375,1,0,0,2.74743509293,,,,,2015_Sep_25_1753,A,facesParametric,11,59.712535022,
./stim/MorphF10_05_orig.jpg,10,,,,,,,,,0,10,10,10,,,,,,,,,,,,,,,4.658203125,-8.02734375,0,0,1,1.13861107826,,,,,2015_Sep_25_1753,A,facesParametric,11,59.712535022,
./stim/MorphM9_02_orig.jpg,11,,,,,,,,,0,11,11,11,,,,,,,,,,,,,,,4.658203125,-8.02734375,1,0,0,1.12144708633,,,,,2015_Sep_25_1753,A,facesParametric,11,59.712535022,
./stim/MorphF4_02_orig.jpg,12,,,,,,,,,0,12,12,12,,,,,,,,,,,,,,,4.658203125,-8.02734375,1,0,0,0.752956151962,,,,,2015_Sep_25_1753,A,facesParametric,11,59.712535022,
./stim/MorphM6_05_orig.jpg,13,,,,,,,,,0,13,13,13,,,,,,,,,,,,,,,4.658203125,-8.02734375,1,0,0,0.852864027023,,,,,2015_Sep_25_1753,A,facesParametric,11,59.712535022,
./stim/MorphF4_03_orig.jpg,14,,,,,,,,,0,14,14,14,,,,,,,,,,,,,,,4.658203125,-8.02734375,1,0,0,0.82014799118,,,,,2015_Sep_25_1753,A,facesParametric,11,59.712535022,
./stim/MorphF9_02_orig.jpg,15,,,,,,,,,0,15,15,15,,,,,,,,,,,,,,,4.658203125,-8.02734375,1,0,0,1.67290091515,,,,,2015_Sep_25_1753,A,facesParametric,11,59.712535022,
./stim/MorphF1_04_orig.jpg,16,,,,,,,,,0,16,16,16,,,,,,,,,,,,,,,4.658203125,-8.02734375,1,0,0,0.735445976257,,,,,2015_Sep_25_1753,A,facesParametric,11,59.712535022,
./stim/MorphF9_05_orig.jpg,17,,,,,,,,,0,17,17,17,,,,,,,,,,,,,,,4.658203125,-8.02734375,1,0,0,1.37318205833,,,,,2015_Sep_25_1753,A,facesParametric,11,59.712535022,
./stim/MorphM8_10_orig.jpg,18,,,,,,,,,0,18,18,18,,,,,,,,,,,,,,,4.658203125,-8.02734375,0,0,1,0.919265985489,,,,,2015_Sep_25_1753,A,facesParametric,11,59.712535022,
./stim/MorphF6_09_orig.jpg,19,,,,,,,,,0,19,19,19,,,,,,,,,,,,,,,4.658203125,-8.02734375,0,0,1,0.870263814926,,,,,2015_Sep_25_1753,A,facesParametric,11,59.712535022,
./stim/MorphM8_04_orig.jpg,20,,,,,,,,,0,20,20,20,,,,,,,,,,,,,,,4.658203125,-8.02734375,1,0,0,0.819771051407,,,,,2015_Sep_25_1753,A,facesParametric,11,59.712535022,
./stim/MorphF3_04_orig.jpg,21,,,,,,,,,0,21,21,21,,,,,,,,,,,,,,,4.658203125,-8.02734375,1,0,0,0.853404045105,,,,,2015_Sep_25_1753,A,facesParametric,11,59.712535022,
./stim/MorphM3_06_orig.jpg,22,,,,,,,,,0,22,22,22,,,,,,,,,,,,,,,4.658203125,-8.02734375,0,0,1,0.820267915726,,,,,2015_Sep_25_1753,A,facesParametric,11,59.712535022,
./stim/MorphF5_02_orig.jpg,23,,,,,,,,,0,23,23,23,,,,,,,,,,,,,,,4.658203125,-8.02734375,1,0,0,0.803260087967,,,,,2015_Sep_25_1753,A,facesParametric,11,59.712535022,
./stim/MorphM8_01_orig.jpg,24,,,,,,,,,0,24,24,24,,,,,,,,,,,,,,,4.658203125,-8.02734375,1,0,0,1.10493183136,,,,,2015_Sep_25_1753,A,facesParametric,11,59.712535022,
./stim/MorphF8_04_orig.jpg,25,,,,,,,,,0,25,25,25,,,,,,,,,,,,,,,4.658203125,-8.02734375,1,0,0,0.719305038452,,,,,2015_Sep_25_1753,A,facesParametric,11,59.712535022,
./stim/MorphF10_07_orig.jpg,26,,,,,,,,,0,26,26,26,,,,,,,,,,,,,,,4.658203125,-8.02734375,0,0,1,0.83708691597,,,,,2015_Sep_25_1753,A,facesParametric,11,59.712535022,
./stim/MorphF1_10_orig.jpg,27,,,,,,,,,0,27,27,27,,,,,,,,,,,,,,,4.658203125,-8.02734375,0,0,1,1.17167210579,,,,,2015_Sep_25_1753,A,facesParametric,11,59.712535022,
./stim/MorphM9_00_orig.jpg,28,,,,,,,,,0,28,28,28,,,,,,,,,,,,,,,4.658203125,-8.02734375,1,0,0,1.11933708191,,,,,2015_Sep_25_1753,A,facesParametric,11,59.712535022,
./stim/MorphF6_01_orig.jpg,29,,,,,,,,,0,29,29,29,,,,,,,,,,,,,,,4.658203125,-8.02734375,1,0,0,1.08809185028,,,,,2015_Sep_25_1753,A,facesParametric,11,59.712535022,
./stim/MorphF9_00_orig.jpg,30,,,,,,,,,0,30,30,30,,,,,,,,,,,,,,,4.658203125,-8.02734375,1,0,0,1.22192978859,,,,,2015_Sep_25_1753,A,facesParametric,11,59.712535022,
./stim/MorphM10_01_orig.jpg,31,,,,,,,,,0,31,31,31,,,,,,,,,,,,,,,4.658203125,-8.02734375,1,0,0,0.651053905487,,,,,2015_Sep_25_1753,A,facesParametric,11,59.712535022,
./stim/MorphF3_05_orig.jpg,32,,,,,,,,,0,32,32,32,,,,,,,,,,,,,,,4.658203125,-8.02734375,1,0,0,0.753338098526,,,,,2015_Sep_25_1753,A,facesParametric,11,59.712535022,
./stim/MorphM5_02_orig.jpg,33,,,,,,,,,0,33,33,33,,,,,,,,,,,,,,,4.658203125,-8.02734375,1,0,0,1.74070286751,,,,,2015_Sep_25_1753,A,facesParametric,11,59.712535022,
./stim/MorphM2_02_orig.jpg,34,,,,,,,,,0,34,34,34,,,,,,,,,,,,,,,4.658203125,-8.02734375,1,0,0,4.07047700882,,,,,2015_Sep_25_1753,A,facesParametric,11,59.712535022,
./stim/MorphF6_07_orig.jpg,35,,,,,,,,,0,35,35,35,,,,,,,,,,,,,,,4.658203125,-8.02734375,0,0,1,0.769359111786,,,,,2015_Sep_25_1753,A,facesParametric,11,59.712535022,
./stim/MorphF1_07_orig.jpg,36,,,,,,,,,0,36,36,36,,,,,,,,,,,,,,,4.658203125,-8.02734375,1,0,0,2.86579704285,,,,,2015_Sep_25_1753,A,facesParametric,11,59.712535022,
./stim/MorphF5_04_orig.jpg,37,,,,,,,,,0,37,37,37,,,,,,,,,,,,,,,4.658203125,-8.02734375,1,0,0,1.0703830719,,,,,2015_Sep_25_1753,A,facesParametric,11,59.712535022,
./stim/MorphM4_04_orig.jpg,38,,,,,,,,,0,38,38,38,,,,,,,,,,,,,,,4.658203125,-8.02734375,1,0,0,2.04327106476,,,,,2015_Sep_25_1753,A,facesParametric,11,59.712535022,
./stim/MorphM3_05_orig.jpg,39,,,,,,,,,0,39,39,39,,,,,,,,,,,,,,,4.658203125,-8.02734375,0,0,1,0.853549003601,,,,,2015_Sep_25_1753,A,facesParametric,11,59.712535022,
./stim/MorphM6_02_orig.jpg,40,,,,,,,,,0,40,40,40,,,,,,,,,,,,,,,4.658203125,-8.02734375,1,0,0,1.11963605881,,,,,2015_Sep_25_1753,A,facesParametric,11,59.712535022,
./stim/MorphM10_02_orig.jpg,41,,,,,,,,,0,41,41,41,,,,,,,,,,,,,,,4.658203125,-8.02734375,1,0,0,0.735643148422,,,,,2015_Sep_25_1753,A,facesParametric,11,59.712535022,
./stim/MorphM5_00_orig.jpg,42,,,,,,,,,0,42,42,42,,,,,,,,,,,,,,,4.658203125,-8.02734375,1,0,0,0.836426973343,,,,,2015_Sep_25_1753,A,facesParametric,11,59.712535022,
./stim/MorphM2_01_orig.jpg,43,,,,,,,,,0,43,43,43,,,,,,,,,,,,,,,4.658203125,-8.02734375,1,0,0,1.02078294754,,,,,2015_Sep_25_1753,A,facesParametric,11,59.712535022,
./stim/MorphF2_07_orig.jpg,44,,,,,,,,,0,44,44,44,,,,,,,,,,,,,,,4.658203125,-8.02734375,0,0,1,0.803682088852,,,,,2015_Sep_25_1753,A,facesParametric,11,59.712535022,
./stim/MorphM3_01_orig.jpg,45,,,,,,,,,0,45,45,45,,,,,,,,,,,,,,,4.658203125,-8.02734375,0,0,1,1.15523195267,,,,,2015_Sep_25_1753,A,facesParametric,11,59.712535022,
./stim/MorphF7_01_orig.jpg,46,,,,,,,,,0,46,46,46,,,,,,,,,,,,,,,4.658203125,-8.02734375,1,0,0,1.28915095329,,,,,2015_Sep_25_1753,A,facesParametric,11,59.712535022,
./stim/MorphF3_07_orig.jpg,47,,,,,,,,,0,47,47,47,,,,,,,,,,,,,,,4.658203125,-8.02734375,1,0,0,0.734070062637,,,,,2015_Sep_25_1753,A,facesParametric,11,59.712535022,
./stim/MorphF7_07_orig.jpg,48,,,,,,,,,0,48,48,48,,,,,,,,,,,,,,,4.658203125,-8.02734375,0,0,1,1.37264990807,,,,,2015_Sep_25_1753,A,facesParametric,11,59.712535022,
./stim/MorphM2_08_orig.jpg,49,,,,,,,,,0,49,49,49,,,,,,,,,,,,,,,4.658203125,-8.02734375,1,0,0,1.42113113403,,,,,2015_Sep_25_1753,A,facesParametric,11,59.712535022,
./stim/MorphF5_10_orig.jpg,50,,,,,,,,,0,50,50,50,,,,,,,,,,,,,,,4.658203125,-8.02734375,1,0,0,0.686060905457,,,,,2015_Sep_25_1753,A,facesParametric,11,59.712535022,
./stim/MorphF2_02_orig.jpg,51,,,,,,,,,0,51,51,51,,,,,,,,,,,,,,,4.658203125,-8.02734375,1,0,0,1.01915216446,,,,,2015_Sep_25_1753,A,facesParametric,11,59.712535022,
./stim/MorphM6_08_orig.jpg,52,,,,,,,,,0,52,52,52,,,,,,,,,,,,,,,4.658203125,-8.02734375,1,0,0,0.804244995117,,,,,2015_Sep_25_1753,A,facesParametric,11,59.712535022,
./stim/MorphF5_08_orig.jpg,53,,,,,,,,,0,53,53,53,,,,,,,,,,,,,,,4.658203125,-8.02734375,1,0,0,1.33766317368,,,,,2015_Sep_25_1753,A,facesParametric,11,59.712535022,
./stim/MorphM10_08_orig.jpg,54,,,,,,,,,0,54,54,54,,,,,,,,,,,,,,,4.658203125,-8.02734375,0,0,1,0.852854013443,,,,,2015_Sep_25_1753,A,facesParametric,11,59.712535022,
./stim/MorphF5_09_orig.jpg,55,,,,,,,,,0,55,55,55,,,,,,,,,,,,,,,4.658203125,-8.02734375,1,0,0,1.35640287399,,,,,2015_Sep_25_1753,A,facesParametric,11,59.712535022,
./stim/MorphF2_10_orig.jpg,56,,,,,,,,,0,56,56,56,,,,,,,,,,,,,,,4.658203125,-8.02734375,0,0,1,1.35461115837,,,,,2015_Sep_25_1753,A,facesParametric,11,59.712535022,
./stim/MorphF10_08_orig.jpg,57,,,,,,,,,0,57,57,57,,,,,,,,,,,,,,,4.658203125,-8.02734375,0,0,1,1.00428986549,,,,,2015_Sep_25_1753,A,facesParametric,11,59.712535022,
./stim/MorphF8_03_orig.jpg,58,,,,,,,,,0,58,58,58,,,,,,,,,,,,,,,4.658203125,-8.02734375,1,0,0,1.13878417015,,,,,2015_Sep_25_1753,A,facesParametric,11,59.712535022,
./stim/MorphM9_08_orig.jpg,59,,,,,,,,,0,59,59,59,,,,,,,,,,,,,,,4.658203125,-8.02734375,1,0,0,1.10507798195,,,,,2015_Sep_25_1753,A,facesParametric,11,59.712535022,
./stim/MorphF7_05_orig.jpg,60,,,,,,,,,0,60,60,60,,,,,,,,,,,,,,,4.658203125,-8.02734375,1,0,0,1.037514925,,,,,2015_Sep_25_1753,A,facesParametric,11,59.712535022,
./stim/MorphM7_06_orig.jpg,61,,,,,,,,,0,61,61,61,,,,,,,,,,,,,,,4.658203125,-8.02734375,1,0,0,0.852249860764,,,,,2015_Sep_25_1753,A,facesParametric,11,59.712535022,
./stim/MorphM5_07_orig.jpg,62,,,,,,,,,0,62,62,62,,,,,,,,,,,,,,,4.658203125,-8.02734375,0,0,1,2.69738101959,,,,,2015_Sep_25_1753,A,facesParametric,11,59.712535022,
./stim/MorphF5_05_orig.jpg,63,,,,,,,,,0,63,63,63,,,,,,,,,,,,,,,4.658203125,-8.02734375,1,0,0,0.669228076935,,,,,2015_Sep_25_1753,A,facesParametric,11,59.712535022,
./stim/MorphM1_09_orig.jpg,64,,,,,,,,,0,64,64,64,,,,,,,,,,,,,,,4.658203125,-8.02734375,1,0,0,0.76887011528,,,,,2015_Sep_25_1753,A,facesParametric,11,59.712535022,
./stim/MorphF9_08_orig.jpg,65,,,,,,,,,0,65,65,65,,,,,,,,,,,,,,,4.658203125,-8.02734375,1,0,0,1.30575704575,,,,,2015_Sep_25_1753,A,facesParametric,11,59.712535022,
./stim/MorphM5_04_orig.jpg,66,,,,,,,,,0,66,66,66,,,,,,,,,,,,,,,4.658203125,-8.02734375,1,0,0,1.1387989521,,,,,2015_Sep_25_1753,A,facesParametric,11,59.712535022,
./stim/MorphF2_06_orig.jpg,67,,,,,,,,,0,67,67,67,,,,,,,,,,,,,,,4.658203125,-8.02734375,1,0,0,1.37282896042,,,,,2015_Sep_25_1753,A,facesParametric,11,59.712535022,
./stim/MorphF10_00_orig.jpg,68,,,,,,,,,0,68,68,68,,,,,,,,,,,,,,,4.658203125,-8.02734375,1,0,0,0.919947862625,,,,,2015_Sep_25_1753,A,facesParametric,11,59.712535022,
./stim/MorphF7_06_orig.jpg,69,,,,,,,,,0,69,69,69,,,,,,,,,,,,,,,4.658203125,-8.02734375,1,0,0,0.719416856766,,,,,2015_Sep_25_1753,A,facesParametric,11,59.712535022,
./stim/MorphF1_06_orig.jpg,70,,,,,,,,,0,70,70,70,,,,,,,,,,,,,,,4.658203125,-8.02734375,1,0,0,0.702711105347,,,,,2015_Sep_25_1753,A,facesParametric,11,59.712535022,
./stim/MorphM1_06_orig.jpg,71,,,,,,,,,0,71,71,71,,,,,,,,,,,,,,,4.658203125,-8.02734375,1,0,0,1.07102799416,,,,,2015_Sep_25_1753,A,facesParametric,11,59.712535022,
./stim/MorphM4_10_orig.jpg,72,,,,,,,,,0,72,72,72,,,,,,,,,,,,,,,4.658203125,-8.02734375,0,0,1,1.18872308731,,,,,2015_Sep_25_1753,A,facesParametric,11,59.712535022,
./stim/MorphF4_05_orig.jpg,73,,,,,,,,,0,73,73,73,,,,,,,,,,,,,,,4.658203125,-8.02734375,1,0,0,1.1361348629,,,,,2015_Sep_25_1753,A,facesParametric,11,59.712535022,
./stim/MorphM2_04_orig.jpg,74,,,,,,,,,0,74,74,74,,,,,,,,,,,,,,,4.658203125,-8.02734375,1,0,0,0.987222909927,,,,,2015_Sep_25_1753,A,facesParametric,11,59.712535022,
./stim/MorphM4_02_orig.jpg,75,,,,,,,,,0,75,75,75,,,,,,,,,,,,,,,4.658203125,-8.02734375,1,0,0,0.685938119888,,,,,2015_Sep_25_1753,A,facesParametric,11,59.712535022,
./stim/MorphF5_00_orig.jpg,76,,,,,,,,,0,76,76,76,,,,,,,,,,,,,,,4.658203125,-8.02734375,1,0,0,0.701812028885,,,,,2015_Sep_25_1753,A,facesParametric,11,59.712535022,
./stim/MorphF10_04_orig.jpg,77,,,,,,,,,0,77,77,77,,,,,,,,,,,,,,,4.658203125,-8.02734375,1,0,0,0.851680994034,,,,,2015_Sep_25_1753,A,facesParametric,11,59.712535022,
./stim/MorphF9_07_orig.jpg,78,,,,,,,,,0,78,78,78,,,,,,,,,,,,,,,4.658203125,-8.02734375,1,0,0,0.685762882233,,,,,2015_Sep_25_1753,A,facesParametric,11,59.712535022,
./stim/MorphM4_01_orig.jpg,79,,,,,,,,,0,79,79,79,,,,,,,,,,,,,,,4.658203125,-8.02734375,1,0,0,0.635853767395,,,,,2015_Sep_25_1753,A,facesParametric,11,59.712535022,
./stim/MorphF9_04_orig.jpg,80,,,,,,,,,0,80,80,80,,,,,,,,,,,,,,,4.658203125,-8.02734375,1,0,0,0.685262918472,,,,,2015_Sep_25_1753,A,facesParametric,11,59.712535022,
./stim/MorphF8_01_orig.jpg,81,,,,,,,,,0,81,81,81,,,,,,,,,,,,,,,4.658203125,-8.02734375,1,0,0,0.635515928268,,,,,2015_Sep_25_1753,A,facesParametric,11,59.712535022,
./stim/MorphF10_06_orig.jpg,82,,,,,,,,,0,82,82,82,,,,,,,,,,,,,,,4.658203125,-8.02734375,1,0,0,0.702306032181,,,,,2015_Sep_25_1753,A,facesParametric,11,59.712535022,
./stim/MorphM1_00_orig.jpg,83,,,,,,,,,0,83,83,83,,,,,,,,,,,,,,,4.658203125,-8.02734375,1,0,0,0.938402175903,,,,,2015_Sep_25_1753,A,facesParametric,11,59.712535022,
./stim/MorphF9_03_orig.jpg,84,,,,,,,,,0,84,84,84,,,,,,,,,,,,,,,4.658203125,-8.02734375,1,0,0,1.05321002007,,,,,2015_Sep_25_1753,A,facesParametric,11,59.712535022,
./stim/MorphM4_06_orig.jpg,85,,,,,,,,,0,85,85,85,,,,,,,,,,,,,,,4.658203125,-8.02734375,1,0,0,0.719621181488,,,,,2015_Sep_25_1753,A,facesParametric,11,59.712535022,
./stim/MorphF4_08_orig.jpg,86,,,,,,,,,0,86,86,86,,,,,,,,,,,,,,,4.658203125,-8.02734375,0,0,1,0.836750030518,,,,,2015_Sep_25_1753,A,facesParametric,11,59.712535022,
./stim/MorphF5_01_orig.jpg,87,,,,,,,,,0,87,87,87,,,,,,,,,,,,,,,4.658203125,-8.02734375,1,0,0,1.70695590973,,,,,2015_Sep_25_1753,A,facesParametric,11,59.712535022,
./stim/MorphF6_05_orig.jpg,88,,,,,,,,,0,88,88,88,,,,,,,,,,,,,,,4.658203125,-8.02734375,1,0,0,0.736041069031,,,,,2015_Sep_25_1753,A,facesParametric,11,59.712535022,
./stim/MorphM9_09_orig.jpg,89,,,,,,,,,0,89,89,89,,,,,,,,,,,,,,,4.658203125,-8.02734375,1,0,0,1.18941783905,,,,,2015_Sep_25_1753,A,facesParametric,11,59.712535022,
./stim/MorphM5_03_orig.jpg,90,,,,,,,,,0,90,90,90,,,,,,,,,,,,,,,4.658203125,-8.02734375,1,0,0,4.95925784111,,,,,2015_Sep_25_1753,A,facesParametric,11,59.712535022,
./stim/MorphM7_08_orig.jpg,91,,,,,,,,,0,91,91,91,,,,,,,,,,,,,,,4.658203125,-8.02734375,0,0,1,0.970780134201,,,,,2015_Sep_25_1753,A,facesParametric,11,59.712535022,
./stim/MorphF1_03_orig.jpg,92,,,,,,,,,0,92,92,92,,,,,,,,,,,,,,,4.658203125,-8.02734375,1,0,0,1.55707287788,,,,,2015_Sep_25_1753,A,facesParametric,11,59.712535022,
./stim/MorphM5_09_orig.jpg,93,,,,,,,,,0,93,93,93,,,,,,,,,,,,,,,4.658203125,-8.02734375,0,0,1,1.05359983444,,,,,2015_Sep_25_1753,A,facesParametric,11,59.712535022,
./stim/MorphF3_00_orig.jpg,94,,,,,,,,,0,94,94,94,,,,,,,,,,,,,,,4.658203125,-8.02734375,1,0,0,2.31095600128,,,,,2015_Sep_25_1753,A,facesParametric,11,59.712535022,
./stim/MorphF8_00_orig.jpg,95,,,,,,,,,0,95,95,95,,,,,,,,,,,,,,,4.658203125,-8.02734375,1,0,0,0.736015081406,,,,,2015_Sep_25_1753,A,facesParametric,11,59.712535022,
./stim/MorphM7_07_orig.jpg,96,,,,,,,,,0,96,96,96,,,,,,,,,,,,,,,4.658203125,-8.02734375,0,0,1,0.87037396431,,,,,2015_Sep_25_1753,A,facesParametric,11,59.712535022,
./stim/MorphF9_10_orig.jpg,97,,,,,,,,,0,97,97,97,,,,,,,,,,,,,,,4.658203125,-8.02734375,1,0,0,0.971139192581,,,,,2015_Sep_25_1753,A,facesParametric,11,59.712535022,
./stim/MorphM8_03_orig.jpg,98,,,,,,,,,0,98,98,98,,,,,,,,,,,,,,,4.658203125,-8.02734375,1,0,0,7.5740749836,,,,,2015_Sep_25_1753,A,facesParametric,11,59.712535022,
./stim/MorphM4_05_orig.jpg,99,,,,,,,,,0,99,99,99,,,,,,,,,,,,,,,4.658203125,-8.02734375,0,0,1,0.920319080353,,,,,2015_Sep_25_1753,A,facesParametric,11,59.712535022,
./stim/MorphM6_04_orig.jpg,100,,,,,,,,,0,100,100,100,,,,,,,,,,,,,,,4.658203125,-8.02734375,1,0,0,1.27259278297,,,,,2015_Sep_25_1753,A,facesParametric,11,59.712535022,
./stim/MorphM3_07_orig.jpg,101,,,,,,,,,0,101,101,101,,,,,,,,,,,,,,,4.658203125,-8.02734375,0,0,1,0.853296995163,,,,,2015_Sep_25_1753,A,facesParametric,11,59.712535022,
./stim/MorphM1_07_orig.jpg,102,,,,,,,,,0,102,102,102,,,,,,,,,,,,,,,4.658203125,-8.02734375,0,0,1,1.7755010128,,,,,2015_Sep_25_1753,A,facesParametric,11,59.712535022,
./stim/MorphM7_10_orig.jpg,103,,,,,,,,,0,103,103,103,,,,,,,,,,,,,,,4.658203125,-8.02734375,0,0,1,0.901869058609,,,,,2015_Sep_25_1753,A,facesParametric,11,59.712535022,
./stim/MorphF3_03_orig.jpg,104,,,,,,,,,0,104,104,104,,,,,,,,,,,,,,,4.658203125,-8.02734375,1,0,0,1.25583410263,,,,,2015_Sep_25_1753,A,facesParametric,11,59.712535022,
./stim/MorphF6_03_orig.jpg,105,,,,,,,,,0,105,105,105,,,,,,,,,,,,,,,4.658203125,-8.02734375,1,0,0,1.0545129776,,,,,2015_Sep_25_1753,A,facesParametric,11,59.712535022,
./stim/MorphF10_01_orig.jpg,106,,,,,,,,,0,106,106,106,,,,,,,,,,,,,,,4.658203125,-8.02734375,1,0,0,0.751679182053,,,,,2015_Sep_25_1753,A,facesParametric,11,59.712535022,
./stim/MorphM5_01_orig.jpg,107,,,,,,,,,0,107,107,107,,,,,,,,,,,,,,,4.658203125,-8.02734375,0,0,1,3.68464493752,,,,,2015_Sep_25_1753,A,facesParametric,11,59.712535022,
./stim/MorphF1_00_orig.jpg,108,,,,,,,,,0,108,108,108,,,,,,,,,,,,,,,4.658203125,-8.02734375,1,0,0,0.903792142868,,,,,2015_Sep_25_1753,A,facesParametric,11,59.712535022,
./stim/MorphF4_01_orig.jpg,109,,,,,,,,,0,109,109,109,,,,,,,,,,,,,,,4.658203125,-8.02734375,1,0,0,3.04763007164,,,,,2015_Sep_25_1753,A,facesParametric,11,59.712535022,
./stim/MorphM10_00_orig.jpg,110,,,,,,,,,0,110,110,110,,,,,,,,,,,,,,,4.658203125,-8.02734375,1,0,0,0.702435016632,,,,,2015_Sep_25_1753,A,facesParametric,11,59.712535022,
./stim/MorphM9_04_orig.jpg,111,,,,,,,,,0,111,111,111,,,,,,,,,,,,,,,4.658203125,-8.02734375,1,0,0,0.619255065918,,,,,2015_Sep_25_1753,A,facesParametric,11,59.712535022,
./stim/MorphM6_01_orig.jpg,112,,,,,,,,,0,112,112,112,,,,,,,,,,,,,,,4.658203125,-8.02734375,1,0,0,0.769289016724,,,,,2015_Sep_25_1753,A,facesParametric,11,59.712535022,
./stim/MorphF8_10_orig.jpg,113,,,,,,,,,0,113,113,113,,,,,,,,,,,,,,,4.658203125,-8.02734375,0,0,1,1.05442094803,,,,,2015_Sep_25_1753,A,facesParametric,11,59.712535022,
./stim/MorphF10_03_orig.jpg,114,,,,,,,,,0,114,114,114,,,,,,,,,,,,,,,4.658203125,-8.02734375,1,0,0,0.736426115036,,,,,2015_Sep_25_1753,A,facesParametric,11,59.712535022,
./stim/MorphM6_09_orig.jpg,115,,,,,,,,,0,115,115,115,,,,,,,,,,,,,,,4.658203125,-8.02734375,1,0,0,0.769593000412,,,,,2015_Sep_25_1753,A,facesParametric,11,59.712535022,
./stim/MorphF7_04_orig.jpg,116,,,,,,,,,0,116,116,116,,,,,,,,,,,,,,,4.658203125,-8.02734375,1,0,0,0.820008039474,,,,,2015_Sep_25_1753,A,facesParametric,11,59.712535022,
./stim/MorphF4_09_orig.jpg,117,,,,,,,,,0,117,117,117,,,,,,,,,,,,,,,4.658203125,-8.02734375,0,0,1,1.00465297699,,,,,2015_Sep_25_1753,A,facesParametric,11,59.712535022,
./stim/MorphF10_10_orig.jpg,118,,,,,,,,,0,118,118,118,,,,,,,,,,,,,,,4.658203125,-8.02734375,0,0,1,1.15272307396,,,,,2015_Sep_25_1753,A,facesParametric,11,59.712535022,
./stim/MorphF3_10_orig.jpg,119,,,,,,,,,0,119,119,119,,,,,,,,,,,,,,,4.658203125,-8.02734375,0,0,1,1.44031500816,,,,,2015_Sep_25_1753,A,facesParametric,11,59.712535022,
./stim/MorphF5_07_orig.jpg,120,,,,,,,,,0,120,120,120,,,,,,,,,,,,,,,4.658203125,-8.02734375,0,0,1,0.970538139343,,,,,2015_Sep_25_1753,A,facesParametric,11,59.712535022,
./stim/MorphM7_04_orig.jpg,121,,,,,,,,,0,121,121,121,,,,,,,,,,,,,,,4.658203125,-8.02734375,1,0,0,1.13831996918,,,,,2015_Sep_25_1753,A,facesParametric,11,59.712535022,
./stim/MorphF2_00_orig.jpg,122,,,,,,,,,0,122,122,122,,,,,,,,,,,,,,,4.658203125,-8.02734375,1,0,0,1.07182502747,,,,,2015_Sep_25_1753,A,facesParametric,11,59.712535022,
./stim/MorphM3_04_orig.jpg,123,,,,,,,,,0,123,123,123,,,,,,,,,,,,,,,4.658203125,-8.02734375,0,0,1,0.786018848419,,,,,2015_Sep_25_1753,A,facesParametric,11,59.712535022,
./stim/MorphM10_10_orig.jpg,124,,,,,,,,,0,124,124,124,,,,,,,,,,,,,,,4.658203125,-8.02734375,0,0,1,1.40660905838,,,,,2015_Sep_25_1753,A,facesParametric,11,59.712535022,
./stim/MorphM2_00_orig.jpg,125,,,,,,,,,0,125,125,125,,,,,,,,,,,,,,,4.658203125,-8.02734375,1,0,0,1.62190318108,,,,,2015_Sep_25_1753,A,facesParametric,11,59.712535022,
./stim/MorphM3_08_orig.jpg,126,,,,,,,,,0,126,126,126,,,,,,,,,,,,,,,4.658203125,-8.02734375,0,0,1,1.43976807594,,,,,2015_Sep_25_1753,A,facesParametric,11,59.712535022,
./stim/MorphF7_09_orig.jpg,127,,,,,,,,,0,127,127,127,,,,,,,,,,,,,,,4.658203125,-8.02734375,0,0,1,2.00996994972,,,,,2015_Sep_25_1753,A,facesParametric,11,59.712535022,
./stim/MorphF1_08_orig.jpg,128,,,,,,,,,0,128,128,128,,,,,,,,,,,,,,,4.658203125,-8.02734375,0,0,1,3.59979104996,,,,,2015_Sep_25_1753,A,facesParametric,11,59.712535022,
./stim/MorphF3_01_orig.jpg,129,,,,,,,,,0,129,129,129,,,,,,,,,,,,,,,4.658203125,-8.02734375,1,0,0,0.970422029495,,,,,2015_Sep_25_1753,A,facesParametric,11,59.712535022,
./stim/MorphF8_02_orig.jpg,130,,,,,,,,,0,130,130,130,,,,,,,,,,,,,,,4.658203125,-8.02734375,1,0,0,0.869324922562,,,,,2015_Sep_25_1753,A,facesParametric,11,59.712535022,
./stim/MorphF2_08_orig.jpg,131,,,,,,,,,0,131,131,131,,,,,,,,,,,,,,,4.658203125,-8.02734375,0,0,1,0.987618923187,,,,,2015_Sep_25_1753,A,facesParametric,11,59.712535022,
./stim/MorphM5_06_orig.jpg,132,,,,,,,,,0,132,132,132,,,,,,,,,,,,,,,4.658203125,-8.02734375,0,0,1,1.55529594421,,,,,2015_Sep_25_1753,A,facesParametric,11,59.712535022,
./stim/MorphM10_05_orig.jpg,133,,,,,,,,,0,133,133,133,,,,,,,,,,,,,,,4.658203125,-8.02734375,0,0,1,1.18837308884,,,,,2015_Sep_25_1753,A,facesParametric,11,59.712535022,
./stim/MorphM2_06_orig.jpg,134,,,,,,,,,0,134,134,134,,,,,,,,,,,,,,,4.658203125,-8.02734375,1,0,0,1.13597202301,,,,,2015_Sep_25_1753,A,facesParametric,11,59.712535022,
./stim/MorphF4_00_orig.jpg,135,,,,,,,,,0,135,135,135,,,,,,,,,,,,,,,4.658203125,-8.02734375,1,0,0,0.886598110199,,,,,2015_Sep_25_1753,A,facesParametric,11,59.712535022,
./stim/MorphF3_08_orig.jpg,136,,,,,,,,,0,136,136,136,,,,,,,,,,,,,,,4.658203125,-8.02734375,1,0,0,0.767867088318,,,,,2015_Sep_25_1753,A,facesParametric,11,59.712535022,
./stim/MorphM4_00_orig.jpg,137,,,,,,,,,0,137,137,137,,,,,,,,,,,,,,,4.658203125,-8.02734375,1,0,0,0.701649904251,,,,,2015_Sep_25_1753,A,facesParametric,11,59.712535022,
./stim/MorphF8_07_orig.jpg,138,,,,,,,,,0,138,138,138,,,,,,,,,,,,,,,4.658203125,-8.02734375,1,0,0,0.635308980942,,,,,2015_Sep_25_1753,A,facesParametric,11,59.712535022,
./stim/MorphM7_00_orig.jpg,139,,,,,,,,,0,139,139,139,,,,,,,,,,,,,,,4.658203125,-8.02734375,1,0,0,0.769040107727,,,,,2015_Sep_25_1753,A,facesParametric,11,59.712535022,
./stim/MorphM8_00_orig.jpg,140,,,,,,,,,0,140,140,140,,,,,,,,,,,,,,,4.658203125,-8.02734375,1,0,0,1.0208439827,,,,,2015_Sep_25_1753,A,facesParametric,11,59.712535022,
./stim/MorphF2_04_orig.jpg,141,,,,,,,,,0,141,141,141,,,,,,,,,,,,,,,4.658203125,-8.02734375,1,0,0,0.953915119171,,,,,2015_Sep_25_1753,A,facesParametric,11,59.712535022,
./stim/MorphM1_01_orig.jpg,142,,,,,,,,,0,142,142,142,,,,,,,,,,,,,,,4.658203125,-8.02734375,1,0,0,0.652480840683,,,,,2015_Sep_25_1753,A,facesParametric,11,59.712535022,
./stim/MorphF6_00_orig.jpg,143,,,,,,,,,0,143,143,143,,,,,,,,,,,,,,,4.658203125,-8.02734375,1,0,0,0.719779968262,,,,,2015_Sep_25_1753,A,facesParametric,11,59.712535022,
./stim/MorphF7_08_orig.jpg,144,,,,,,,,,0,144,144,144,,,,,,,,,,,,,,,4.658203125,-8.02734375,1,0,0,0.75250005722,,,,,2015_Sep_25_1753,A,facesParametric,11,59.712535022,
./stim/MorphF10_09_orig.jpg,145,,,,,,,,,0,145,145,145,,,,,,,,,,,,,,,4.658203125,-8.02734375,1,0,0,0.635625839233,,,,,2015_Sep_25_1753,A,facesParametric,11,59.712535022,
./stim/MorphF2_01_orig.jpg,146,,,,,,,,,0,146,146,146,,,,,,,,,,,,,,,4.658203125,-8.02734375,1,0,0,0.652215957642,,,,,2015_Sep_25_1753,A,facesParametric,11,59.712535022,
./stim/MorphF10_02_orig.jpg,147,,,,,,,,,0,147,147,147,,,,,,,,,,,,,,,4.658203125,-8.02734375,1,0,0,0.651374101639,,,,,2015_Sep_25_1753,A,facesParametric,11,59.712535022,
./stim/MorphM2_07_orig.jpg,148,,,,,,,,,0,148,148,148,,,,,,,,,,,,,,,4.658203125,-8.02734375,1,0,0,0.652102947235,,,,,2015_Sep_25_1753,A,facesParametric,11,59.712535022,
./stim/MorphF4_07_orig.jpg,149,,,,,,,,,0,149,149,149,,,,,,,,,,,,,,,4.658203125,-8.02734375,1,0,0,0.853389024734,,,,,2015_Sep_25_1753,A,facesParametric,11,59.712535022,
./stim/MorphM8_09_orig.jpg,150,,,,,,,,,0,150,150,150,,,,,,,,,,,,,,,4.658203125,-8.02734375,0,0,1,0.937243938446,,,,,2015_Sep_25_1753,A,facesParametric,11,59.712535022,
./stim/MorphF4_04_orig.jpg,151,,,,,,,,,0,151,151,151,,,,,,,,,,,,,,,4.658203125,-8.02734375,1,0,0,0.801610946655,,,,,2015_Sep_25_1753,A,facesParametric,11,59.712535022,
./stim/MorphM1_02_orig.jpg,152,,,,,,,,,0,152,152,152,,,,,,,,,,,,,,,4.658203125,-8.02734375,1,0,0,1.1212720871,,,,,2015_Sep_25_1753,A,facesParametric,11,59.712535022,
./stim/MorphM5_10_orig.jpg,153,,,,,,,,,0,153,153,153,,,,,,,,,,,,,,,4.658203125,-8.02734375,0,0,1,0.919424057007,,,,,2015_Sep_25_1753,A,facesParametric,11,59.712535022,
./stim/MorphM7_02_orig.jpg,154,,,,,,,,,0,154,154,154,,,,,,,,,,,,,,,4.658203125,-8.02734375,1,0,0,1.02157402039,,,,,2015_Sep_25_1753,A,facesParametric,11,59.712535022,
./stim/MorphM3_03_orig.jpg,155,,,,,,,,,0,155,155,155,,,,,,,,,,,,,,,4.658203125,-8.02734375,0,0,1,0.968747854233,,,,,2015_Sep_25_1753,A,facesParametric,11,59.712535022,
./stim/MorphF6_04_orig.jpg,156,,,,,,,,,0,156,156,156,,,,,,,,,,,,,,,4.658203125,-8.02734375,1,0,0,1.90795612335,,,,,2015_Sep_25_1753,A,facesParametric,11,59.712535022,
./stim/MorphM7_09_orig.jpg,157,,,,,,,,,0,157,157,157,,,,,,,,,,,,,,,4.658203125,-8.02734375,1,0,0,0.702385902405,,,,,2015_Sep_25_1753,A,facesParametric,11,59.712535022,
./stim/MorphF7_02_orig.jpg,158,,,,,,,,,0,158,158,158,,,,,,,,,,,,,,,4.658203125,-8.02734375,1,0,0,0.719501972198,,,,,2015_Sep_25_1753,A,facesParametric,11,59.712535022,
./stim/MorphM4_08_orig.jpg,159,,,,,,,,,0,159,159,159,,,,,,,,,,,,,,,4.658203125,-8.02734375,1,0,0,0.6854159832,,,,,2015_Sep_25_1753,A,facesParametric,11,59.712535022,
./stim/MorphM7_01_orig.jpg,160,,,,,,,,,0,160,160,160,,,,,,,,,,,,,,,4.658203125,-8.02734375,1,0,0,1.20508003235,,,,,2015_Sep_25_1753,A,facesParametric,11,59.712535022,
./stim/MorphM10_03_orig.jpg,161,,,,,,,,,0,161,161,161,,,,,,,,,,,,,,,4.658203125,-8.02734375,1,0,0,0.752836942673,,,,,2015_Sep_25_1753,A,facesParametric,11,59.712535022,
./stim/MorphF5_06_orig.jpg,162,,,,,,,,,0,162,162,162,,,,,,,,,,,,,,,4.658203125,-8.02734375,1,0,0,0.854125976562,,,,,2015_Sep_25_1753,A,facesParametric,11,59.712535022,
./stim/MorphM10_09_orig.jpg,163,,,,,,,,,0,163,163,163,,,,,,,,,,,,,,,4.658203125,-8.02734375,1,0,0,0.618178844452,,,,,2015_Sep_25_1753,A,facesParametric,11,59.712535022,
./stim/MorphM7_03_orig.jpg,164,,,,,,,,,0,164,164,164,,,,,,,,,,,,,,,4.658203125,-8.02734375,1,0,0,0.668890953064,,,,,2015_Sep_25_1753,A,facesParametric,11,59.712535022,
./stim/MorphF8_08_orig.jpg,165,,,,,,,,,0,165,165,165,,,,,,,,,,,,,,,4.658203125,-8.02734375,1,0,0,1.30534315109,,,,,2015_Sep_25_1753,A,facesParametric,11,59.712535022,
./stim/MorphF3_09_orig.jpg,166,,,,,,,,,0,166,166,166,,,,,,,,,,,,,,,4.658203125,-8.02734375,1,0,0,0.64915895462,,,,,2015_Sep_25_1753,A,facesParametric,11,59.712535022,
./stim/MorphM5_05_orig.jpg,167,,,,,,,,,0,167,167,167,,,,,,,,,,,,,,,4.658203125,-8.02734375,1,0,0,1.02133488655,,,,,2015_Sep_25_1753,A,facesParametric,11,59.712535022,
./stim/MorphM10_04_orig.jpg,168,,,,,,,,,0,168,168,168,,,,,,,,,,,,,,,4.658203125,-8.02734375,1,0,0,1.12111210823,,,,,2015_Sep_25_1753,A,facesParametric,11,59.712535022,
./stim/MorphM6_03_orig.jpg,169,,,,,,,,,0,169,169,169,,,,,,,,,,,,,,,4.658203125,-8.02734375,1,0,0,0.836828947067,,,,,2015_Sep_25_1753,A,facesParametric,11,59.712535022,
./stim/MorphM1_08_orig.jpg,170,,,,,,,,,0,170,170,170,,,,,,,,,,,,,,,4.658203125,-8.02734375,1,0,0,0.784434080124,,,,,2015_Sep_25_1753,A,facesParametric,11,59.712535022,
./stim/MorphM9_07_orig.jpg,171,,,,,,,,,0,171,171,171,,,,,,,,,,,,,,,4.658203125,-8.02734375,0,0,1,1.12009000778,,,,,2015_Sep_25_1753,A,facesParametric,11,59.712535022,
./stim/MorphF6_08_orig.jpg,172,,,,,,,,,0,172,172,172,,,,,,,,,,,,,,,4.658203125,-8.02734375,0,0,1,1.15510487556,,,,,2015_Sep_25_1753,A,facesParametric,11,59.712535022,
./stim/MorphF9_06_orig.jpg,173,,,,,,,,,0,173,173,173,,,,,,,,,,,,,,,4.658203125,-8.02734375,0,0,1,7.0544359684,,,,,2015_Sep_25_1753,A,facesParametric,11,59.712535022,
./stim/MorphM8_02_orig.jpg,174,,,,,,,,,0,174,174,174,,,,,,,,,,,,,,,4.658203125,-8.02734375,1,0,0,1.1212720871,,,,,2015_Sep_25_1753,A,facesParametric,11,59.712535022,
./stim/MorphF7_03_orig.jpg,175,,,,,,,,,0,175,175,175,,,,,,,,,,,,,,,4.658203125,-8.02734375,0,0,1,0.987705945969,,,,,2015_Sep_25_1753,A,facesParametric,11,59.712535022,
./stim/MorphF2_03_orig.jpg,176,,,,,,,,,0,176,176,176,,,,,,,,,,,,,,,4.658203125,-8.02734375,1,0,0,1.37309002876,,,,,2015_Sep_25_1753,A,facesParametric,11,59.712535022,
./stim/MorphM3_02_orig.jpg,177,,,,,,,,,0,177,177,177,,,,,,,,,,,,,,,4.658203125,-8.02734375,0,0,1,0.870725870132,,,,,2015_Sep_25_1753,A,facesParametric,11,59.712535022,
./stim/MorphF9_09_orig.jpg,178,,,,,,,,,0,178,178,178,,,,,,,,,,,,,,,4.658203125,-8.02734375,0,0,1,0.920123100281,,,,,2015_Sep_25_1753,A,facesParametric,11,59.712535022,
./stim/MorphM8_08_orig.jpg,179,,,,,,,,,0,179,179,179,,,,,,,,,,,,,,,4.658203125,-8.02734375,0,0,1,0.937034845352,,,,,2015_Sep_25_1753,A,facesParametric,11,59.712535022,
./stim/MorphM1_04_orig.jpg,180,,,,,,,,,0,180,180,180,,,,,,,,,,,,,,,4.658203125,-8.02734375,1,0,0,1.05464410782,,,,,2015_Sep_25_1753,A,facesParametric,11,59.712535022,
./stim/MorphF5_03_orig.jpg,181,,,,,,,,,0,181,181,181,,,,,,,,,,,,,,,4.658203125,-8.02734375,1,0,0,0.753157138824,,,,,2015_Sep_25_1753,A,facesParametric,11,59.712535022,
./stim/MorphM7_05_orig.jpg,182,,,,,,,,,0,182,182,182,,,,,,,,,,,,,,,4.658203125,-8.02734375,1,0,0,0.752478837967,,,,,2015_Sep_25_1753,A,facesParametric,11,59.712535022,
./stim/MorphF1_09_orig.jpg,183,,,,,,,,,0,183,183,183,,,,,,,,,,,,,,,4.658203125,-8.02734375,1,0,0,1.92620110512,,,,,2015_Sep_25_1753,A,facesParametric,11,59.712535022,
./stim/MorphF2_05_orig.jpg,184,,,,,,,,,0,184,184,184,,,,,,,,,,,,,,,4.658203125,-8.02734375,0,0,1,4.40638208389,,,,,2015_Sep_25_1753,A,facesParametric,11,59.712535022,
./stim/MorphF8_05_orig.jpg,185,,,,,,,,,0,185,185,185,,,,,,,,,,,,,,,4.658203125,-8.02734375,1,0,0,2.99677491188,,,,,2015_Sep_25_1753,A,facesParametric,11,59.712535022,
./stim/MorphM10_06_orig.jpg,186,,,,,,,,,0,186,186,186,,,,,,,,,,,,,,,4.658203125,-8.02734375,0,0,1,2.05999493599,,,,,2015_Sep_25_1753,A,facesParametric,11,59.712535022,
./stim/MorphF7_10_orig.jpg,187,,,,,,,,,0,187,187,187,,,,,,,,,,,,,,,4.658203125,-8.02734375,0,0,1,0.819747924805,,,,,2015_Sep_25_1753,A,facesParametric,11,59.712535022,
./stim/MorphM9_05_orig.jpg,188,,,,,,,,,0,188,188,188,,,,,,,,,,,,,,,4.658203125,-8.02734375,1,0,0,1.1554479599,,,,,2015_Sep_25_1753,A,facesParametric,11,59.712535022,
./stim/MorphM8_07_orig.jpg,189,,,,,,,,,0,189,189,189,,,,,,,,,,,,,,,4.658203125,-8.02734375,0,0,1,0.954200029373,,,,,2015_Sep_25_1753,A,facesParametric,11,59.712535022,
./stim/MorphM6_06_orig.jpg,190,,,,,,,,,0,190,190,190,,,,,,,,,,,,,,,4.658203125,-8.02734375,1,0,0,1.01919412613,,,,,2015_Sep_25_1753,A,facesParametric,11,59.712535022,
./stim/MorphF6_06_orig.jpg,191,,,,,,,,,0,191,191,191,,,,,,,,,,,,,,,4.658203125,-8.02734375,1,0,0,1.39005899429,,,,,2015_Sep_25_1753,A,facesParametric,11,59.712535022,
./stim/MorphM3_10_orig.jpg,192,,,,,,,,,0,192,192,192,,,,,,,,,,,,,,,4.658203125,-8.02734375,0,0,1,0.884929180145,,,,,2015_Sep_25_1753,A,facesParametric,11,59.712535022,
./stim/MorphM5_08_orig.jpg,193,,,,,,,,,0,193,193,193,,,,,,,,,,,,,,,4.658203125,-8.02734375,0,0,1,3.03191900253,,,,,2015_Sep_25_1753,A,facesParametric,11,59.712535022,
./stim/MorphM4_07_orig.jpg,194,,,,,,,,,0,194,194,194,,,,,,,,,,,,,,,4.658203125,-8.02734375,0,0,1,1.05435085297,,,,,2015_Sep_25_1753,A,facesParametric,11,59.712535022,
./stim/MorphM2_09_orig.jpg,195,,,,,,,,,0,195,195,195,,,,,,,,,,,,,,,4.658203125,-8.02734375,0,0,1,0.970987081528,,,,,2015_Sep_25_1753,A,facesParametric,11,59.712535022,
./stim/MorphF6_10_orig.jpg,196,,,,,,,,,0,196,196,196,,,,,,,,,,,,,,,4.658203125,-8.02734375,0,0,1,1.25599098206,,,,,2015_Sep_25_1753,A,facesParametric,11,59.712535022,
./stim/MorphF2_09_orig.jpg,197,,,,,,,,,0,197,197,197,,,,,,,,,,,,,,,4.658203125,-8.02734375,0,0,1,2.32773208618,,,,,2015_Sep_25_1753,A,facesParametric,11,59.712535022,
./stim/MorphM6_10_orig.jpg,198,,,,,,,,,0,198,198,198,,,,,,,,,,,,,,,4.658203125,-8.02734375,0,0,1,1.00446200371,,,,,2015_Sep_25_1753,A,facesParametric,11,59.712535022,
./stim/MorphM4_03_orig.jpg,199,,,,,,,,,0,199,199,199,,,,,,,,,,,,,,,4.658203125,-8.02734375,1,0,0,1.15483617783,,,,,2015_Sep_25_1753,A,facesParametric,11,59.712535022,
./stim/MorphM1_10_orig.jpg,200,,,,,,,,,0,200,200,200,,,,,,,,,,,,,,,4.658203125,-8.02734375,1,0,0,0.769752025604,,,,,2015_Sep_25_1753,A,facesParametric,11,59.712535022,
./stim/MorphM8_05_orig.jpg,201,,,,,,,,,0,201,201,201,,,,,,,,,,,,,,,4.658203125,-8.02734375,1,0,0,2.00976896286,,,,,2015_Sep_25_1753,A,facesParametric,11,59.712535022,
./stim/MorphF8_06_orig.jpg,202,,,,,,,,,0,202,202,202,,,,,,,,,,,,,,,4.658203125,-8.02734375,0,0,1,2.31168603897,,,,,2015_Sep_25_1753,A,facesParametric,11,59.712535022,
./stim/MorphF4_06_orig.jpg,203,,,,,,,,,0,203,203,203,,,,,,,,,,,,,,,4.658203125,-8.02734375,1,0,0,1.97627496719,,,,,2015_Sep_25_1753,A,facesParametric,11,59.712535022,
./stim/MorphM9_10_orig.jpg,204,,,,,,,,,0,204,204,204,,,,,,,,,,,,,,,4.658203125,-8.02734375,0,0,1,1.22206020355,,,,,2015_Sep_25_1753,A,facesParametric,11,59.712535022,
./stim/MorphM3_00_orig.jpg,205,,,,,,,,,0,205,205,205,,,,,,,,,,,,,,,4.658203125,-8.02734375,1,0,0,2.41235494614,,,,,2015_Sep_25_1753,A,facesParametric,11,59.712535022,
./stim/MorphM9_06_orig.jpg,206,,,,,,,,,0,206,206,206,,,,,,,,,,,,,,,4.658203125,-8.02734375,1,0,0,0.968310117722,,,,,2015_Sep_25_1753,A,facesParametric,11,59.712535022,
./stim/MorphM1_03_orig.jpg,207,,,,,,,,,0,207,207,207,,,,,,,,,,,,,,,4.658203125,-8.02734375,1,0,0,1.05276298523,,,,,2015_Sep_25_1753,A,facesParametric,11,59.712535022,
./stim/MorphM6_07_orig.jpg,208,,,,,,,,,0,208,208,208,,,,,,,,,,,,,,,4.658203125,-8.02734375,1,0,0,1.1033411026,,,,,2015_Sep_25_1753,A,facesParametric,11,59.712535022,
./stim/MorphM2_03_orig.jpg,209,,,,,,,,,0,209,209,209,,,,,,,,,,,,,,,4.658203125,-8.02734375,1,0,0,1.20569896698,,,,,2015_Sep_25_1753,A,facesParametric,11,59.712535022,
./stim/MorphF6_02_orig.jpg,210,,,,,,,,,0,210,210,210,,,,,,,,,,,,,,,4.658203125,-8.02734375,1,0,0,0.75270819664,,,,,2015_Sep_25_1753,A,facesParametric,11,59.712535022,
./stim/MorphM9_01_orig.jpg,211,,,,,,,,,0,211,211,211,,,,,,,,,,,,,,,4.658203125,-8.02734375,1,0,0,0.685699939728,,,,,2015_Sep_25_1753,A,facesParametric,11,59.712535022,
./stim/MorphM4_09_orig.jpg,212,,,,,,,,,0,212,212,212,,,,,,,,,,,,,,,4.658203125,-8.02734375,0,0,1,0.970812082291,,,,,2015_Sep_25_1753,A,facesParametric,11,59.712535022,
./stim/MorphF1_01_orig.jpg,213,,,,,,,,,0,213,213,213,,,,,,,,,,,,,,,4.658203125,-8.02734375,1,0,0,1.02093505859,,,,,2015_Sep_25_1753,A,facesParametric,11,59.712535022,
./stim/MorphM9_03_orig.jpg,214,,,,,,,,,0,214,214,214,,,,,,,,,,,,,,,4.658203125,-8.02734375,1,0,0,0.836400032043,,,,,2015_Sep_25_1753,A,facesParametric,11,59.712535022,
./stim/MorphM2_10_orig.jpg,215,,,,,,,,,0,215,215,215,,,,,,,,,,,,,,,4.658203125,-8.02734375,0,0,1,1.071393013,,,,,2015_Sep_25_1753,A,facesParametric,11,59.712535022,
./stim/MorphF7_00_orig.jpg,216,,,,,,,,,0,216,216,216,,,,,,,,,,,,,,,4.658203125,-8.02734375,1,0,0,1.30630922318,,,,,2015_Sep_25_1753,A,facesParametric,11,59.712535022,
./stim/MorphM6_00_orig.jpg,217,,,,,,,,,0,217,217,217,,,,,,,,,,,,,,,4.658203125,-8.02734375,1,0,0,0.869838953018,,,,,2015_Sep_25_1753,A,facesParametric,11,59.712535022,
./stim/MorphF1_02_orig.jpg,218,,,,,,,,,0,218,218,218,,,,,,,,,,,,,,,4.658203125,-8.02734375,1,0,0,1.00494480133,,,,,2015_Sep_25_1753,A,facesParametric,11,59.712535022,
./stim/MorphF8_09_orig.jpg,219,,,,,,,,,0,219,219,219,,,,,,,,,,,,,,,4.658203125,-8.02734375,1,0,0,0.783520936966,,,,,2015_Sep_25_1753,A,facesParametric,11,59.712535022,
,,,,,,,,,,,,,,,,,,,,,,,,,,,,,,,,,,,,return,21.607888937,2015_Sep_25_1753,A,facesParametric,11,59.712535022,
