img,num,basicLoop.thisRepN,basicLoop.thisTrialN,basicLoop.thisN,basicLoop.thisIndex,trials.thisRepN,trials.thisTrialN,trials.thisN,trials.thisIndex,trials2.thisRepN,trials2.thisTrialN,trials2.thisN,trials2.thisIndex,key_resp_2.keys,key_resp_2.rt,basicRating1.response,basicRating1.rt,basicRating2.response,basicRating2.rt,basicRating3.response,basicRating3.rt,basicRating4.response,basicRating4.rt,key_resp_3.keys,key_resp_3.rt,key_resp_4.keys,key_resp_4.rt,mouseResp.x,mouseResp.y,mouseResp.leftButton,mouseResp.midButton,mouseResp.rightButton,mouseResp.time,key_resp_5.keys,key_resp_5.rt,key_resp_7.keys,key_resp_7.rt,date,group,expName,participant,frameRate,
,,,,,,,,,,,,,,return,40.5760641098,,,,,,,,,,,,,,,,,,,,,,,2015_Oct_11_1221,A,facesParametric,12,59.6604691983,
./basicStim/21M_AN_O.jpg,,0,0,0,42,,,,,,,,,,,None,None,ANG,4.395,None,None,None,None,,,,,,,,,,,,,,,2015_Oct_11_1221,A,facesParametric,12,59.6604691983,
./basicStim/34M_AN_O.jpg,,0,1,1,70,,,,,,,,,,,None,None,ANG,9.412,None,None,None,None,,,,,,,,,,,,,,,2015_Oct_11_1221,A,facesParametric,12,59.6604691983,
./basicStim/01F_FE_O.jpg,,0,2,2,2,,,,,,,,,,,None,None,FEA,3.96,None,None,None,None,,,,,,,,,,,,,,,2015_Oct_11_1221,A,facesParametric,12,59.6604691983,
./basicStim/07F_HA_O.jpg,,0,3,3,31,,,,,,,,,,,HAP,1.384,None,None,None,None,None,None,,,,,,,,,,,,,,,2015_Oct_11_1221,A,facesParametric,12,59.6604691983,
./basicStim/09F_FE_O.jpg,,0,4,4,37,,,,,,,,,,,None,None,None,None,DIS,2.147,None,None,,,,,,,,,,,,,,,2015_Oct_11_1221,A,facesParametric,12,59.6604691983,
./basicStim/28M_HA_O.jpg,,0,5,5,66,,,,,,,,,,,HAP,2.251,None,None,None,None,None,None,,,,,,,,,,,,,,,2015_Oct_11_1221,A,facesParametric,12,59.6604691983,
./basicStim/09F_NE_C.jpg,,0,6,6,41,,,,,,,,,,,None,None,None,None,None,None,NTR,2.115,,,,,,,,,,,,,,,2015_Oct_11_1221,A,facesParametric,12,59.6604691983,
./basicStim/21M_SA_C.jpg,,0,7,7,46,,,,,,,,,,,None,None,None,None,SUP,4.051,None,None,,,,,,,,,,,,,,,2015_Oct_11_1221,A,facesParametric,12,59.6604691983,
./basicStim/02F_SP_O.jpg,,0,8,8,12,,,,,,,,,,,None,None,None,None,SUP,2.106,None,None,,,,,,,,,,,,,,,2015_Oct_11_1221,A,facesParametric,12,59.6604691983,
./basicStim/21M_HA_O.jpg,,0,9,9,45,,,,,,,,,,,HAP,2.454,None,None,None,None,None,None,,,,,,,,,,,,,,,2015_Oct_11_1221,A,facesParametric,12,59.6604691983,
./basicStim/07F_DI_O.jpg,,0,10,10,29,,,,,,,,,,,None,None,None,None,DIS,2.721,None,None,,,,,,,,,,,,,,,2015_Oct_11_1221,A,facesParametric,12,59.6604691983,
./basicStim/03F_AN_O.jpg,,0,11,11,14,,,,,,,,,,,None,None,ANG,2.989,None,None,None,None,,,,,,,,,,,,,,,2015_Oct_11_1221,A,facesParametric,12,59.6604691983,
./basicStim/24M_SA_C.jpg,,0,12,12,60,,,,,,,,,,,SAD,2.084,None,None,None,None,None,None,,,,,,,,,,,,,,,2015_Oct_11_1221,A,facesParametric,12,59.6604691983,
./basicStim/02F_SA_C.jpg,,0,13,13,11,,,,,,,,,,,SAD,0.617,None,None,None,None,None,None,,,,,,,,,,,,,,,2015_Oct_11_1221,A,facesParametric,12,59.6604691983,
./basicStim/23M_FE_O.jpg,,0,14,14,51,,,,,,,,,,,None,None,None,None,SUP,3.924,None,None,,,,,,,,,,,,,,,2015_Oct_11_1221,A,facesParametric,12,59.6604691983,
./basicStim/23M_SA_C.jpg,,0,15,15,53,,,,,,,,,,,None,None,None,None,SUP,5.113,None,None,,,,,,,,,,,,,,,2015_Oct_11_1221,A,facesParametric,12,59.6604691983,
./basicStim/06F_SP_O.jpg,,0,16,16,26,,,,,,,,,,,None,None,None,None,SUP,1.366,None,None,,,,,,,,,,,,,,,2015_Oct_11_1221,A,facesParametric,12,59.6604691983,
./basicStim/07F_SA_C.jpg,,0,17,17,32,,,,,,,,,,,SAD,3.678,None,None,None,None,None,None,,,,,,,,,,,,,,,2015_Oct_11_1221,A,facesParametric,12,59.6604691983,
./basicStim/28M_DI_O.jpg,,0,18,18,64,,,,,,,,,,,None,None,None,None,DIS,1.727,None,None,,,,,,,,,,,,,,,2015_Oct_11_1221,A,facesParametric,12,59.6604691983,
./basicStim/28M_NE_C.jpg,,0,19,19,69,,,,,,,,,,,None,None,None,None,None,None,NTR,2.705,,,,,,,,,,,,,,,2015_Oct_11_1221,A,facesParametric,12,59.6604691983,
./basicStim/23M_HA_O.jpg,,0,20,20,52,,,,,,,,,,,HAP,1.783,None,None,None,None,None,None,,,,,,,,,,,,,,,2015_Oct_11_1221,A,facesParametric,12,59.6604691983,
./basicStim/23M_AN_O.jpg,,0,21,21,49,,,,,,,,,,,None,None,None,None,DIS,5.303,None,None,,,,,,,,,,,,,,,2015_Oct_11_1221,A,facesParametric,12,59.6604691983,
./basicStim/36M_AN_O.jpg,,0,22,22,77,,,,,,,,,,,None,None,None,None,DIS,6.002,None,None,,,,,,,,,,,,,,,2015_Oct_11_1221,A,facesParametric,12,59.6604691983,
./basicStim/03F_SP_O.jpg,,0,23,23,19,,,,,,,,,,,HAP,4.131,None,None,None,None,None,None,,,,,,,,,,,,,,,2015_Oct_11_1221,A,facesParametric,12,59.6604691983,
./basicStim/09F_HA_O.jpg,,0,24,24,38,,,,,,,,,,,HAP,0.73,None,None,None,None,None,None,,,,,,,,,,,,,,,2015_Oct_11_1221,A,facesParametric,12,59.6604691983,
./basicStim/06F_NE_C.jpg,,0,25,25,27,,,,,,,,,,,None,None,None,None,None,None,NTR,1.897,,,,,,,,,,,,,,,2015_Oct_11_1221,A,facesParametric,12,59.6604691983,
./basicStim/07F_SP_O.jpg,,0,26,26,33,,,,,,,,,,,None,None,None,None,SUP,2.414,None,None,,,,,,,,,,,,,,,2015_Oct_11_1221,A,facesParametric,12,59.6604691983,
./basicStim/34M_SP_O.jpg,,0,27,27,75,,,,,,,,,,,None,None,None,None,SUP,1.784,None,None,,,,,,,,,,,,,,,2015_Oct_11_1221,A,facesParametric,12,59.6604691983,
./basicStim/24M_AN_O.jpg,,0,28,28,56,,,,,,,,,,,None,None,ANG,5.271,None,None,None,None,,,,,,,,,,,,,,,2015_Oct_11_1221,A,facesParametric,12,59.6604691983,
./basicStim/01F_AN_O.jpg,,0,29,29,0,,,,,,,,,,,None,None,ANG,3.458,None,None,None,None,,,,,,,,,,,,,,,2015_Oct_11_1221,A,facesParametric,12,59.6604691983,
./basicStim/28M_FE_O.jpg,,0,30,30,65,,,,,,,,,,,None,None,None,None,SUP,2.704,None,None,,,,,,,,,,,,,,,2015_Oct_11_1221,A,facesParametric,12,59.6604691983,
./basicStim/07F_AN_O.jpg,,0,31,31,28,,,,,,,,,,,None,None,ANG,3.636,None,None,None,None,,,,,,,,,,,,,,,2015_Oct_11_1221,A,facesParametric,12,59.6604691983,
./basicStim/24M_HA_O.jpg,,0,32,32,59,,,,,,,,,,,HAP,2.255,None,None,None,None,None,None,,,,,,,,,,,,,,,2015_Oct_11_1221,A,facesParametric,12,59.6604691983,
./basicStim/36M_SA_C.jpg,,0,33,33,81,,,,,,,,,,,SAD,4.383,None,None,None,None,None,None,,,,,,,,,,,,,,,2015_Oct_11_1221,A,facesParametric,12,59.6604691983,
./basicStim/01F_NE_C.jpg,,0,34,34,6,,,,,,,,,,,None,None,None,None,None,None,NTR,1.884,,,,,,,,,,,,,,,2015_Oct_11_1221,A,facesParametric,12,59.6604691983,
./basicStim/36M_NE_C.jpg,,0,35,35,83,,,,,,,,,,,None,None,None,None,None,None,NTR,3.42,,,,,,,,,,,,,,,2015_Oct_11_1221,A,facesParametric,12,59.6604691983,
./basicStim/23M_DI_O.jpg,,0,36,36,50,,,,,,,,,,,None,None,None,None,DIS,1.664,None,None,,,,,,,,,,,,,,,2015_Oct_11_1221,A,facesParametric,12,59.6604691983,
./basicStim/02F_HA_O.jpg,,0,37,37,10,,,,,,,,,,,HAP,1.433,None,None,None,None,None,None,,,,,,,,,,,,,,,2015_Oct_11_1221,A,facesParametric,12,59.6604691983,
./basicStim/09F_SP_O.jpg,,0,38,38,40,,,,,,,,,,,None,None,None,None,SUP,1.9,None,None,,,,,,,,,,,,,,,2015_Oct_11_1221,A,facesParametric,12,59.6604691983,
./basicStim/03F_NE_C.jpg,,0,39,39,20,,,,,,,,,,,None,None,None,None,None,None,NTR,1.332,,,,,,,,,,,,,,,2015_Oct_11_1221,A,facesParametric,12,59.6604691983,
./basicStim/21M_DI_O.jpg,,0,40,40,43,,,,,,,,,,,None,None,None,None,SUP,3.937,None,None,,,,,,,,,,,,,,,2015_Oct_11_1221,A,facesParametric,12,59.6604691983,
./basicStim/24M_FE_O.jpg,,0,41,41,58,,,,,,,,,,,None,None,None,None,DIS,3.169,None,None,,,,,,,,,,,,,,,2015_Oct_11_1221,A,facesParametric,12,59.6604691983,
./basicStim/06F_AN_O.jpg,,0,42,42,21,,,,,,,,,,,None,None,ANG,3.016,None,None,None,None,,,,,,,,,,,,,,,2015_Oct_11_1221,A,facesParametric,12,59.6604691983,
./basicStim/21M_FE_O.jpg,,0,43,43,44,,,,,,,,,,,None,None,None,None,SUP,1.911,None,None,,,,,,,,,,,,,,,2015_Oct_11_1221,A,facesParametric,12,59.6604691983,
./basicStim/03F_SA_C.jpg,,0,44,44,18,,,,,,,,,,,SAD,1.432,None,None,None,None,None,None,,,,,,,,,,,,,,,2015_Oct_11_1221,A,facesParametric,12,59.6604691983,
./basicStim/23M_NE_C.jpg,,0,45,45,55,,,,,,,,,,,None,None,None,None,None,None,NTR,2.669,,,,,,,,,,,,,,,2015_Oct_11_1221,A,facesParametric,12,59.6604691983,
./basicStim/03F_HA_O.jpg,,0,46,46,17,,,,,,,,,,,HAP,1.398,None,None,None,None,None,None,,,,,,,,,,,,,,,2015_Oct_11_1221,A,facesParametric,12,59.6604691983,
./basicStim/01F_HA_O.jpg,,0,47,47,3,,,,,,,,,,,HAP,0.558,None,None,None,None,None,None,,,,,,,,,,,,,,,2015_Oct_11_1221,A,facesParametric,12,59.6604691983,
./basicStim/34M_SA_C.jpg,,0,48,48,74,,,,,,,,,,,None,None,FEA,4.528,None,None,None,None,,,,,,,,,,,,,,,2015_Oct_11_1221,A,facesParametric,12,59.6604691983,
./basicStim/36M_DI_O.jpg,,0,49,49,78,,,,,,,,,,,None,None,None,None,DIS,2.032,None,None,,,,,,,,,,,,,,,2015_Oct_11_1221,A,facesParametric,12,59.6604691983,
./basicStim/09F_DI_O.jpg,,0,50,50,36,,,,,,,,,,,None,None,None,None,DIS,2.05,None,None,,,,,,,,,,,,,,,2015_Oct_11_1221,A,facesParametric,12,59.6604691983,
./basicStim/03F_DI_O.jpg,,0,51,51,15,,,,,,,,,,,None,None,None,None,DIS,0.64,None,None,,,,,,,,,,,,,,,2015_Oct_11_1221,A,facesParametric,12,59.6604691983,
./basicStim/01F_SA_C.jpg,,0,52,52,4,,,,,,,,,,,SAD,3.071,None,None,None,None,None,None,,,,,,,,,,,,,,,2015_Oct_11_1221,A,facesParametric,12,59.6604691983,
./basicStim/34M_DI_O.jpg,,0,53,53,71,,,,,,,,,,,None,None,None,None,DIS,1.256,None,None,,,,,,,,,,,,,,,2015_Oct_11_1221,A,facesParametric,12,59.6604691983,
./basicStim/01F_DI_O.jpg,,0,54,54,1,,,,,,,,,,,None,None,ANG,5.907,None,None,None,None,,,,,,,,,,,,,,,2015_Oct_11_1221,A,facesParametric,12,59.6604691983,
./basicStim/06F_HA_O.jpg,,0,55,55,24,,,,,,,,,,,HAP,1.616,None,None,None,None,None,None,,,,,,,,,,,,,,,2015_Oct_11_1221,A,facesParametric,12,59.6604691983,
./basicStim/28M_AN_O.jpg,,0,56,56,63,,,,,,,,,,,None,None,None,None,DIS,5.231,None,None,,,,,,,,,,,,,,,2015_Oct_11_1221,A,facesParametric,12,59.6604691983,
./basicStim/01F_SP_O.jpg,,0,57,57,5,,,,,,,,,,,None,None,None,None,SUP,2.134,None,None,,,,,,,,,,,,,,,2015_Oct_11_1221,A,facesParametric,12,59.6604691983,
./basicStim/02F_NE_C.jpg,,0,58,58,13,,,,,,,,,,,None,None,None,None,None,None,NTR,2.016,,,,,,,,,,,,,,,2015_Oct_11_1221,A,facesParametric,12,59.6604691983,
./basicStim/24M_NE_C.jpg,,0,59,59,62,,,,,,,,,,,None,None,None,None,None,None,NTR,0.976,,,,,,,,,,,,,,,2015_Oct_11_1221,A,facesParametric,12,59.6604691983,
./basicStim/09F_AN_O.jpg,,0,60,60,35,,,,,,,,,,,None,None,FEA,5.384,None,None,None,None,,,,,,,,,,,,,,,2015_Oct_11_1221,A,facesParametric,12,59.6604691983,
./basicStim/36M_SP_O.jpg,,0,61,61,82,,,,,,,,,,,None,None,None,None,SUP,1.495,None,None,,,,,,,,,,,,,,,2015_Oct_11_1221,A,facesParametric,12,59.6604691983,
./basicStim/09F_SA_C.jpg,,0,62,62,39,,,,,,,,,,,SAD,3.644,None,None,None,None,None,None,,,,,,,,,,,,,,,2015_Oct_11_1221,A,facesParametric,12,59.6604691983,
./basicStim/24M_DI_O.jpg,,0,63,63,57,,,,,,,,,,,SAD,1.587,None,None,None,None,None,None,,,,,,,,,,,,,,,2015_Oct_11_1221,A,facesParametric,12,59.6604691983,
./basicStim/02F_FE_O.jpg,,0,64,64,9,,,,,,,,,,,None,None,None,None,SUP,3.235,None,None,,,,,,,,,,,,,,,2015_Oct_11_1221,A,facesParametric,12,59.6604691983,
./basicStim/06F_FE_O.jpg,,0,65,65,23,,,,,,,,,,,None,None,None,None,SUP,2.586,None,None,,,,,,,,,,,,,,,2015_Oct_11_1221,A,facesParametric,12,59.6604691983,
./basicStim/24M_SP_O.jpg,,0,66,66,61,,,,,,,,,,,None,None,None,None,SUP,6.304,None,None,,,,,,,,,,,,,,,2015_Oct_11_1221,A,facesParametric,12,59.6604691983,
./basicStim/02F_AN_O.jpg,,0,67,67,7,,,,,,,,,,,None,None,ANG,4.193,None,None,None,None,,,,,,,,,,,,,,,2015_Oct_11_1221,A,facesParametric,12,59.6604691983,
./basicStim/34M_NE_C.jpg,,0,68,68,76,,,,,,,,,,,None,None,None,None,None,None,NTR,1.078,,,,,,,,,,,,,,,2015_Oct_11_1221,A,facesParametric,12,59.6604691983,
./basicStim/36M_HA_O.jpg,,0,69,69,80,,,,,,,,,,,HAP,1.212,None,None,None,None,None,None,,,,,,,,,,,,,,,2015_Oct_11_1221,A,facesParametric,12,59.6604691983,
./basicStim/07F_NE_C.jpg,,0,70,70,34,,,,,,,,,,,None,None,None,None,None,None,NTR,1.625,,,,,,,,,,,,,,,2015_Oct_11_1221,A,facesParametric,12,59.6604691983,
./basicStim/21M_SP_O.jpg,,0,71,71,47,,,,,,,,,,,HAP,1.313,None,None,None,None,None,None,,,,,,,,,,,,,,,2015_Oct_11_1221,A,facesParametric,12,59.6604691983,
./basicStim/06F_DI_O.jpg,,0,72,72,22,,,,,,,,,,,None,None,ANG,6.137,None,None,None,None,,,,,,,,,,,,,,,2015_Oct_11_1221,A,facesParametric,12,59.6604691983,
./basicStim/02F_DI_O.jpg,,0,73,73,8,,,,,,,,,,,None,None,None,None,DIS,2.561,None,None,,,,,,,,,,,,,,,2015_Oct_11_1221,A,facesParametric,12,59.6604691983,
./basicStim/34M_FE_O.jpg,,0,74,74,72,,,,,,,,,,,None,None,None,None,SUP,1.038,None,None,,,,,,,,,,,,,,,2015_Oct_11_1221,A,facesParametric,12,59.6604691983,
./basicStim/06F_SA_C.jpg,,0,75,75,25,,,,,,,,,,,SAD,2.251,None,None,None,None,None,None,,,,,,,,,,,,,,,2015_Oct_11_1221,A,facesParametric,12,59.6604691983,
./basicStim/23M_SP_O.jpg,,0,76,76,54,,,,,,,,,,,None,None,None,None,SUP,1.498,None,None,,,,,,,,,,,,,,,2015_Oct_11_1221,A,facesParametric,12,59.6604691983,
./basicStim/36M_FE_O.jpg,,0,77,77,79,,,,,,,,,,,None,None,None,None,DIS,3.875,None,None,,,,,,,,,,,,,,,2015_Oct_11_1221,A,facesParametric,12,59.6604691983,
./basicStim/28M_SP_O.jpg,,0,78,78,68,,,,,,,,,,,None,None,None,None,SUP,0.773,None,None,,,,,,,,,,,,,,,2015_Oct_11_1221,A,facesParametric,12,59.6604691983,
./basicStim/03F_FE_O.jpg,,0,79,79,16,,,,,,,,,,,None,None,None,None,SUP,1.326,None,None,,,,,,,,,,,,,,,2015_Oct_11_1221,A,facesParametric,12,59.6604691983,
./basicStim/28M_SA_C.jpg,,0,80,80,67,,,,,,,,,,,SAD,1.632,None,None,None,None,None,None,,,,,,,,,,,,,,,2015_Oct_11_1221,A,facesParametric,12,59.6604691983,
./basicStim/21M_NE_C.jpg,,0,81,81,48,,,,,,,,,,,SAD,1.531,None,None,None,None,None,None,,,,,,,,,,,,,,,2015_Oct_11_1221,A,facesParametric,12,59.6604691983,
./basicStim/07F_FE_O.jpg,,0,82,82,30,,,,,,,,,,,None,None,None,None,SUP,3.708,None,None,,,,,,,,,,,,,,,2015_Oct_11_1221,A,facesParametric,12,59.6604691983,
./basicStim/34M_HA_O.jpg,,0,83,83,73,,,,,,,,,,,HAP,1.735,None,None,None,None,None,None,,,,,,,,,,,,,,,2015_Oct_11_1221,A,facesParametric,12,59.6604691983,
,,,,,,,,,,,,,,,,,,,,,,,,return,48.7861828804,,,,,,,,,,,,,2015_Oct_11_1221,A,facesParametric,12,59.6604691983,
,,,,,,,,,,,,,,return,31.3573668003,,,,,,,,,,,,,,,,,,,,,,,2015_Oct_11_1221,A,facesParametric,12,59.6604691983,
,,,,,,,,,,,,,,,,,,,,,,,,return,26.0275559425,,,,,,,,,,,,,2015_Oct_11_1221,A,facesParametric,12,59.6604691983,
,,,,,,,,,,,,,,,,,,,,,,,,,,return,3.61995983124,,,,,,,,,,,2015_Oct_11_1221,A,facesParametric,12,59.6604691983,
./stim/MorphF9_01_orig.jpg,0,,,,,0,0,0,0,,,,,,,,,,,,,,,,,,,-10.810546875,-9.19921875,1,0,0,16.7604620457,,,,,2015_Oct_11_1221,A,facesParametric,12,59.6604691983,
./stim/MorphM1_02_orig.jpg,1,,,,,0,1,1,1,,,,,,,,,,,,,,,,,,,-10.869140625,-9.111328125,0,0,1,1.38846802711,,,,,2015_Oct_11_1221,A,facesParametric,12,59.6604691983,
./stim/MorphM2_01_orig.jpg,2,,,,,0,2,2,2,,,,,,,,,,,,,,,,,,,-11.044921875,-9.08203125,0,0,1,3.13305711746,,,,,2015_Oct_11_1221,A,facesParametric,12,59.6604691983,
./stim/MorphF2_07_orig.jpg,3,,,,,0,3,3,3,,,,,,,,,,,,,,,,,,,-11.25,-9.0234375,1,0,0,1.11926913261,,,,,2015_Oct_11_1221,A,facesParametric,12,59.6604691983,
./stim/MorphF9_02_orig.jpg,4,,,,,0,4,4,4,,,,,,,,,,,,,,,,,,,-11.3671875,-9.31640625,1,0,0,15.6523489952,,,,,2015_Oct_11_1221,A,facesParametric,12,59.6604691983,
./stim/MorphF6_05_orig.jpg,5,,,,,0,5,5,5,,,,,,,,,,,,,,,,,,,-11.3671875,-9.345703125,1,0,0,1.94100403786,,,,,2015_Oct_11_1221,A,facesParametric,12,59.6604691983,
./stim/MorphM5_05_orig.jpg,6,,,,,0,6,6,6,,,,,,,,,,,,,,,,,,,-11.337890625,-9.404296875,1,0,0,2.36017394066,,,,,2015_Oct_11_1221,A,facesParametric,12,59.6604691983,
./stim/MorphF10_02_orig.jpg,7,,,,,0,7,7,7,,,,,,,,,,,,,,,,,,,-11.54296875,-9.462890625,1,0,0,6.33265304565,,,,,2015_Oct_11_1221,A,facesParametric,12,59.6604691983,
./stim/MorphM6_02_orig.jpg,8,,,,,0,8,8,8,,,,,,,,,,,,,,,,,,,-11.54296875,-9.462890625,1,0,0,5.8144800663,,,,,2015_Oct_11_1221,A,facesParametric,12,59.6604691983,
./stim/MorphM4_01_orig.jpg,9,,,,,0,9,9,9,,,,,,,,,,,,,,,,,,,-11.66015625,-9.580078125,0,0,1,1.28917312622,,,,,2015_Oct_11_1221,A,facesParametric,12,59.6604691983,
./stim/MorphM8_05_orig.jpg,10,,,,,0,10,10,10,,,,,,,,,,,,,,,,,,,-11.71875,-9.609375,1,0,0,1.28887104988,,,,,2015_Oct_11_1221,A,facesParametric,12,59.6604691983,
./stim/MorphF10_06_orig.jpg,11,,,,,0,11,11,11,,,,,,,,,,,,,,,,,,,-11.689453125,-9.814453125,1,0,0,1.07169318199,,,,,2015_Oct_11_1221,A,facesParametric,12,59.6604691983,
./stim/MorphM3_05_orig.jpg,12,,,,,0,12,12,12,,,,,,,,,,,,,,,,,,,-11.6015625,-10.01953125,1,0,0,2.0084400177,,,,,2015_Oct_11_1221,A,facesParametric,12,59.6604691983,
./stim/MorphM4_03_orig.jpg,13,,,,,0,13,13,13,,,,,,,,,,,,,,,,,,,-11.748046875,-10.166015625,0,0,1,1.45686388016,,,,,2015_Oct_11_1221,A,facesParametric,12,59.6604691983,
./stim/MorphF10_10_orig.jpg,14,,,,,0,14,14,14,,,,,,,,,,,,,,,,,,,-11.748046875,-10.166015625,1,0,0,1.1375939846,,,,,2015_Oct_11_1221,A,facesParametric,12,59.6604691983,
./stim/MorphF1_02_orig.jpg,15,,,,,0,15,15,15,,,,,,,,,,,,,,,,,,,-11.923828125,-10.3125,0,0,1,3.30098986626,,,,,2015_Oct_11_1221,A,facesParametric,12,59.6604691983,
./stim/MorphM9_07_orig.jpg,16,,,,,0,16,16,16,,,,,,,,,,,,,,,,,,,-12.36328125,-10.576171875,1,0,0,1.30554008484,,,,,2015_Oct_11_1221,A,facesParametric,12,59.6604691983,
./stim/MorphF4_07_orig.jpg,17,,,,,0,17,17,17,,,,,,,,,,,,,,,,,,,-12.36328125,-10.576171875,1,0,0,1.47361707687,,,,,2015_Oct_11_1221,A,facesParametric,12,59.6604691983,
./stim/MorphF10_05_orig.jpg,18,,,,,0,18,18,18,,,,,,,,,,,,,,,,,,,-12.36328125,-10.576171875,1,0,0,0.987079143524,,,,,2015_Oct_11_1221,A,facesParametric,12,59.6604691983,
./stim/MorphM3_03_orig.jpg,19,,,,,0,19,19,19,,,,,,,,,,,,,,,,,,,-12.36328125,-10.6640625,1,0,0,0.887611150742,,,,,2015_Oct_11_1221,A,facesParametric,12,59.6604691983,
./stim/MorphF3_05_orig.jpg,20,,,,,0,20,20,20,,,,,,,,,,,,,,,,,,,-12.36328125,-10.6640625,1,0,0,4.28900098801,,,,,2015_Oct_11_1221,A,facesParametric,12,59.6604691983,
./stim/MorphM5_10_orig.jpg,21,,,,,0,21,21,21,,,,,,,,,,,,,,,,,,,-12.36328125,-10.72265625,1,0,0,0.885126113892,,,,,2015_Oct_11_1221,A,facesParametric,12,59.6604691983,
./stim/MorphF5_09_orig.jpg,22,,,,,0,22,22,22,,,,,,,,,,,,,,,,,,,-12.36328125,-10.72265625,1,0,0,1.12135887146,,,,,2015_Oct_11_1221,A,facesParametric,12,59.6604691983,
./stim/MorphF3_01_orig.jpg,23,,,,,0,23,23,23,,,,,,,,,,,,,,,,,,,-12.333984375,-10.751953125,0,0,1,4.57403087616,,,,,2015_Oct_11_1221,A,facesParametric,12,59.6604691983,
./stim/MorphM5_00_orig.jpg,24,,,,,0,24,24,24,,,,,,,,,,,,,,,,,,,-12.5390625,-11.044921875,1,0,0,1.20490717888,,,,,2015_Oct_11_1221,A,facesParametric,12,59.6604691983,
./stim/MorphF5_04_orig.jpg,25,,,,,0,25,25,25,,,,,,,,,,,,,,,,,,,-12.568359375,-11.1328125,0,0,1,4.25514507294,,,,,2015_Oct_11_1221,A,facesParametric,12,59.6604691983,
./stim/MorphF2_08_orig.jpg,26,,,,,0,26,26,26,,,,,,,,,,,,,,,,,,,-12.626953125,-11.162109375,1,0,0,1.22244286537,,,,,2015_Oct_11_1221,A,facesParametric,12,59.6604691983,
./stim/MorphF7_04_orig.jpg,27,,,,,0,27,27,27,,,,,,,,,,,,,,,,,,,-11.8359375,-9.990234375,1,0,0,8.83165192604,,,,,2015_Oct_11_1221,A,facesParametric,12,59.6604691983,
./stim/MorphF4_06_orig.jpg,28,,,,,0,28,28,28,,,,,,,,,,,,,,,,,,,-11.8359375,-10.224609375,1,0,0,2.17769289017,,,,,2015_Oct_11_1221,A,facesParametric,12,59.6604691983,
./stim/MorphM5_07_orig.jpg,29,,,,,0,29,29,29,,,,,,,,,,,,,,,,,,,-11.806640625,-10.25390625,1,0,0,2.02622389793,,,,,2015_Oct_11_1221,A,facesParametric,12,59.6604691983,
./stim/MorphF9_08_orig.jpg,30,,,,,0,30,30,30,,,,,,,,,,,,,,,,,,,-11.806640625,-10.25390625,1,0,0,1.0377509594,,,,,2015_Oct_11_1221,A,facesParametric,12,59.6604691983,
./stim/MorphM8_07_orig.jpg,31,,,,,0,31,31,31,,,,,,,,,,,,,,,,,,,-11.806640625,-10.25390625,1,0,0,5.66219496727,,,,,2015_Oct_11_1221,A,facesParametric,12,59.6604691983,
./stim/MorphM4_08_orig.jpg,32,,,,,0,32,32,32,,,,,,,,,,,,,,,,,,,-11.806640625,-10.25390625,1,0,0,1.23910212517,,,,,2015_Oct_11_1221,A,facesParametric,12,59.6604691983,
./stim/MorphF1_06_orig.jpg,33,,,,,0,33,33,33,,,,,,,,,,,,,,,,,,,-11.77734375,-10.341796875,0,0,1,10.2388000488,,,,,2015_Oct_11_1221,A,facesParametric,12,59.6604691983,
./stim/MorphM6_08_orig.jpg,34,,,,,0,34,34,34,,,,,,,,,,,,,,,,,,,-12.333984375,-10.810546875,1,0,0,2.22751903534,,,,,2015_Oct_11_1221,A,facesParametric,12,59.6604691983,
./stim/MorphM4_07_orig.jpg,35,,,,,0,35,35,35,,,,,,,,,,,,,,,,,,,-12.568359375,-11.162109375,1,0,0,1.72548699379,,,,,2015_Oct_11_1221,A,facesParametric,12,59.6604691983,
./stim/MorphM6_10_orig.jpg,36,,,,,0,36,36,36,,,,,,,,,,,,,,,,,,,-12.59765625,-11.220703125,1,0,0,1.05361485481,,,,,2015_Oct_11_1221,A,facesParametric,12,59.6604691983,
./stim/MorphM2_06_orig.jpg,37,,,,,0,37,37,37,,,,,,,,,,,,,,,,,,,-12.568359375,-11.25,0,0,1,5.54496502876,,,,,2015_Oct_11_1221,A,facesParametric,12,59.6604691983,
./stim/MorphF6_10_orig.jpg,38,,,,,0,38,38,38,,,,,,,,,,,,,,,,,,,-12.568359375,-11.279296875,1,0,0,6.26682496071,,,,,2015_Oct_11_1221,A,facesParametric,12,59.6604691983,
./stim/MorphF3_09_orig.jpg,39,,,,,0,39,39,39,,,,,,,,,,,,,,,,,,,-12.568359375,-11.337890625,1,0,0,1.69047284126,,,,,2015_Oct_11_1221,A,facesParametric,12,59.6604691983,
./stim/MorphM7_00_orig.jpg,40,,,,,0,40,40,40,,,,,,,,,,,,,,,,,,,-12.5390625,-11.42578125,0,0,1,1.77554297447,,,,,2015_Oct_11_1221,A,facesParametric,12,59.6604691983,
./stim/MorphM9_10_orig.jpg,41,,,,,0,41,41,41,,,,,,,,,,,,,,,,,,,-13.41796875,-12.01171875,1,0,0,1.17189598083,,,,,2015_Oct_11_1221,A,facesParametric,12,59.6604691983,
./stim/MorphF4_04_orig.jpg,42,,,,,0,42,42,42,,,,,,,,,,,,,,,,,,,-13.41796875,-12.041015625,0,0,1,8.89815998077,,,,,2015_Oct_11_1221,A,facesParametric,12,59.6604691983,
./stim/MorphM3_01_orig.jpg,43,,,,,0,43,43,43,,,,,,,,,,,,,,,,,,,-13.212890625,-11.982421875,0,0,1,11.7132201195,,,,,2015_Oct_11_1221,A,facesParametric,12,59.6604691983,
./stim/MorphF1_03_orig.jpg,44,,,,,0,44,44,44,,,,,,,,,,,,,,,,,,,-13.271484375,-12.01171875,0,0,1,1.15521621704,,,,,2015_Oct_11_1221,A,facesParametric,12,59.6604691983,
./stim/MorphM8_10_orig.jpg,45,,,,,0,45,45,45,,,,,,,,,,,,,,,,,,,-14.0625,-12.421875,1,0,0,2.91482496262,,,,,2015_Oct_11_1221,A,facesParametric,12,59.6604691983,
./stim/MorphM1_05_orig.jpg,46,,,,,0,46,46,46,,,,,,,,,,,,,,,,,,,-13.4765625,-12.451171875,0,0,1,2.98262500763,,,,,2015_Oct_11_1221,A,facesParametric,12,59.6604691983,
./stim/MorphF4_10_orig.jpg,47,,,,,0,47,47,47,,,,,,,,,,,,,,,,,,,-13.9453125,-13.154296875,1,0,0,1.79185009003,,,,,2015_Oct_11_1221,A,facesParametric,12,59.6604691983,
./stim/MorphF2_02_orig.jpg,48,,,,,0,48,48,48,,,,,,,,,,,,,,,,,,,-13.857421875,-13.125,1,0,0,3.03239107132,,,,,2015_Oct_11_1221,A,facesParametric,12,59.6604691983,
./stim/MorphM5_03_orig.jpg,49,,,,,0,49,49,49,,,,,,,,,,,,,,,,,,,-13.857421875,-13.125,1,0,0,5.20949411392,,,,,2015_Oct_11_1221,A,facesParametric,12,59.6604691983,
./stim/MorphM2_05_orig.jpg,50,,,,,0,50,50,50,,,,,,,,,,,,,,,,,,,-13.828125,-13.125,0,0,1,4.97586417198,,,,,2015_Oct_11_1221,A,facesParametric,12,59.6604691983,
./stim/MorphF6_06_orig.jpg,51,,,,,0,51,51,51,,,,,,,,,,,,,,,,,,,-13.798828125,-13.154296875,1,0,0,1.50679016113,,,,,2015_Oct_11_1221,A,facesParametric,12,59.6604691983,
./stim/MorphM9_02_orig.jpg,52,,,,,0,52,52,52,,,,,,,,,,,,,,,,,,,-13.798828125,-13.154296875,0,0,1,8.12688994408,,,,,2015_Oct_11_1221,A,facesParametric,12,59.6604691983,
./stim/MorphM10_10_orig.jpg,53,,,,,0,53,53,53,,,,,,,,,,,,,,,,,,,-13.857421875,-13.154296875,1,0,0,1.32286596298,,,,,2015_Oct_11_1221,A,facesParametric,12,59.6604691983,
./stim/MorphF7_07_orig.jpg,54,,,,,0,54,54,54,,,,,,,,,,,,,,,,,,,-13.857421875,-13.154296875,1,0,0,1.74191999435,,,,,2015_Oct_11_1221,A,facesParametric,12,59.6604691983,
./stim/MorphF9_03_orig.jpg,55,,,,,0,55,55,55,,,,,,,,,,,,,,,,,,,-13.740234375,-13.154296875,0,0,1,1.35614991188,,,,,2015_Oct_11_1221,A,facesParametric,12,59.6604691983,
./stim/MorphM6_01_orig.jpg,56,,,,,0,56,56,56,,,,,,,,,,,,,,,,,,,-13.740234375,-13.154296875,1,0,0,7.3898961544,,,,,2015_Oct_11_1221,A,facesParametric,12,59.6604691983,
./stim/MorphM10_03_orig.jpg,57,,,,,0,57,57,57,,,,,,,,,,,,,,,,,,,-13.740234375,-13.154296875,1,0,0,1.00407719612,,,,,2015_Oct_11_1221,A,facesParametric,12,59.6604691983,
./stim/MorphF1_07_orig.jpg,58,,,,,0,58,58,58,,,,,,,,,,,,,,,,,,,-13.740234375,-13.154296875,1,0,0,2.2444858551,,,,,2015_Oct_11_1221,A,facesParametric,12,59.6604691983,
./stim/MorphM2_07_orig.jpg,59,,,,,0,59,59,59,,,,,,,,,,,,,,,,,,,-13.76953125,-13.154296875,1,0,0,3.35102510452,,,,,2015_Oct_11_1221,A,facesParametric,12,59.6604691983,
./stim/MorphF8_03_orig.jpg,60,,,,,0,60,60,60,,,,,,,,,,,,,,,,,,,-13.798828125,-13.125,1,0,0,5.51275587082,,,,,2015_Oct_11_1221,A,facesParametric,12,59.6604691983,
./stim/MorphF2_10_orig.jpg,61,,,,,0,61,61,61,,,,,,,,,,,,,,,,,,,-13.798828125,-13.125,1,0,0,0.953649044037,,,,,2015_Oct_11_1221,A,facesParametric,12,59.6604691983,
./stim/MorphM9_06_orig.jpg,62,,,,,0,62,62,62,,,,,,,,,,,,,,,,,,,-13.828125,-13.125,1,0,0,6.66930508614,,,,,2015_Oct_11_1221,A,facesParametric,12,59.6604691983,
./stim/MorphF7_10_orig.jpg,63,,,,,0,63,63,63,,,,,,,,,,,,,,,,,,,-13.828125,-13.125,1,0,0,0.836789131165,,,,,2015_Oct_11_1221,A,facesParametric,12,59.6604691983,
./stim/MorphF9_07_orig.jpg,64,,,,,0,64,64,64,,,,,,,,,,,,,,,,,,,-13.857421875,-13.125,0,0,1,4.57392406464,,,,,2015_Oct_11_1221,A,facesParametric,12,59.6604691983,
./stim/MorphF4_08_orig.jpg,65,,,,,0,65,65,65,,,,,,,,,,,,,,,,,,,-14.619140625,-13.154296875,1,0,0,1.35655403137,,,,,2015_Oct_11_1221,A,facesParametric,12,59.6604691983,
./stim/MorphF7_02_orig.jpg,66,,,,,0,66,66,66,,,,,,,,,,,,,,,,,,,-14.736328125,-13.154296875,0,0,1,2.44502711296,,,,,2015_Oct_11_1221,A,facesParametric,12,59.6604691983,
./stim/MorphM1_10_orig.jpg,67,,,,,0,67,67,67,,,,,,,,,,,,,,,,,,,-14.53125,-13.154296875,1,0,0,14.6465320587,,,,,2015_Oct_11_1221,A,facesParametric,12,59.6604691983,
./stim/MorphM10_05_orig.jpg,68,,,,,0,68,68,68,,,,,,,,,,,,,,,,,,,-14.47265625,-13.154296875,1,0,0,1.00413680077,,,,,2015_Oct_11_1221,A,facesParametric,12,59.6604691983,
./stim/MorphF4_09_orig.jpg,69,,,,,0,69,69,69,,,,,,,,,,,,,,,,,,,-14.326171875,-13.154296875,1,0,0,0.717417955399,,,,,2015_Oct_11_1221,A,facesParametric,12,59.6604691983,
./stim/MorphM4_04_orig.jpg,70,,,,,0,70,70,70,,,,,,,,,,,,,,,,,,,-14.35546875,-13.154296875,0,0,1,1.38952207565,,,,,2015_Oct_11_1221,A,facesParametric,12,59.6604691983,
./stim/MorphF10_04_orig.jpg,71,,,,,0,71,71,71,,,,,,,,,,,,,,,,,,,-14.443359375,-13.154296875,1,0,0,3.3160378933,,,,,2015_Oct_11_1221,A,facesParametric,12,59.6604691983,
./stim/MorphM4_06_orig.jpg,72,,,,,0,72,72,72,,,,,,,,,,,,,,,,,,,-14.443359375,-13.154296875,1,0,0,5.99846196175,,,,,2015_Oct_11_1221,A,facesParametric,12,59.6604691983,
./stim/MorphM6_04_orig.jpg,73,,,,,0,73,73,73,,,,,,,,,,,,,,,,,,,-13.65234375,-13.125,0,0,1,1.62447190285,,,,,2015_Oct_11_1221,A,facesParametric,12,59.6604691983,
./stim/MorphF8_10_orig.jpg,74,,,,,0,74,74,74,,,,,,,,,,,,,,,,,,,-13.681640625,-13.154296875,1,0,0,2.52854895592,,,,,2015_Oct_11_1221,A,facesParametric,12,59.6604691983,
./stim/MorphM8_01_orig.jpg,75,,,,,0,75,75,75,,,,,,,,,,,,,,,,,,,-13.505859375,-13.06640625,0,0,1,2.00978899002,,,,,2015_Oct_11_1221,A,facesParametric,12,59.6604691983,
./stim/MorphF10_00_orig.jpg,76,,,,,0,76,76,76,,,,,,,,,,,,,,,,,,,-13.53515625,-13.125,0,0,1,3.87038588524,,,,,2015_Oct_11_1221,A,facesParametric,12,59.6604691983,
./stim/MorphM8_02_orig.jpg,77,,,,,0,77,77,77,,,,,,,,,,,,,,,,,,,-13.53515625,-13.125,0,0,1,3.93742704391,,,,,2015_Oct_11_1221,A,facesParametric,12,59.6604691983,
./stim/MorphM3_07_orig.jpg,78,,,,,0,78,78,78,,,,,,,,,,,,,,,,,,,-13.828125,-13.154296875,1,0,0,1.40486288071,,,,,2015_Oct_11_1221,A,facesParametric,12,59.6604691983,
./stim/MorphF2_04_orig.jpg,79,,,,,0,79,79,79,,,,,,,,,,,,,,,,,,,-13.681640625,-13.154296875,1,0,0,9.65080094337,,,,,2015_Oct_11_1221,A,facesParametric,12,59.6604691983,
./stim/MorphF8_04_orig.jpg,80,,,,,0,80,80,80,,,,,,,,,,,,,,,,,,,-13.623046875,-13.154296875,0,0,1,1.22253298759,,,,,2015_Oct_11_1221,A,facesParametric,12,59.6604691983,
./stim/MorphM10_07_orig.jpg,81,,,,,0,81,81,81,,,,,,,,,,,,,,,,,,,-13.681640625,-13.154296875,1,0,0,0.937402009964,,,,,2015_Oct_11_1221,A,facesParametric,12,59.6604691983,
./stim/MorphF9_10_orig.jpg,82,,,,,0,82,82,82,,,,,,,,,,,,,,,,,,,-13.7109375,-13.154296875,1,0,0,2.02618288994,,,,,2015_Oct_11_1221,A,facesParametric,12,59.6604691983,
./stim/MorphF6_00_orig.jpg,83,,,,,0,83,83,83,,,,,,,,,,,,,,,,,,,-13.7109375,-13.154296875,0,0,1,1.30488801003,,,,,2015_Oct_11_1221,A,facesParametric,12,59.6604691983,
./stim/MorphF5_06_orig.jpg,84,,,,,0,84,84,84,,,,,,,,,,,,,,,,,,,-13.7109375,-13.154296875,1,0,0,2.64609599113,,,,,2015_Oct_11_1221,A,facesParametric,12,59.6604691983,
./stim/MorphM7_08_orig.jpg,85,,,,,0,85,85,85,,,,,,,,,,,,,,,,,,,-13.65234375,-13.154296875,1,0,0,1.05542397499,,,,,2015_Oct_11_1221,A,facesParametric,12,59.6604691983,
./stim/MorphF3_00_orig.jpg,86,,,,,0,86,86,86,,,,,,,,,,,,,,,,,,,-13.623046875,-13.154296875,0,0,1,1.6574819088,,,,,2015_Oct_11_1221,A,facesParametric,12,59.6604691983,
./stim/MorphF9_06_orig.jpg,87,,,,,0,87,87,87,,,,,,,,,,,,,,,,,,,-13.76953125,-13.154296875,0,0,1,4.27333402634,,,,,2015_Oct_11_1221,A,facesParametric,12,59.6604691983,
./stim/MorphM1_06_orig.jpg,88,,,,,0,88,88,88,,,,,,,,,,,,,,,,,,,-15.439453125,-12.83203125,0,0,1,5.19260692596,,,,,2015_Oct_11_1221,A,facesParametric,12,59.6604691983,
./stim/MorphF5_07_orig.jpg,89,,,,,0,89,89,89,,,,,,,,,,,,,,,,,,,-15.87890625,-13.154296875,1,0,0,2.41225385666,,,,,2015_Oct_11_1221,A,facesParametric,12,59.6604691983,
./stim/MorphM10_01_orig.jpg,90,,,,,0,90,90,90,,,,,,,,,,,,,,,,,,,-15.380859375,-13.125,0,0,1,1.67251706123,,,,,2015_Oct_11_1221,A,facesParametric,12,59.6604691983,
./stim/MorphF7_06_orig.jpg,91,,,,,0,91,91,91,,,,,,,,,,,,,,,,,,,-14.794921875,-13.095703125,1,0,0,6.46698594093,,,,,2015_Oct_11_1221,A,facesParametric,12,59.6604691983,
./stim/MorphF3_06_orig.jpg,92,,,,,0,92,92,92,,,,,,,,,,,,,,,,,,,-14.6484375,-13.095703125,1,0,0,2.93180704117,,,,,2015_Oct_11_1221,A,facesParametric,12,59.6604691983,
./stim/MorphM7_09_orig.jpg,93,,,,,0,93,93,93,,,,,,,,,,,,,,,,,,,-14.6484375,-13.095703125,1,0,0,1.64109611511,,,,,2015_Oct_11_1221,A,facesParametric,12,59.6604691983,
./stim/MorphM9_05_orig.jpg,94,,,,,0,94,94,94,,,,,,,,,,,,,,,,,,,-14.296875,-13.154296875,0,0,1,3.46794509888,,,,,2015_Oct_11_1221,A,facesParametric,12,59.6604691983,
./stim/MorphF1_01_orig.jpg,95,,,,,0,95,95,95,,,,,,,,,,,,,,,,,,,-14.267578125,-13.125,0,0,1,1.74186897278,,,,,2015_Oct_11_1221,A,facesParametric,12,59.6604691983,
./stim/MorphM5_02_orig.jpg,96,,,,,0,96,96,96,,,,,,,,,,,,,,,,,,,-14.267578125,-13.125,1,0,0,3.58514904976,,,,,2015_Oct_11_1221,A,facesParametric,12,59.6604691983,
./stim/MorphF10_09_orig.jpg,97,,,,,0,97,97,97,,,,,,,,,,,,,,,,,,,-14.267578125,-13.095703125,1,0,0,1.23776006699,,,,,2015_Oct_11_1221,A,facesParametric,12,59.6604691983,
./stim/MorphF3_07_orig.jpg,98,,,,,0,98,98,98,,,,,,,,,,,,,,,,,,,-14.267578125,-13.095703125,1,0,0,1.52308607101,,,,,2015_Oct_11_1221,A,facesParametric,12,59.6604691983,
./stim/MorphM10_06_orig.jpg,99,,,,,0,99,99,99,,,,,,,,,,,,,,,,,,,-14.267578125,-13.095703125,1,0,0,0.786586046219,,,,,2015_Oct_11_1221,A,facesParametric,12,59.6604691983,
./stim/MorphF5_05_orig.jpg,100,,,,,0,100,100,100,,,,,,,,,,,,,,,,,,,-14.23828125,-13.06640625,1,0,0,4.60746407509,,,,,2015_Oct_11_1221,A,facesParametric,12,59.6604691983,
./stim/MorphF9_00_orig.jpg,101,,,,,0,101,101,101,,,,,,,,,,,,,,,,,,,-14.267578125,-13.037109375,0,0,1,3.58534193039,,,,,2015_Oct_11_1221,A,facesParametric,12,59.6604691983,
./stim/MorphM3_08_orig.jpg,102,,,,,0,102,102,102,,,,,,,,,,,,,,,,,,,-14.296875,-13.0078125,1,0,0,2.15959191322,,,,,2015_Oct_11_1221,A,facesParametric,12,59.6604691983,
./stim/MorphF8_00_orig.jpg,103,,,,,0,103,103,103,,,,,,,,,,,,,,,,,,,-14.208984375,-13.0078125,0,0,1,1.37327694893,,,,,2015_Oct_11_1221,A,facesParametric,12,59.6604691983,
./stim/MorphF4_02_orig.jpg,104,,,,,0,104,104,104,,,,,,,,,,,,,,,,,,,-13.916015625,-13.154296875,0,0,1,1.53807115555,,,,,2015_Oct_11_1221,A,facesParametric,12,59.6604691983,
./stim/MorphF3_04_orig.jpg,105,,,,,0,105,105,105,,,,,,,,,,,,,,,,,,,-13.359375,-13.0078125,0,0,1,7.18894195557,,,,,2015_Oct_11_1221,A,facesParametric,12,59.6604691983,
./stim/MorphF8_07_orig.jpg,106,,,,,0,106,106,106,,,,,,,,,,,,,,,,,,,-13.359375,-13.06640625,1,0,0,2.4100651741,,,,,2015_Oct_11_1221,A,facesParametric,12,59.6604691983,
./stim/MorphM7_06_orig.jpg,107,,,,,0,107,107,107,,,,,,,,,,,,,,,,,,,-13.359375,-13.06640625,1,0,0,0.870122909546,,,,,2015_Oct_11_1221,A,facesParametric,12,59.6604691983,
./stim/MorphF8_08_orig.jpg,108,,,,,0,108,108,108,,,,,,,,,,,,,,,,,,,-11.54296875,-13.154296875,1,0,0,1.27297687531,,,,,2015_Oct_11_1221,A,facesParametric,12,59.6604691983,
./stim/MorphF9_05_orig.jpg,109,,,,,0,109,109,109,,,,,,,,,,,,,,,,,,,-11.71875,-13.154296875,0,0,1,5.07653307915,,,,,2015_Oct_11_1221,A,facesParametric,12,59.6604691983,
./stim/MorphM10_00_orig.jpg,110,,,,,0,110,110,110,,,,,,,,,,,,,,,,,,,-12.392578125,-13.154296875,0,0,1,0.786228895187,,,,,2015_Oct_11_1221,A,facesParametric,12,59.6604691983,
./stim/MorphM3_02_orig.jpg,111,,,,,0,111,111,111,,,,,,,,,,,,,,,,,,,-12.421875,-13.154296875,0,0,1,1.95949792862,,,,,2015_Oct_11_1221,A,facesParametric,12,59.6604691983,
./stim/MorphF5_08_orig.jpg,112,,,,,0,112,112,112,,,,,,,,,,,,,,,,,,,-12.421875,-13.154296875,1,0,0,3.58555412292,,,,,2015_Oct_11_1221,A,facesParametric,12,59.6604691983,
./stim/MorphF1_05_orig.jpg,113,,,,,0,113,113,113,,,,,,,,,,,,,,,,,,,-12.509765625,-13.154296875,0,0,1,2.67837905884,,,,,2015_Oct_11_1221,A,facesParametric,12,59.6604691983,
./stim/MorphM1_08_orig.jpg,114,,,,,0,114,114,114,,,,,,,,,,,,,,,,,,,-12.7734375,-13.125,1,0,0,1.52371621132,,,,,2015_Oct_11_1221,A,facesParametric,12,59.6604691983,
./stim/MorphF4_03_orig.jpg,115,,,,,0,115,115,115,,,,,,,,,,,,,,,,,,,-12.7734375,-13.095703125,0,0,1,1.57436490059,,,,,2015_Oct_11_1221,A,facesParametric,12,59.6604691983,
./stim/MorphM8_03_orig.jpg,116,,,,,0,116,116,116,,,,,,,,,,,,,,,,,,,-12.861328125,-13.154296875,0,0,1,3.50131487846,,,,,2015_Oct_11_1221,A,facesParametric,12,59.6604691983,
./stim/MorphF6_07_orig.jpg,117,,,,,0,117,117,117,,,,,,,,,,,,,,,,,,,-13.154296875,-13.125,1,0,0,4.72504210472,,,,,2015_Oct_11_1221,A,facesParametric,12,59.6604691983,
./stim/MorphF2_09_orig.jpg,118,,,,,0,118,118,118,,,,,,,,,,,,,,,,,,,-13.125,-13.154296875,1,0,0,0.920746088028,,,,,2015_Oct_11_1221,A,facesParametric,12,59.6604691983,
./stim/MorphM5_06_orig.jpg,119,,,,,0,119,119,119,,,,,,,,,,,,,,,,,,,-13.330078125,-12.919921875,0,0,1,5.6135840416,,,,,2015_Oct_11_1221,A,facesParametric,12,59.6604691983,
./stim/MorphM9_08_orig.jpg,120,,,,,0,120,120,120,,,,,,,,,,,,,,,,,,,-15.3515625,-12.65625,1,0,0,6.33348894119,,,,,2015_Oct_11_1221,A,facesParametric,12,59.6604691983,
./stim/MorphM6_05_orig.jpg,121,,,,,0,121,121,121,,,,,,,,,,,,,,,,,,,-15.380859375,-12.685546875,0,0,1,2.44493293762,,,,,2015_Oct_11_1221,A,facesParametric,12,59.6604691983,
./stim/MorphM9_01_orig.jpg,122,,,,,0,122,122,122,,,,,,,,,,,,,,,,,,,-15.46875,-12.744140625,0,0,1,0.853496074677,,,,,2015_Oct_11_1221,A,facesParametric,12,59.6604691983,
./stim/MorphF7_03_orig.jpg,123,,,,,0,123,123,123,,,,,,,,,,,,,,,,,,,-15.498046875,-12.7734375,0,0,1,2.22531104088,,,,,2015_Oct_11_1221,A,facesParametric,12,59.6604691983,
./stim/MorphM7_03_orig.jpg,124,,,,,0,124,124,124,,,,,,,,,,,,,,,,,,,-15.64453125,-12.861328125,1,0,0,2.71418094635,,,,,2015_Oct_11_1221,A,facesParametric,12,59.6604691983,
./stim/MorphM10_09_orig.jpg,125,,,,,0,125,125,125,,,,,,,,,,,,,,,,,,,-15.64453125,-12.861328125,1,0,0,0.652173042297,,,,,2015_Oct_11_1221,A,facesParametric,12,59.6604691983,
./stim/MorphF5_02_orig.jpg,126,,,,,0,126,126,126,,,,,,,,,,,,,,,,,,,-15.673828125,-12.83203125,0,0,1,3.45119714737,,,,,2015_Oct_11_1221,A,facesParametric,12,59.6604691983,
./stim/MorphF6_03_orig.jpg,127,,,,,0,127,127,127,,,,,,,,,,,,,,,,,,,-15.498046875,-12.744140625,0,0,1,6.85367488861,,,,,2015_Oct_11_1221,A,facesParametric,12,59.6604691983,
./stim/MorphF4_00_orig.jpg,128,,,,,0,128,128,128,,,,,,,,,,,,,,,,,,,-15.52734375,-12.83203125,0,0,1,1.85885381699,,,,,2015_Oct_11_1221,A,facesParametric,12,59.6604691983,
./stim/MorphM5_04_orig.jpg,129,,,,,0,129,129,129,,,,,,,,,,,,,,,,,,,-15.52734375,-12.83203125,0,0,1,3.23304605484,,,,,2015_Oct_11_1221,A,facesParametric,12,59.6604691983,
./stim/MorphM1_01_orig.jpg,130,,,,,0,130,130,130,,,,,,,,,,,,,,,,,,,-15.52734375,-12.83203125,0,0,1,1.43852186203,,,,,2015_Oct_11_1221,A,facesParametric,12,59.6604691983,
./stim/MorphM7_04_orig.jpg,131,,,,,0,131,131,131,,,,,,,,,,,,,,,,,,,-15.556640625,-12.861328125,1,0,0,1.02082705498,,,,,2015_Oct_11_1221,A,facesParametric,12,59.6604691983,
./stim/MorphF7_08_orig.jpg,132,,,,,0,132,132,132,,,,,,,,,,,,,,,,,,,-15.5859375,-12.802734375,1,0,0,2.11035585403,,,,,2015_Oct_11_1221,A,facesParametric,12,59.6604691983,
./stim/MorphF4_05_orig.jpg,133,,,,,0,133,133,133,,,,,,,,,,,,,,,,,,,-15.46875,-12.890625,0,0,1,4.33799481392,,,,,2015_Oct_11_1221,A,facesParametric,12,59.6604691983,
./stim/MorphF3_02_orig.jpg,134,,,,,0,134,134,134,,,,,,,,,,,,,,,,,,,-15.46875,-12.890625,0,0,1,3.48491096497,,,,,2015_Oct_11_1221,A,facesParametric,12,59.6604691983,
./stim/MorphM7_05_orig.jpg,135,,,,,0,135,135,135,,,,,,,,,,,,,,,,,,,-15.615234375,-12.890625,1,0,0,0.987169981003,,,,,2015_Oct_11_1221,A,facesParametric,12,59.6604691983,
./stim/MorphM1_00_orig.jpg,136,,,,,0,136,136,136,,,,,,,,,,,,,,,,,,,-14.94140625,-12.3046875,0,0,1,1.40700387955,,,,,2015_Oct_11_1221,A,facesParametric,12,59.6604691983,
./stim/MorphM4_05_orig.jpg,137,,,,,0,137,137,137,,,,,,,,,,,,,,,,,,,-15.029296875,-12.36328125,0,0,1,2.39465284348,,,,,2015_Oct_11_1221,A,facesParametric,12,59.6604691983,
./stim/MorphF2_06_orig.jpg,138,,,,,0,138,138,138,,,,,,,,,,,,,,,,,,,-15.029296875,-12.36328125,1,0,0,1.55638599396,,,,,2015_Oct_11_1221,A,facesParametric,12,59.6604691983,
./stim/MorphF7_01_orig.jpg,139,,,,,0,139,139,139,,,,,,,,,,,,,,,,,,,-14.70703125,-12.24609375,0,0,1,1.13808989525,,,,,2015_Oct_11_1221,A,facesParametric,12,59.6604691983,
./stim/MorphF1_08_orig.jpg,140,,,,,0,140,140,140,,,,,,,,,,,,,,,,,,,-15.0,-12.421875,0,0,1,2.44579291344,,,,,2015_Oct_11_1221,A,facesParametric,12,59.6604691983,
./stim/MorphM8_08_orig.jpg,141,,,,,0,141,141,141,,,,,,,,,,,,,,,,,,,-15.029296875,-12.421875,1,0,0,4.473747015,,,,,2015_Oct_11_1221,A,facesParametric,12,59.6604691983,
./stim/MorphM6_06_orig.jpg,142,,,,,0,142,142,142,,,,,,,,,,,,,,,,,,,-15.05859375,-12.451171875,0,0,1,4.0870051384,,,,,2015_Oct_11_1221,A,facesParametric,12,59.6604691983,
./stim/MorphM3_00_orig.jpg,143,,,,,0,143,143,143,,,,,,,,,,,,,,,,,,,-15.1171875,-12.451171875,0,0,1,1.85908794403,,,,,2015_Oct_11_1221,A,facesParametric,12,59.6604691983,
./stim/MorphM5_08_orig.jpg,144,,,,,0,144,144,144,,,,,,,,,,,,,,,,,,,-15.615234375,-12.24609375,1,0,0,2.11046218872,,,,,2015_Oct_11_1221,A,facesParametric,12,59.6604691983,
./stim/MorphF6_02_orig.jpg,145,,,,,0,145,145,145,,,,,,,,,,,,,,,,,,,-15.322265625,-12.099609375,0,0,1,2.17725086212,,,,,2015_Oct_11_1221,A,facesParametric,12,59.6604691983,
./stim/MorphF8_02_orig.jpg,146,,,,,0,146,146,146,,,,,,,,,,,,,,,,,,,-15.263671875,-12.216796875,0,0,1,1.53957509995,,,,,2015_Oct_11_1221,A,facesParametric,12,59.6604691983,
./stim/MorphF2_03_orig.jpg,147,,,,,0,147,147,147,,,,,,,,,,,,,,,,,,,-15.380859375,-12.333984375,1,0,0,2.99870109558,,,,,2015_Oct_11_1221,A,facesParametric,12,59.6604691983,
./stim/MorphF8_06_orig.jpg,148,,,,,0,148,148,148,,,,,,,,,,,,,,,,,,,-15.380859375,-12.333984375,1,0,0,1.17168593407,,,,,2015_Oct_11_1221,A,facesParametric,12,59.6604691983,
./stim/MorphM8_00_orig.jpg,149,,,,,0,149,149,149,,,,,,,,,,,,,,,,,,,-15.263671875,-11.89453125,0,0,1,1.20494389534,,,,,2015_Oct_11_1221,A,facesParametric,12,59.6604691983,
./stim/MorphF8_09_orig.jpg,150,,,,,0,150,150,150,,,,,,,,,,,,,,,,,,,-15.615234375,-12.099609375,1,0,0,2.49588704109,,,,,2015_Oct_11_1221,A,facesParametric,12,59.6604691983,
./stim/MorphF10_01_orig.jpg,151,,,,,0,151,151,151,,,,,,,,,,,,,,,,,,,-15.556640625,-11.982421875,0,0,1,1.27287101746,,,,,2015_Oct_11_1221,A,facesParametric,12,59.6604691983,
./stim/MorphM7_07_orig.jpg,152,,,,,0,152,152,152,,,,,,,,,,,,,,,,,,,-15.703125,-12.0703125,1,0,0,1.79193687439,,,,,2015_Oct_11_1221,A,facesParametric,12,59.6604691983,
./stim/MorphM1_07_orig.jpg,153,,,,,0,153,153,153,,,,,,,,,,,,,,,,,,,-15.703125,-12.0703125,1,0,0,5.73025107384,,,,,2015_Oct_11_1221,A,facesParametric,12,59.6604691983,
./stim/MorphM3_10_orig.jpg,154,,,,,0,154,154,154,,,,,,,,,,,,,,,,,,,-15.703125,-12.0703125,1,0,0,1.10469913483,,,,,2015_Oct_11_1221,A,facesParametric,12,59.6604691983,
./stim/MorphM6_03_orig.jpg,155,,,,,0,155,155,155,,,,,,,,,,,,,,,,,,,-17.05078125,-13.0078125,0,0,1,2.19363594055,,,,,2015_Oct_11_1221,A,facesParametric,12,59.6604691983,
./stim/MorphM4_10_orig.jpg,156,,,,,0,156,156,156,,,,,,,,,,,,,,,,,,,-17.34375,-13.154296875,1,0,0,1.77397108078,,,,,2015_Oct_11_1221,A,facesParametric,12,59.6604691983,
./stim/MorphF6_08_orig.jpg,157,,,,,0,157,157,157,,,,,,,,,,,,,,,,,,,-17.28515625,-13.154296875,1,0,0,2.67890310287,,,,,2015_Oct_11_1221,A,facesParametric,12,59.6604691983,
./stim/MorphM5_01_orig.jpg,158,,,,,0,158,158,158,,,,,,,,,,,,,,,,,,,-17.255859375,-13.154296875,1,0,0,3.26661491394,,,,,2015_Oct_11_1221,A,facesParametric,12,59.6604691983,
./stim/MorphF2_05_orig.jpg,159,,,,,0,159,159,159,,,,,,,,,,,,,,,,,,,-17.255859375,-13.154296875,1,0,0,1.82581400871,,,,,2015_Oct_11_1221,A,facesParametric,12,59.6604691983,
./stim/MorphF3_03_orig.jpg,160,,,,,0,160,160,160,,,,,,,,,,,,,,,,,,,-17.021484375,-12.978515625,1,0,0,9.23300004005,,,,,2015_Oct_11_1221,A,facesParametric,12,59.6604691983,
./stim/MorphF1_10_orig.jpg,161,,,,,0,161,161,161,,,,,,,,,,,,,,,,,,,-17.05078125,-12.978515625,0,0,1,3.56897497177,,,,,2015_Oct_11_1221,A,facesParametric,12,59.6604691983,
./stim/MorphF7_05_orig.jpg,162,,,,,0,162,162,162,,,,,,,,,,,,,,,,,,,-17.373046875,-13.154296875,0,0,1,2.73067688942,,,,,2015_Oct_11_1221,A,facesParametric,12,59.6604691983,
./stim/MorphF3_10_orig.jpg,163,,,,,0,163,163,163,,,,,,,,,,,,,,,,,,,-17.490234375,-13.154296875,1,0,0,1.22165203094,,,,,2015_Oct_11_1221,A,facesParametric,12,59.6604691983,
./stim/MorphM2_02_orig.jpg,164,,,,,0,164,164,164,,,,,,,,,,,,,,,,,,,-17.666015625,-13.154296875,0,0,1,5.2425558567,,,,,2015_Oct_11_1221,A,facesParametric,12,59.6604691983,
./stim/MorphM9_04_orig.jpg,165,,,,,0,165,165,165,,,,,,,,,,,,,,,,,,,-17.8125,-13.095703125,0,0,1,1.75882601738,,,,,2015_Oct_11_1221,A,facesParametric,12,59.6604691983,
./stim/MorphF6_09_orig.jpg,166,,,,,0,166,166,166,,,,,,,,,,,,,,,,,,,-18.046875,-13.154296875,1,0,0,0.836687088013,,,,,2015_Oct_11_1221,A,facesParametric,12,59.6604691983,
./stim/MorphM2_00_orig.jpg,167,,,,,0,167,167,167,,,,,,,,,,,,,,,,,,,-17.98828125,-13.125,0,0,1,1.2875521183,,,,,2015_Oct_11_1221,A,facesParametric,12,59.6604691983,
./stim/MorphM1_04_orig.jpg,168,,,,,0,168,168,168,,,,,,,,,,,,,,,,,,,-17.783203125,-13.095703125,1,0,0,1.54068899155,,,,,2015_Oct_11_1221,A,facesParametric,12,59.6604691983,
./stim/MorphM7_02_orig.jpg,169,,,,,0,169,169,169,,,,,,,,,,,,,,,,,,,-17.373046875,-13.154296875,0,0,1,9.4494600296,,,,,2015_Oct_11_1221,A,facesParametric,12,59.6604691983,
./stim/MorphF4_01_orig.jpg,170,,,,,0,170,170,170,,,,,,,,,,,,,,,,,,,-17.4609375,-13.154296875,0,0,1,1.17220187187,,,,,2015_Oct_11_1221,A,facesParametric,12,59.6604691983,
./stim/MorphF7_09_orig.jpg,171,,,,,0,171,171,171,,,,,,,,,,,,,,,,,,,-17.6953125,-13.154296875,1,0,0,1.45625591278,,,,,2015_Oct_11_1221,A,facesParametric,12,59.6604691983,
./stim/MorphF2_00_orig.jpg,172,,,,,0,172,172,172,,,,,,,,,,,,,,,,,,,-17.4609375,-12.861328125,0,0,1,4.17135500908,,,,,2015_Oct_11_1221,A,facesParametric,12,59.6604691983,
./stim/MorphM1_09_orig.jpg,173,,,,,0,173,173,173,,,,,,,,,,,,,,,,,,,-17.4609375,-12.94921875,1,0,0,3.66905498505,,,,,2015_Oct_11_1221,A,facesParametric,12,59.6604691983,
./stim/MorphM10_08_orig.jpg,174,,,,,0,174,174,174,,,,,,,,,,,,,,,,,,,-17.4609375,-12.94921875,1,0,0,0.919862031937,,,,,2015_Oct_11_1221,A,facesParametric,12,59.6604691983,
./stim/MorphF6_04_orig.jpg,175,,,,,0,175,175,175,,,,,,,,,,,,,,,,,,,-17.431640625,-13.0078125,0,0,1,1.80901503563,,,,,2015_Oct_11_1221,A,facesParametric,12,59.6604691983,
./stim/MorphF10_03_orig.jpg,176,,,,,0,176,176,176,,,,,,,,,,,,,,,,,,,-17.431640625,-13.0078125,0,0,1,2.49606084824,,,,,2015_Oct_11_1221,A,facesParametric,12,59.6604691983,
./stim/MorphF1_09_orig.jpg,177,,,,,0,177,177,177,,,,,,,,,,,,,,,,,,,-17.431640625,-13.0078125,1,0,0,3.4489979744,,,,,2015_Oct_11_1221,A,facesParametric,12,59.6604691983,
./stim/MorphM2_04_orig.jpg,178,,,,,0,178,178,178,,,,,,,,,,,,,,,,,,,-17.490234375,-13.154296875,0,0,1,1.8256790638,,,,,2015_Oct_11_1221,A,facesParametric,12,59.6604691983,
./stim/MorphM9_03_orig.jpg,179,,,,,0,179,179,179,,,,,,,,,,,,,,,,,,,-17.607421875,-13.154296875,0,0,1,1.74043893814,,,,,2015_Oct_11_1221,A,facesParametric,12,59.6604691983,
./stim/MorphF10_08_orig.jpg,180,,,,,0,180,180,180,,,,,,,,,,,,,,,,,,,-17.607421875,-13.154296875,1,0,0,0.920422792435,,,,,2015_Oct_11_1221,A,facesParametric,12,59.6604691983,
./stim/MorphM4_02_orig.jpg,181,,,,,0,181,181,181,,,,,,,,,,,,,,,,,,,-17.314453125,-13.0078125,0,0,1,2.19387316704,,,,,2015_Oct_11_1221,A,facesParametric,12,59.6604691983,
./stim/MorphF8_05_orig.jpg,182,,,,,0,182,182,182,,,,,,,,,,,,,,,,,,,-17.4609375,-13.125,0,0,1,7.03624081612,,,,,2015_Oct_11_1221,A,facesParametric,12,59.6604691983,
./stim/MorphM6_09_orig.jpg,183,,,,,0,183,183,183,,,,,,,,,,,,,,,,,,,-19.27734375,-13.154296875,1,0,0,1.8580698967,,,,,2015_Oct_11_1221,A,facesParametric,12,59.6604691983,
./stim/MorphM9_00_orig.jpg,184,,,,,0,184,184,184,,,,,,,,,,,,,,,,,,,-17.490234375,-11.6015625,0,0,1,1.57445597649,,,,,2015_Oct_11_1221,A,facesParametric,12,59.6604691983,
./stim/MorphF1_04_orig.jpg,185,,,,,0,185,185,185,,,,,,,,,,,,,,,,,,,-18.779296875,-12.5390625,0,0,1,1.18801617622,,,,,2015_Oct_11_1221,A,facesParametric,12,59.6604691983,
./stim/MorphF9_09_orig.jpg,186,,,,,0,186,186,186,,,,,,,,,,,,,,,,,,,-18.955078125,-12.65625,1,0,0,2.68016600609,,,,,2015_Oct_11_1221,A,facesParametric,12,59.6604691983,
./stim/MorphF5_01_orig.jpg,187,,,,,0,187,187,187,,,,,,,,,,,,,,,,,,,-19.013671875,-12.744140625,0,0,1,2.29509091377,,,,,2015_Oct_11_1221,A,facesParametric,12,59.6604691983,
./stim/MorphF8_01_orig.jpg,188,,,,,0,188,188,188,,,,,,,,,,,,,,,,,,,-19.248046875,-12.919921875,0,0,1,3.31722998619,,,,,2015_Oct_11_1221,A,facesParametric,12,59.6604691983,
./stim/MorphM2_09_orig.jpg,189,,,,,0,189,189,189,,,,,,,,,,,,,,,,,,,-19.248046875,-12.890625,1,0,0,1.23904395103,,,,,2015_Oct_11_1221,A,facesParametric,12,59.6604691983,
./stim/MorphM3_06_orig.jpg,190,,,,,0,190,190,190,,,,,,,,,,,,,,,,,,,-19.16015625,-12.890625,1,0,0,0.887371063232,,,,,2015_Oct_11_1221,A,facesParametric,12,59.6604691983,
./stim/MorphM1_03_orig.jpg,191,,,,,0,191,191,191,,,,,,,,,,,,,,,,,,,-19.453125,-13.06640625,0,0,1,1.64134383202,,,,,2015_Oct_11_1221,A,facesParametric,12,59.6604691983,
./stim/MorphF5_03_orig.jpg,192,,,,,0,192,192,192,,,,,,,,,,,,,,,,,,,-19.599609375,-13.154296875,0,0,1,5.27563309669,,,,,2015_Oct_11_1221,A,facesParametric,12,59.6604691983,
./stim/MorphM8_09_orig.jpg,193,,,,,0,193,193,193,,,,,,,,,,,,,,,,,,,-19.51171875,-13.125,1,0,0,1.42366504669,,,,,2015_Oct_11_1221,A,facesParametric,12,59.6604691983,
./stim/MorphM3_09_orig.jpg,194,,,,,0,194,194,194,,,,,,,,,,,,,,,,,,,-19.423828125,-13.095703125,1,0,0,0.769100189209,,,,,2015_Oct_11_1221,A,facesParametric,12,59.6604691983,
./stim/MorphM2_10_orig.jpg,195,,,,,0,195,195,195,,,,,,,,,,,,,,,,,,,-19.1015625,-13.0078125,1,0,0,1.32212495804,,,,,2015_Oct_11_1221,A,facesParametric,12,59.6604691983,
./stim/MorphF3_08_orig.jpg,196,,,,,0,196,196,196,,,,,,,,,,,,,,,,,,,-19.072265625,-12.978515625,1,0,0,1.30603814125,,,,,2015_Oct_11_1221,A,facesParametric,12,59.6604691983,
./stim/MorphF5_00_orig.jpg,197,,,,,0,197,197,197,,,,,,,,,,,,,,,,,,,-19.04296875,-12.861328125,0,0,1,1.37271285057,,,,,2015_Oct_11_1221,A,facesParametric,12,59.6604691983,
./stim/MorphM4_00_orig.jpg,198,,,,,0,198,198,198,,,,,,,,,,,,,,,,,,,-18.75,-12.59765625,0,0,1,6.8521130085,,,,,2015_Oct_11_1221,A,facesParametric,12,59.6604691983,
./stim/MorphM2_03_orig.jpg,199,,,,,0,199,199,199,,,,,,,,,,,,,,,,,,,-18.779296875,-12.568359375,0,0,1,1.00344014168,,,,,2015_Oct_11_1221,A,facesParametric,12,59.6604691983,
./stim/MorphF9_04_orig.jpg,200,,,,,0,200,200,200,,,,,,,,,,,,,,,,,,,-18.779296875,-12.568359375,0,0,1,1.2705719471,,,,,2015_Oct_11_1221,A,facesParametric,12,59.6604691983,
./stim/MorphM8_04_orig.jpg,201,,,,,0,201,201,201,,,,,,,,,,,,,,,,,,,-18.80859375,-12.568359375,0,0,1,2.76428508759,,,,,2015_Oct_11_1221,A,facesParametric,12,59.6604691983,
./stim/MorphM7_01_orig.jpg,202,,,,,0,202,202,202,,,,,,,,,,,,,,,,,,,-18.837890625,-12.568359375,0,0,1,1.63951706886,,,,,2015_Oct_11_1221,A,facesParametric,12,59.6604691983,
./stim/MorphF6_01_orig.jpg,203,,,,,0,203,203,203,,,,,,,,,,,,,,,,,,,-18.8671875,-12.568359375,0,0,1,0.853593111038,,,,,2015_Oct_11_1221,A,facesParametric,12,59.6604691983,
./stim/MorphM5_09_orig.jpg,204,,,,,0,204,204,204,,,,,,,,,,,,,,,,,,,-18.896484375,-12.568359375,1,0,0,6.3508617878,,,,,2015_Oct_11_1221,A,facesParametric,12,59.6604691983,
./stim/MorphM10_02_orig.jpg,205,,,,,0,205,205,205,,,,,,,,,,,,,,,,,,,-19.013671875,-12.59765625,0,0,1,2.91471910477,,,,,2015_Oct_11_1221,A,facesParametric,12,59.6604691983,
./stim/MorphM6_07_orig.jpg,206,,,,,0,206,206,206,,,,,,,,,,,,,,,,,,,-19.04296875,-12.568359375,0,0,1,1.62465119362,,,,,2015_Oct_11_1221,A,facesParametric,12,59.6604691983,
./stim/MorphF5_10_orig.jpg,207,,,,,0,207,207,207,,,,,,,,,,,,,,,,,,,-19.04296875,-12.568359375,1,0,0,1.28943896294,,,,,2015_Oct_11_1221,A,facesParametric,12,59.6604691983,
./stim/MorphF10_07_orig.jpg,208,,,,,0,208,208,208,,,,,,,,,,,,,,,,,,,-19.072265625,-12.5390625,1,0,0,0.736103057861,,,,,2015_Oct_11_1221,A,facesParametric,12,59.6604691983,
./stim/MorphF1_00_orig.jpg,209,,,,,0,209,209,209,,,,,,,,,,,,,,,,,,,-19.072265625,-12.5390625,0,0,1,1.28927898407,,,,,2015_Oct_11_1221,A,facesParametric,12,59.6604691983,
./stim/MorphM8_06_orig.jpg,210,,,,,0,210,210,210,,,,,,,,,,,,,,,,,,,-19.5703125,-12.861328125,0,0,1,1.37343192101,,,,,2015_Oct_11_1221,A,facesParametric,12,59.6604691983,
./stim/MorphM10_04_orig.jpg,211,,,,,0,211,211,211,,,,,,,,,,,,,,,,,,,-20.419921875,-13.154296875,1,0,0,2.64605808258,,,,,2015_Oct_11_1221,A,facesParametric,12,59.6604691983,
./stim/MorphM9_09_orig.jpg,212,,,,,0,212,212,212,,,,,,,,,,,,,,,,,,,-20.419921875,-13.154296875,1,0,0,0.835412979126,,,,,2015_Oct_11_1221,A,facesParametric,12,59.6604691983,
./stim/MorphM6_00_orig.jpg,213,,,,,0,213,213,213,,,,,,,,,,,,,,,,,,,-20.361328125,-13.154296875,0,0,1,1.49079203606,,,,,2015_Oct_11_1221,A,facesParametric,12,59.6604691983,
./stim/MorphF7_00_orig.jpg,214,,,,,0,214,214,214,,,,,,,,,,,,,,,,,,,-20.56640625,-13.154296875,0,0,1,0.852787017822,,,,,2015_Oct_11_1221,A,facesParametric,12,59.6604691983,
./stim/MorphM2_08_orig.jpg,215,,,,,0,215,215,215,,,,,,,,,,,,,,,,,,,-20.595703125,-13.125,1,0,0,3.75169110298,,,,,2015_Oct_11_1221,A,facesParametric,12,59.6604691983,
./stim/MorphM3_04_orig.jpg,216,,,,,0,216,216,216,,,,,,,,,,,,,,,,,,,-20.595703125,-13.125,1,0,0,4.79181098938,,,,,2015_Oct_11_1221,A,facesParametric,12,59.6604691983,
./stim/MorphM4_09_orig.jpg,217,,,,,0,217,217,217,,,,,,,,,,,,,,,,,,,-20.595703125,-13.125,1,0,0,1.47369384766,,,,,2015_Oct_11_1221,A,facesParametric,12,59.6604691983,
./stim/MorphF2_01_orig.jpg,218,,,,,0,218,218,218,,,,,,,,,,,,,,,,,,,-20.419921875,-13.154296875,0,0,1,7.54074597359,,,,,2015_Oct_11_1221,A,facesParametric,12,59.6604691983,
./stim/MorphM7_10_orig.jpg,219,,,,,0,219,219,219,,,,,,,,,,,,,,,,,,,-20.56640625,-13.06640625,1,0,0,2.77902793884,,,,,2015_Oct_11_1221,A,facesParametric,12,59.6604691983,
,,,,,,,,,,,,,,,,,,,,,,,,,,,,,,,,,,return,12.5198550224,,,2015_Oct_11_1221,A,facesParametric,12,59.6604691983,
./stim/MorphF10_06_orig.jpg,0,,,,,,,,,0,0,0,0,,,,,,,,,,,,,,,-23.4375,-12.568359375,1,0,0,3.02955007553,,,,,2015_Oct_11_1221,A,facesParametric,12,59.6604691983,
./stim/MorphM8_08_orig.jpg,1,,,,,,,,,0,1,1,1,,,,,,,,,,,,,,,-23.4375,-12.65625,1,0,0,4.47279691696,,,,,2015_Oct_11_1221,A,facesParametric,12,59.6604691983,
./stim/MorphF1_08_orig.jpg,2,,,,,,,,,0,2,2,2,,,,,,,,,,,,,,,-23.4375,-12.744140625,0,0,1,3.36535906792,,,,,2015_Oct_11_1221,A,facesParametric,12,59.6604691983,
./stim/MorphM1_10_orig.jpg,3,,,,,,,,,0,3,3,3,,,,,,,,,,,,,,,-23.26171875,-12.83203125,0,0,1,5.2275929451,,,,,2015_Oct_11_1221,A,facesParametric,12,59.6604691983,
./stim/MorphF10_05_orig.jpg,4,,,,,,,,,0,4,4,4,,,,,,,,,,,,,,,-23.26171875,-12.7734375,1,0,0,1.74172496796,,,,,2015_Oct_11_1221,A,facesParametric,12,59.6604691983,
./stim/MorphF3_08_orig.jpg,5,,,,,,,,,0,5,5,5,,,,,,,,,,,,,,,-23.232421875,-12.7734375,1,0,0,0.887154102325,,,,,2015_Oct_11_1221,A,facesParametric,12,59.6604691983,
./stim/MorphF2_02_orig.jpg,6,,,,,,,,,0,6,6,6,,,,,,,,,,,,,,,-23.232421875,-12.744140625,0,0,1,1.67448186874,,,,,2015_Oct_11_1221,A,facesParametric,12,59.6604691983,
./stim/MorphM5_02_orig.jpg,7,,,,,,,,,0,7,7,7,,,,,,,,,,,,,,,-21.796875,-12.12890625,1,0,0,4.54090380669,,,,,2015_Oct_11_1221,A,facesParametric,12,59.6604691983,
./stim/MorphF7_10_orig.jpg,8,,,,,,,,,0,8,8,8,,,,,,,,,,,,,,,-22.294921875,-11.044921875,1,0,0,0.76855301857,,,,,2015_Oct_11_1221,A,facesParametric,12,59.6604691983,
./stim/MorphF2_10_orig.jpg,9,,,,,,,,,0,9,9,9,,,,,,,,,,,,,,,-22.20703125,-11.044921875,1,0,0,0.85363817215,,,,,2015_Oct_11_1221,A,facesParametric,12,59.6604691983,
./stim/MorphM4_07_orig.jpg,10,,,,,,,,,0,10,10,10,,,,,,,,,,,,,,,-23.26171875,-11.220703125,1,0,0,0.854251146317,,,,,2015_Oct_11_1221,A,facesParametric,12,59.6604691983,
./stim/MorphM10_02_orig.jpg,11,,,,,,,,,0,11,11,11,,,,,,,,,,,,,,,-23.291015625,-10.95703125,1,0,0,0.667823076248,,,,,2015_Oct_11_1221,A,facesParametric,12,59.6604691983,
./stim/MorphM5_06_orig.jpg,12,,,,,,,,,0,12,12,12,,,,,,,,,,,,,,,-22.236328125,-10.4296875,1,0,0,2.24502515793,,,,,2015_Oct_11_1221,A,facesParametric,12,59.6604691983,
./stim/MorphF1_01_orig.jpg,13,,,,,,,,,0,13,13,13,,,,,,,,,,,,,,,-22.20703125,-10.48828125,0,0,1,2.09147691727,,,,,2015_Oct_11_1221,A,facesParametric,12,59.6604691983,
./stim/MorphF2_01_orig.jpg,14,,,,,,,,,0,14,14,14,,,,,,,,,,,,,,,-22.3828125,-10.78125,0,0,1,8.22816300392,,,,,2015_Oct_11_1221,A,facesParametric,12,59.6604691983,
./stim/MorphF8_06_orig.jpg,15,,,,,,,,,0,15,15,15,,,,,,,,,,,,,,,-22.6171875,-10.927734375,0,0,1,1.20425605774,,,,,2015_Oct_11_1221,A,facesParametric,12,59.6604691983,
./stim/MorphM6_10_orig.jpg,16,,,,,,,,,0,16,16,16,,,,,,,,,,,,,,,-22.67578125,-10.8984375,0,0,1,3.9210422039,,,,,2015_Oct_11_1221,A,facesParametric,12,59.6604691983,
./stim/MorphM7_07_orig.jpg,17,,,,,,,,,0,17,17,17,,,,,,,,,,,,,,,-21.03515625,-9.990234375,1,0,0,3.90342283249,,,,,2015_Oct_11_1221,A,facesParametric,12,59.6604691983,
./stim/MorphF5_01_orig.jpg,18,,,,,,,,,0,18,18,18,,,,,,,,,,,,,,,-21.09375,-10.107421875,0,0,1,1.13818287849,,,,,2015_Oct_11_1221,A,facesParametric,12,59.6604691983,
./stim/MorphM5_05_orig.jpg,19,,,,,,,,,0,19,19,19,,,,,,,,,,,,,,,-23.4375,-13.154296875,1,0,0,5.16076588631,,,,,2015_Oct_11_1221,A,facesParametric,12,59.6604691983,
./stim/MorphM9_04_orig.jpg,20,,,,,,,,,0,20,20,20,,,,,,,,,,,,,,,-23.4375,-13.06640625,0,0,1,7.35531806946,,,,,2015_Oct_11_1221,A,facesParametric,12,59.6604691983,
./stim/MorphF5_04_orig.jpg,21,,,,,,,,,0,21,21,21,,,,,,,,,,,,,,,-23.4375,-13.154296875,0,0,1,1.1053981781,,,,,2015_Oct_11_1221,A,facesParametric,12,59.6604691983,
./stim/MorphF7_08_orig.jpg,22,,,,,,,,,0,22,22,22,,,,,,,,,,,,,,,-23.4375,-13.154296875,1,0,0,1.44051384926,,,,,2015_Oct_11_1221,A,facesParametric,12,59.6604691983,
./stim/MorphM5_04_orig.jpg,23,,,,,,,,,0,23,23,23,,,,,,,,,,,,,,,-22.939453125,-12.7734375,1,0,0,2.37813591957,,,,,2015_Oct_11_1221,A,facesParametric,12,59.6604691983,
./stim/MorphM2_08_orig.jpg,24,,,,,,,,,0,24,24,24,,,,,,,,,,,,,,,-22.939453125,-12.7734375,1,0,0,4.47130584717,,,,,2015_Oct_11_1221,A,facesParametric,12,59.6604691983,
./stim/MorphF5_09_orig.jpg,25,,,,,,,,,0,25,25,25,,,,,,,,,,,,,,,-22.939453125,-12.7734375,1,0,0,0.987416982651,,,,,2015_Oct_11_1221,A,facesParametric,12,59.6604691983,
./stim/MorphF8_08_orig.jpg,26,,,,,,,,,0,26,26,26,,,,,,,,,,,,,,,-22.939453125,-12.7734375,1,0,0,0.684603214264,,,,,2015_Oct_11_1221,A,facesParametric,12,59.6604691983,
./stim/MorphM6_08_orig.jpg,27,,,,,,,,,0,27,27,27,,,,,,,,,,,,,,,-23.4375,-13.154296875,0,0,1,6.33336305618,,,,,2015_Oct_11_1221,A,facesParametric,12,59.6604691983,
./stim/MorphM8_01_orig.jpg,28,,,,,,,,,0,28,28,28,,,,,,,,,,,,,,,-23.4375,-13.095703125,0,0,1,1.10495114326,,,,,2015_Oct_11_1221,A,facesParametric,12,59.6604691983,
./stim/MorphF8_07_orig.jpg,29,,,,,,,,,0,29,29,29,,,,,,,,,,,,,,,-23.203125,-13.037109375,1,0,0,6.04729700089,,,,,2015_Oct_11_1221,A,facesParametric,12,59.6604691983,
./stim/MorphF9_01_orig.jpg,30,,,,,,,,,0,30,30,30,,,,,,,,,,,,,,,-23.4375,-12.744140625,0,0,1,9.51832103729,,,,,2015_Oct_11_1221,A,facesParametric,12,59.6604691983,
./stim/MorphM7_02_orig.jpg,31,,,,,,,,,0,31,31,31,,,,,,,,,,,,,,,-23.4375,-12.71484375,0,0,1,2.00992107391,,,,,2015_Oct_11_1221,A,facesParametric,12,59.6604691983,
./stim/MorphM5_10_orig.jpg,32,,,,,,,,,0,32,32,32,,,,,,,,,,,,,,,-23.349609375,-12.744140625,1,0,0,2.58001804352,,,,,2015_Oct_11_1221,A,facesParametric,12,59.6604691983,
./stim/MorphM10_09_orig.jpg,33,,,,,,,,,0,33,33,33,,,,,,,,,,,,,,,-23.408203125,-13.125,1,0,0,3.98736596107,,,,,2015_Oct_11_1221,A,facesParametric,12,59.6604691983,
./stim/MorphF2_06_orig.jpg,34,,,,,,,,,0,34,34,34,,,,,,,,,,,,,,,-22.91015625,-12.802734375,1,0,0,2.81429004669,,,,,2015_Oct_11_1221,A,facesParametric,12,59.6604691983,
./stim/MorphF3_10_orig.jpg,35,,,,,,,,,0,35,35,35,,,,,,,,,,,,,,,-22.880859375,-12.83203125,1,0,0,0.953699111938,,,,,2015_Oct_11_1221,A,facesParametric,12,59.6604691983,
./stim/MorphM7_04_orig.jpg,36,,,,,,,,,0,36,36,36,,,,,,,,,,,,,,,-23.0859375,-13.037109375,0,0,1,2.76413202286,,,,,2015_Oct_11_1221,A,facesParametric,12,59.6604691983,
./stim/MorphM9_10_orig.jpg,37,,,,,,,,,0,37,37,37,,,,,,,,,,,,,,,-23.173828125,-12.802734375,1,0,0,2.83089900017,,,,,2015_Oct_11_1221,A,facesParametric,12,59.6604691983,
./stim/MorphM8_09_orig.jpg,38,,,,,,,,,0,38,38,38,,,,,,,,,,,,,,,-22.705078125,-12.24609375,1,0,0,6.43366479874,,,,,2015_Oct_11_1221,A,facesParametric,12,59.6604691983,
./stim/MorphM10_07_orig.jpg,39,,,,,,,,,0,39,39,39,,,,,,,,,,,,,,,-20.68359375,-10.83984375,1,0,0,2.29512190819,,,,,2015_Oct_11_1221,A,facesParametric,12,59.6604691983,
./stim/MorphF3_09_orig.jpg,40,,,,,,,,,0,40,40,40,,,,,,,,,,,,,,,-19.482421875,-11.953125,1,0,0,3.48355793953,,,,,2015_Oct_11_1221,A,facesParametric,12,59.6604691983,
./stim/MorphF10_04_orig.jpg,41,,,,,,,,,0,41,41,41,,,,,,,,,,,,,,,-21.62109375,-13.154296875,0,0,1,26.3283729553,,,,,2015_Oct_11_1221,A,facesParametric,12,59.6604691983,
./stim/MorphF4_00_orig.jpg,42,,,,,,,,,0,42,42,42,,,,,,,,,,,,,,,-21.50390625,-13.037109375,0,0,1,1.12143707275,,,,,2015_Oct_11_1221,A,facesParametric,12,59.6604691983,
./stim/MorphM10_06_orig.jpg,43,,,,,,,,,0,43,43,43,,,,,,,,,,,,,,,-21.591796875,-13.06640625,1,0,0,0.98752617836,,,,,2015_Oct_11_1221,A,facesParametric,12,59.6604691983,
./stim/MorphF6_09_orig.jpg,44,,,,,,,,,0,44,44,44,,,,,,,,,,,,,,,-21.6796875,-13.154296875,1,0,0,4.1049311161,,,,,2015_Oct_11_1221,A,facesParametric,12,59.6604691983,
./stim/MorphM10_04_orig.jpg,45,,,,,,,,,0,45,45,45,,,,,,,,,,,,,,,-21.6796875,-13.154296875,0,0,1,1.10461902618,,,,,2015_Oct_11_1221,A,facesParametric,12,59.6604691983,
./stim/MorphF6_10_orig.jpg,46,,,,,,,,,0,46,46,46,,,,,,,,,,,,,,,-21.73828125,-13.154296875,1,0,0,1.10496997833,,,,,2015_Oct_11_1221,A,facesParametric,12,59.6604691983,
./stim/MorphF9_10_orig.jpg,47,,,,,,,,,0,47,47,47,,,,,,,,,,,,,,,-21.796875,-13.095703125,1,0,0,5.79747009277,,,,,2015_Oct_11_1221,A,facesParametric,12,59.6604691983,
./stim/MorphM5_08_orig.jpg,48,,,,,,,,,0,48,48,48,,,,,,,,,,,,,,,-21.796875,-13.125,1,0,0,1.11943221092,,,,,2015_Oct_11_1221,A,facesParametric,12,59.6604691983,
./stim/MorphM1_03_orig.jpg,49,,,,,,,,,0,49,49,49,,,,,,,,,,,,,,,-21.796875,-13.154296875,0,0,1,1.15546298027,,,,,2015_Oct_11_1221,A,facesParametric,12,59.6604691983,
./stim/MorphF9_09_orig.jpg,50,,,,,,,,,0,50,50,50,,,,,,,,,,,,,,,-22.96875,-13.125,1,0,0,8.16008591652,,,,,2015_Oct_11_1221,A,facesParametric,12,59.6604691983,
./stim/MorphF1_07_orig.jpg,51,,,,,,,,,0,51,51,51,,,,,,,,,,,,,,,-22.353515625,-12.7734375,1,0,0,3.41739916801,,,,,2015_Oct_11_1221,A,facesParametric,12,59.6604691983,
./stim/MorphM1_06_orig.jpg,52,,,,,,,,,0,52,52,52,,,,,,,,,,,,,,,-22.646484375,-12.802734375,0,0,1,1.79003190994,,,,,2015_Oct_11_1221,A,facesParametric,12,59.6604691983,
./stim/MorphM8_06_orig.jpg,53,,,,,,,,,0,53,53,53,,,,,,,,,,,,,,,-22.880859375,-12.71484375,0,0,1,1.35731196404,,,,,2015_Oct_11_1221,A,facesParametric,12,59.6604691983,
./stim/MorphM4_08_orig.jpg,54,,,,,,,,,0,54,54,54,,,,,,,,,,,,,,,-23.14453125,-12.685546875,1,0,0,4.85707712173,,,,,2015_Oct_11_1221,A,facesParametric,12,59.6604691983,
./stim/MorphM2_01_orig.jpg,55,,,,,,,,,0,55,55,55,,,,,,,,,,,,,,,-23.26171875,-12.919921875,0,0,1,1.03696203232,,,,,2015_Oct_11_1221,A,facesParametric,12,59.6604691983,
./stim/MorphF2_00_orig.jpg,56,,,,,,,,,0,56,56,56,,,,,,,,,,,,,,,-23.3203125,-12.919921875,0,0,1,3.04898881912,,,,,2015_Oct_11_1221,A,facesParametric,12,59.6604691983,
./stim/MorphM10_01_orig.jpg,57,,,,,,,,,0,57,57,57,,,,,,,,,,,,,,,-23.408203125,-12.94921875,0,0,1,3.38440012932,,,,,2015_Oct_11_1221,A,facesParametric,12,59.6604691983,
./stim/MorphF10_07_orig.jpg,58,,,,,,,,,0,58,58,58,,,,,,,,,,,,,,,-23.4375,-13.154296875,1,0,0,0.987435102463,,,,,2015_Oct_11_1221,A,facesParametric,12,59.6604691983,
./stim/MorphM1_02_orig.jpg,59,,,,,,,,,0,59,59,59,,,,,,,,,,,,,,,-23.056640625,-12.71484375,0,0,1,1.38939809799,,,,,2015_Oct_11_1221,A,facesParametric,12,59.6604691983,
./stim/MorphM4_03_orig.jpg,60,,,,,,,,,0,60,60,60,,,,,,,,,,,,,,,-23.3203125,-12.802734375,0,0,1,1.44041109085,,,,,2015_Oct_11_1221,A,facesParametric,12,59.6604691983,
./stim/MorphF7_04_orig.jpg,61,,,,,,,,,0,61,61,61,,,,,,,,,,,,,,,-23.3203125,-12.802734375,0,0,1,1.80705690384,,,,,2015_Oct_11_1221,A,facesParametric,12,59.6604691983,
./stim/MorphM7_09_orig.jpg,62,,,,,,,,,0,62,62,62,,,,,,,,,,,,,,,-23.4375,-13.037109375,1,0,0,1.47396183014,,,,,2015_Oct_11_1221,A,facesParametric,12,59.6604691983,
./stim/MorphF5_06_orig.jpg,63,,,,,,,,,0,63,63,63,,,,,,,,,,,,,,,-23.056640625,-12.59765625,1,0,0,2.76210689545,,,,,2015_Oct_11_1221,A,facesParametric,12,59.6604691983,
./stim/MorphF6_05_orig.jpg,64,,,,,,,,,0,64,64,64,,,,,,,,,,,,,,,-23.115234375,-12.59765625,0,0,1,1.87569093704,,,,,2015_Oct_11_1221,A,facesParametric,12,59.6604691983,
./stim/MorphF1_06_orig.jpg,65,,,,,,,,,0,65,65,65,,,,,,,,,,,,,,,-23.203125,-12.626953125,0,0,1,2.36211013794,,,,,2015_Oct_11_1221,A,facesParametric,12,59.6604691983,
./stim/MorphM1_00_orig.jpg,66,,,,,,,,,0,66,66,66,,,,,,,,,,,,,,,-23.173828125,-12.744140625,0,0,1,0.920510053635,,,,,2015_Oct_11_1221,A,facesParametric,12,59.6604691983,
./stim/MorphM3_02_orig.jpg,67,,,,,,,,,0,67,67,67,,,,,,,,,,,,,,,-23.203125,-12.7734375,0,0,1,2.69573712349,,,,,2015_Oct_11_1221,A,facesParametric,12,59.6604691983,
./stim/MorphM9_09_orig.jpg,68,,,,,,,,,0,68,68,68,,,,,,,,,,,,,,,-23.4375,-13.154296875,1,0,0,1.07138705254,,,,,2015_Oct_11_1221,A,facesParametric,12,59.6604691983,
./stim/MorphF1_02_orig.jpg,69,,,,,,,,,0,69,69,69,,,,,,,,,,,,,,,-21.650390625,-12.041015625,0,0,1,1.49051189423,,,,,2015_Oct_11_1221,A,facesParametric,12,59.6604691983,
./stim/MorphF6_04_orig.jpg,70,,,,,,,,,0,70,70,70,,,,,,,,,,,,,,,-23.408203125,-13.0078125,0,0,1,3.88703799248,,,,,2015_Oct_11_1221,A,facesParametric,12,59.6604691983,
./stim/MorphM9_07_orig.jpg,71,,,,,,,,,0,71,71,71,,,,,,,,,,,,,,,-23.4375,-13.154296875,1,0,0,1.79162812233,,,,,2015_Oct_11_1221,A,facesParametric,12,59.6604691983,
./stim/MorphF8_10_orig.jpg,72,,,,,,,,,0,72,72,72,,,,,,,,,,,,,,,-22.939453125,-12.65625,1,0,0,0.869104862213,,,,,2015_Oct_11_1221,A,facesParametric,12,59.6604691983,
./stim/MorphM6_00_orig.jpg,73,,,,,,,,,0,73,73,73,,,,,,,,,,,,,,,-22.03125,-11.455078125,0,0,1,1.80759596825,,,,,2015_Oct_11_1221,A,facesParametric,12,59.6604691983,
./stim/MorphF7_03_orig.jpg,74,,,,,,,,,0,74,74,74,,,,,,,,,,,,,,,-23.0859375,-11.865234375,0,0,1,1.47400808334,,,,,2015_Oct_11_1221,A,facesParametric,12,59.6604691983,
./stim/MorphM3_09_orig.jpg,75,,,,,,,,,0,75,75,75,,,,,,,,,,,,,,,-23.37890625,-13.037109375,1,0,0,1.23697805405,,,,,2015_Oct_11_1221,A,facesParametric,12,59.6604691983,
./stim/MorphF3_02_orig.jpg,76,,,,,,,,,0,76,76,76,,,,,,,,,,,,,,,-21.62109375,-10.95703125,0,0,1,1.32090091705,,,,,2015_Oct_11_1221,A,facesParametric,12,59.6604691983,
./stim/MorphF5_05_orig.jpg,77,,,,,,,,,0,77,77,77,,,,,,,,,,,,,,,-22.91015625,-11.865234375,1,0,0,6.93474912643,,,,,2015_Oct_11_1221,A,facesParametric,12,59.6604691983,
./stim/MorphM4_06_orig.jpg,78,,,,,,,,,0,78,78,78,,,,,,,,,,,,,,,-22.880859375,-13.154296875,1,0,0,2.11011600494,,,,,2015_Oct_11_1221,A,facesParametric,12,59.6604691983,
./stim/MorphF7_09_orig.jpg,79,,,,,,,,,0,79,79,79,,,,,,,,,,,,,,,-22.880859375,-13.154296875,1,0,0,0.786504983902,,,,,2015_Oct_11_1221,A,facesParametric,12,59.6604691983,
./stim/MorphF5_08_orig.jpg,80,,,,,,,,,0,80,80,80,,,,,,,,,,,,,,,-22.880859375,-13.154296875,1,0,0,1.08804392815,,,,,2015_Oct_11_1221,A,facesParametric,12,59.6604691983,
./stim/MorphM2_07_orig.jpg,81,,,,,,,,,0,81,81,81,,,,,,,,,,,,,,,-22.8515625,-13.06640625,1,0,0,2.88081812859,,,,,2015_Oct_11_1221,A,facesParametric,12,59.6604691983,
./stim/MorphF5_03_orig.jpg,82,,,,,,,,,0,82,82,82,,,,,,,,,,,,,,,-22.646484375,-12.71484375,0,0,1,1.0378010273,,,,,2015_Oct_11_1221,A,facesParametric,12,59.6604691983,
./stim/MorphF9_04_orig.jpg,83,,,,,,,,,0,83,83,83,,,,,,,,,,,,,,,-23.203125,-12.978515625,0,0,1,1.54104685783,,,,,2015_Oct_11_1221,A,facesParametric,12,59.6604691983,
./stim/MorphF10_08_orig.jpg,84,,,,,,,,,0,84,84,84,,,,,,,,,,,,,,,-23.4375,-13.037109375,1,0,0,1.01952314377,,,,,2015_Oct_11_1221,A,facesParametric,12,59.6604691983,
./stim/MorphF3_00_orig.jpg,85,,,,,,,,,0,85,85,85,,,,,,,,,,,,,,,-22.3828125,-11.6015625,0,0,1,1.40606999397,,,,,2015_Oct_11_1221,A,facesParametric,12,59.6604691983,
./stim/MorphF5_00_orig.jpg,86,,,,,,,,,0,86,86,86,,,,,,,,,,,,,,,-23.349609375,-12.12890625,0,0,1,1.90924882889,,,,,2015_Oct_11_1221,A,facesParametric,12,59.6604691983,
./stim/MorphF1_03_orig.jpg,87,,,,,,,,,0,87,87,87,,,,,,,,,,,,,,,-23.3203125,-11.953125,0,0,1,1.60645198822,,,,,2015_Oct_11_1221,A,facesParametric,12,59.6604691983,
./stim/MorphF10_10_orig.jpg,88,,,,,,,,,0,88,88,88,,,,,,,,,,,,,,,-23.4375,-12.158203125,1,0,0,0.970947027206,,,,,2015_Oct_11_1221,A,facesParametric,12,59.6604691983,
./stim/MorphF4_04_orig.jpg,89,,,,,,,,,0,89,89,89,,,,,,,,,,,,,,,-22.529296875,-11.455078125,0,0,1,5.51246595383,,,,,2015_Oct_11_1221,A,facesParametric,12,59.6604691983,
./stim/MorphF8_05_orig.jpg,90,,,,,,,,,0,90,90,90,,,,,,,,,,,,,,,-21.123046875,-11.220703125,0,0,1,1.8763730526,,,,,2015_Oct_11_1221,A,facesParametric,12,59.6604691983,
./stim/MorphM8_04_orig.jpg,91,,,,,,,,,0,91,91,91,,,,,,,,,,,,,,,-23.4375,-12.861328125,0,0,1,1.21994900703,,,,,2015_Oct_11_1221,A,facesParametric,12,59.6604691983,
./stim/MorphM1_04_orig.jpg,92,,,,,,,,,0,92,92,92,,,,,,,,,,,,,,,-23.3203125,-12.919921875,0,0,1,1.67329287529,,,,,2015_Oct_11_1221,A,facesParametric,12,59.6604691983,
./stim/MorphM8_05_orig.jpg,93,,,,,,,,,0,93,93,93,,,,,,,,,,,,,,,-23.349609375,-12.919921875,0,0,1,1.05384898186,,,,,2015_Oct_11_1221,A,facesParametric,12,59.6604691983,
./stim/MorphM5_01_orig.jpg,94,,,,,,,,,0,94,94,94,,,,,,,,,,,,,,,-23.408203125,-13.125,1,0,0,2.49584698677,,,,,2015_Oct_11_1221,A,facesParametric,12,59.6604691983,
./stim/MorphF9_07_orig.jpg,95,,,,,,,,,0,95,95,95,,,,,,,,,,,,,,,-23.349609375,-13.125,0,0,1,4.52332496643,,,,,2015_Oct_11_1221,A,facesParametric,12,59.6604691983,
./stim/MorphM4_00_orig.jpg,96,,,,,,,,,0,96,96,96,,,,,,,,,,,,,,,-23.4375,-13.154296875,0,0,1,0.954308986664,,,,,2015_Oct_11_1221,A,facesParametric,12,59.6604691983,
./stim/MorphF4_01_orig.jpg,97,,,,,,,,,0,97,97,97,,,,,,,,,,,,,,,-23.4375,-13.154296875,0,0,1,0.736763000488,,,,,2015_Oct_11_1221,A,facesParametric,12,59.6604691983,
./stim/MorphF9_08_orig.jpg,98,,,,,,,,,0,98,98,98,,,,,,,,,,,,,,,-23.4375,-13.06640625,1,0,0,2.1765370369,,,,,2015_Oct_11_1221,A,facesParametric,12,59.6604691983,
./stim/MorphM9_02_orig.jpg,99,,,,,,,,,0,99,99,99,,,,,,,,,,,,,,,-23.203125,-13.06640625,0,0,1,4.27241897583,,,,,2015_Oct_11_1221,A,facesParametric,12,59.6604691983,
./stim/MorphF1_09_orig.jpg,100,,,,,,,,,0,100,100,100,,,,,,,,,,,,,,,-23.4375,-13.154296875,1,0,0,1.23881411552,,,,,2015_Oct_11_1221,A,facesParametric,12,59.6604691983,
./stim/MorphF9_03_orig.jpg,101,,,,,,,,,0,101,101,101,,,,,,,,,,,,,,,-23.173828125,-12.94921875,0,0,1,1.2551419735,,,,,2015_Oct_11_1221,A,facesParametric,12,59.6604691983,
./stim/MorphF7_06_orig.jpg,102,,,,,,,,,0,102,102,102,,,,,,,,,,,,,,,-22.470703125,-13.154296875,0,0,1,5.6616268158,,,,,2015_Oct_11_1221,A,facesParametric,12,59.6604691983,
./stim/MorphF1_00_orig.jpg,103,,,,,,,,,0,103,103,103,,,,,,,,,,,,,,,-22.822265625,-13.154296875,0,0,1,0.970759868622,,,,,2015_Oct_11_1221,A,facesParametric,12,59.6604691983,
./stim/MorphF7_02_orig.jpg,104,,,,,,,,,0,104,104,104,,,,,,,,,,,,,,,-21.73828125,-13.095703125,0,0,1,0.903604030609,,,,,2015_Oct_11_1221,A,facesParametric,12,59.6604691983,
./stim/MorphM3_05_orig.jpg,105,,,,,,,,,0,105,105,105,,,,,,,,,,,,,,,-22.529296875,-13.154296875,1,0,0,8.76458096504,,,,,2015_Oct_11_1221,A,facesParametric,12,59.6604691983,
./stim/MorphM5_09_orig.jpg,106,,,,,,,,,0,106,106,106,,,,,,,,,,,,,,,-22.529296875,-13.154296875,1,0,0,0.819166898727,,,,,2015_Oct_11_1221,A,facesParametric,12,59.6604691983,
./stim/MorphM10_00_orig.jpg,107,,,,,,,,,0,107,107,107,,,,,,,,,,,,,,,-22.529296875,-13.154296875,1,0,0,0.769332885742,,,,,2015_Oct_11_1221,A,facesParametric,12,59.6604691983,
./stim/MorphM4_10_orig.jpg,108,,,,,,,,,0,108,108,108,,,,,,,,,,,,,,,-22.5,-13.154296875,1,0,0,1.27240800858,,,,,2015_Oct_11_1221,A,facesParametric,12,59.6604691983,
./stim/MorphM7_05_orig.jpg,109,,,,,,,,,0,109,109,109,,,,,,,,,,,,,,,-22.470703125,-13.154296875,1,0,0,2.94792509079,,,,,2015_Oct_11_1221,A,facesParametric,12,59.6604691983,
./stim/MorphM9_01_orig.jpg,110,,,,,,,,,0,110,110,110,,,,,,,,,,,,,,,-23.4375,-13.154296875,0,0,1,1.507584095,,,,,2015_Oct_11_1221,A,facesParametric,12,59.6604691983,
./stim/MorphF4_06_orig.jpg,111,,,,,,,,,0,111,111,111,,,,,,,,,,,,,,,-23.115234375,-13.037109375,0,0,1,2.56157612801,,,,,2015_Oct_11_1221,A,facesParametric,12,59.6604691983,
./stim/MorphF6_02_orig.jpg,112,,,,,,,,,0,112,112,112,,,,,,,,,,,,,,,-23.4375,-13.154296875,0,0,1,1.47194504738,,,,,2015_Oct_11_1221,A,facesParametric,12,59.6604691983,
./stim/MorphF8_02_orig.jpg,113,,,,,,,,,0,113,113,113,,,,,,,,,,,,,,,-23.4375,-13.154296875,0,0,1,1.30630302429,,,,,2015_Oct_11_1221,A,facesParametric,12,59.6604691983,
./stim/MorphM8_00_orig.jpg,114,,,,,,,,,0,114,114,114,,,,,,,,,,,,,,,-23.4375,-13.154296875,0,0,1,3.18277597427,,,,,2015_Oct_11_1221,A,facesParametric,12,59.6604691983,
./stim/MorphM3_03_orig.jpg,115,,,,,,,,,0,115,115,115,,,,,,,,,,,,,,,-23.4375,-13.154296875,0,0,1,1.50746011734,,,,,2015_Oct_11_1221,A,facesParametric,12,59.6604691983,
./stim/MorphF10_03_orig.jpg,116,,,,,,,,,0,116,116,116,,,,,,,,,,,,,,,-23.37890625,-10.283203125,0,0,1,3.78759503365,,,,,2015_Oct_11_1221,A,facesParametric,12,59.6604691983,
./stim/MorphF7_00_orig.jpg,117,,,,,,,,,0,117,117,117,,,,,,,,,,,,,,,-23.37890625,-10.224609375,0,0,1,0.768136024475,,,,,2015_Oct_11_1221,A,facesParametric,12,59.6604691983,
./stim/MorphF9_06_orig.jpg,118,,,,,,,,,0,118,118,118,,,,,,,,,,,,,,,-23.37890625,-10.224609375,0,0,1,1.40666413307,,,,,2015_Oct_11_1221,A,facesParametric,12,59.6604691983,
./stim/MorphM2_05_orig.jpg,119,,,,,,,,,0,119,119,119,,,,,,,,,,,,,,,-23.408203125,-10.25390625,0,0,1,1.99298000336,,,,,2015_Oct_11_1221,A,facesParametric,12,59.6604691983,
./stim/MorphM6_03_orig.jpg,120,,,,,,,,,0,120,120,120,,,,,,,,,,,,,,,-22.5,-9.78515625,0,0,1,2.86448097229,,,,,2015_Oct_11_1221,A,facesParametric,12,59.6604691983,
./stim/MorphM3_07_orig.jpg,121,,,,,,,,,0,121,121,121,,,,,,,,,,,,,,,-23.4375,-10.6640625,1,0,0,1.75879502296,,,,,2015_Oct_11_1221,A,facesParametric,12,59.6604691983,
./stim/MorphF4_09_orig.jpg,122,,,,,,,,,0,122,122,122,,,,,,,,,,,,,,,-22.177734375,-7.5,1,0,0,2.54598402977,,,,,2015_Oct_11_1221,A,facesParametric,12,59.6604691983,
./stim/MorphF3_01_orig.jpg,123,,,,,,,,,0,123,123,123,,,,,,,,,,,,,,,-22.32421875,-7.646484375,0,0,1,1.17020797729,,,,,2015_Oct_11_1221,A,facesParametric,12,59.6604691983,
./stim/MorphF2_08_orig.jpg,124,,,,,,,,,0,124,124,124,,,,,,,,,,,,,,,-22.880859375,-7.998046875,1,0,0,0.870215892792,,,,,2015_Oct_11_1221,A,facesParametric,12,59.6604691983,
./stim/MorphM5_03_orig.jpg,125,,,,,,,,,0,125,125,125,,,,,,,,,,,,,,,-22.8515625,-8.583984375,1,0,0,1.03802895546,,,,,2015_Oct_11_1221,A,facesParametric,12,59.6604691983,
./stim/MorphM1_09_orig.jpg,126,,,,,,,,,0,126,126,126,,,,,,,,,,,,,,,-22.734375,-8.525390625,1,0,0,3.96828794479,,,,,2015_Oct_11_1221,A,facesParametric,12,59.6604691983,
./stim/MorphF1_10_orig.jpg,127,,,,,,,,,0,127,127,127,,,,,,,,,,,,,,,-22.734375,-8.525390625,1,0,0,0.986065864563,,,,,2015_Oct_11_1221,A,facesParametric,12,59.6604691983,
./stim/MorphM6_06_orig.jpg,128,,,,,,,,,0,128,128,128,,,,,,,,,,,,,,,-23.26171875,-8.935546875,0,0,1,2.9651761055,,,,,2015_Oct_11_1221,A,facesParametric,12,59.6604691983,
./stim/MorphF1_04_orig.jpg,129,,,,,,,,,0,129,129,129,,,,,,,,,,,,,,,-23.349609375,-10.048828125,1,0,0,7.12075400352,,,,,2015_Oct_11_1221,A,facesParametric,12,59.6604691983,
./stim/MorphF6_08_orig.jpg,130,,,,,,,,,0,130,130,130,,,,,,,,,,,,,,,-23.349609375,-10.048828125,1,0,0,1.80917596817,,,,,2015_Oct_11_1221,A,facesParametric,12,59.6604691983,
./stim/MorphM6_02_orig.jpg,131,,,,,,,,,0,131,131,131,,,,,,,,,,,,,,,-23.408203125,-9.404296875,0,0,1,1.1048169136,,,,,2015_Oct_11_1221,A,facesParametric,12,59.6604691983,
./stim/MorphF7_01_orig.jpg,132,,,,,,,,,0,132,132,132,,,,,,,,,,,,,,,-23.4375,-9.55078125,0,0,1,1.00418806076,,,,,2015_Oct_11_1221,A,facesParametric,12,59.6604691983,
./stim/MorphM8_03_orig.jpg,133,,,,,,,,,0,133,133,133,,,,,,,,,,,,,,,-23.37890625,-9.90234375,0,0,1,1.00208687782,,,,,2015_Oct_11_1221,A,facesParametric,12,59.6604691983,
./stim/MorphF6_06_orig.jpg,134,,,,,,,,,0,134,134,134,,,,,,,,,,,,,,,-23.4375,-10.078125,0,0,1,1.92637109756,,,,,2015_Oct_11_1221,A,facesParametric,12,59.6604691983,
./stim/MorphF8_00_orig.jpg,135,,,,,,,,,0,135,135,135,,,,,,,,,,,,,,,-23.4375,-10.078125,0,0,1,1.39001584053,,,,,2015_Oct_11_1221,A,facesParametric,12,59.6604691983,
./stim/MorphF4_02_orig.jpg,136,,,,,,,,,0,136,136,136,,,,,,,,,,,,,,,-23.4375,-10.078125,0,0,1,0.985504150391,,,,,2015_Oct_11_1221,A,facesParametric,12,59.6604691983,
./stim/MorphM10_05_orig.jpg,137,,,,,,,,,0,137,137,137,,,,,,,,,,,,,,,-23.4375,-10.078125,1,0,0,0.903759002686,,,,,2015_Oct_11_1221,A,facesParametric,12,59.6604691983,
./stim/MorphF4_07_orig.jpg,138,,,,,,,,,0,138,138,138,,,,,,,,,,,,,,,-23.203125,-9.755859375,1,0,0,3.45165920258,,,,,2015_Oct_11_1221,A,facesParametric,12,59.6604691983,
./stim/MorphM7_10_orig.jpg,139,,,,,,,,,0,139,139,139,,,,,,,,,,,,,,,-22.8515625,-9.609375,1,0,0,1.17124891281,,,,,2015_Oct_11_1221,A,facesParametric,12,59.6604691983,
./stim/MorphF3_05_orig.jpg,140,,,,,,,,,0,140,140,140,,,,,,,,,,,,,,,-22.79296875,-9.55078125,0,0,1,4.97641301155,,,,,2015_Oct_11_1221,A,facesParametric,12,59.6604691983,
./stim/MorphF6_01_orig.jpg,141,,,,,,,,,0,141,141,141,,,,,,,,,,,,,,,-23.232421875,-11.07421875,0,0,1,1.74204397202,,,,,2015_Oct_11_1221,A,facesParametric,12,59.6604691983,
./stim/MorphM2_04_orig.jpg,142,,,,,,,,,0,142,142,142,,,,,,,,,,,,,,,-23.4375,-11.6015625,0,0,1,1.4377720356,,,,,2015_Oct_11_1221,A,facesParametric,12,59.6604691983,
./stim/MorphM1_05_orig.jpg,143,,,,,,,,,0,143,143,143,,,,,,,,,,,,,,,-23.408203125,-11.689453125,0,0,1,3.71958804131,,,,,2015_Oct_11_1221,A,facesParametric,12,59.6604691983,
./stim/MorphF9_02_orig.jpg,144,,,,,,,,,0,144,144,144,,,,,,,,,,,,,,,-23.4375,-11.8359375,0,0,1,1.02091598511,,,,,2015_Oct_11_1221,A,facesParametric,12,59.6604691983,
./stim/MorphM3_06_orig.jpg,145,,,,,,,,,0,145,145,145,,,,,,,,,,,,,,,-23.4375,-12.568359375,1,0,0,1.30609202385,,,,,2015_Oct_11_1221,A,facesParametric,12,59.6604691983,
./stim/MorphF3_03_orig.jpg,146,,,,,,,,,0,146,146,146,,,,,,,,,,,,,,,-23.349609375,-12.5390625,0,0,1,1.67328214645,,,,,2015_Oct_11_1221,A,facesParametric,12,59.6604691983,
./stim/MorphM6_04_orig.jpg,147,,,,,,,,,0,147,147,147,,,,,,,,,,,,,,,-23.4375,-12.978515625,0,0,1,1.20341897011,,,,,2015_Oct_11_1221,A,facesParametric,12,59.6604691983,
./stim/MorphM7_08_orig.jpg,148,,,,,,,,,0,148,148,148,,,,,,,,,,,,,,,-23.26171875,-13.125,1,0,0,2.19490385056,,,,,2015_Oct_11_1221,A,facesParametric,12,59.6604691983,
./stim/MorphM3_08_orig.jpg,149,,,,,,,,,0,149,149,149,,,,,,,,,,,,,,,-22.939453125,-13.154296875,1,0,0,0.936460018158,,,,,2015_Oct_11_1221,A,facesParametric,12,59.6604691983,
./stim/MorphM8_07_orig.jpg,150,,,,,,,,,0,150,150,150,,,,,,,,,,,,,,,-22.3828125,-13.0078125,1,0,0,8.71374201775,,,,,2015_Oct_11_1221,A,facesParametric,12,59.6604691983,
./stim/MorphM1_07_orig.jpg,151,,,,,,,,,0,151,151,151,,,,,,,,,,,,,,,-22.3828125,-13.0078125,1,0,0,3.75230002403,,,,,2015_Oct_11_1221,A,facesParametric,12,59.6604691983,
./stim/MorphF4_03_orig.jpg,152,,,,,,,,,0,152,152,152,,,,,,,,,,,,,,,-22.294921875,-13.037109375,0,0,1,2.3448331356,,,,,2015_Oct_11_1221,A,facesParametric,12,59.6604691983,
./stim/MorphM5_07_orig.jpg,153,,,,,,,,,0,153,153,153,,,,,,,,,,,,,,,-22.6171875,-13.095703125,1,0,0,1.0865790844,,,,,2015_Oct_11_1221,A,facesParametric,12,59.6604691983,
./stim/MorphM9_06_orig.jpg,154,,,,,,,,,0,154,154,154,,,,,,,,,,,,,,,-22.470703125,-13.095703125,1,0,0,5.27780604362,,,,,2015_Oct_11_1221,A,facesParametric,12,59.6604691983,
./stim/MorphF8_09_orig.jpg,155,,,,,,,,,0,155,155,155,,,,,,,,,,,,,,,-22.470703125,-13.095703125,1,0,0,0.736294984818,,,,,2015_Oct_11_1221,A,facesParametric,12,59.6604691983,
./stim/MorphM6_01_orig.jpg,156,,,,,,,,,0,156,156,156,,,,,,,,,,,,,,,-22.55859375,-13.095703125,0,0,1,1.10490202904,,,,,2015_Oct_11_1221,A,facesParametric,12,59.6604691983,
./stim/MorphM7_06_orig.jpg,157,,,,,,,,,0,157,157,157,,,,,,,,,,,,,,,-22.6171875,-13.125,1,0,0,0.851211071014,,,,,2015_Oct_11_1221,A,facesParametric,12,59.6604691983,
./stim/MorphM10_08_orig.jpg,158,,,,,,,,,0,158,158,158,,,,,,,,,,,,,,,-22.6171875,-13.095703125,1,0,0,1.85935902596,,,,,2015_Oct_11_1221,A,facesParametric,12,59.6604691983,
./stim/MorphF10_02_orig.jpg,159,,,,,,,,,0,159,159,159,,,,,,,,,,,,,,,-22.6171875,-13.095703125,1,0,0,1.07026195526,,,,,2015_Oct_11_1221,A,facesParametric,12,59.6604691983,
./stim/MorphM9_08_orig.jpg,160,,,,,,,,,0,160,160,160,,,,,,,,,,,,,,,-22.6171875,-13.095703125,1,0,0,0.852114200592,,,,,2015_Oct_11_1221,A,facesParametric,12,59.6604691983,
./stim/MorphM4_09_orig.jpg,161,,,,,,,,,0,161,161,161,,,,,,,,,,,,,,,-22.55859375,-13.095703125,1,0,0,3.95386385918,,,,,2015_Oct_11_1221,A,facesParametric,12,59.6604691983,
./stim/MorphM2_03_orig.jpg,162,,,,,,,,,0,162,162,162,,,,,,,,,,,,,,,-22.55859375,-13.095703125,0,0,1,1.28940081596,,,,,2015_Oct_11_1221,A,facesParametric,12,59.6604691983,
./stim/MorphM1_08_orig.jpg,163,,,,,,,,,0,163,163,163,,,,,,,,,,,,,,,-22.880859375,-13.154296875,1,0,0,1.1883058548,,,,,2015_Oct_11_1221,A,facesParametric,12,59.6604691983,
./stim/MorphF10_01_orig.jpg,164,,,,,,,,,0,164,164,164,,,,,,,,,,,,,,,-22.8515625,-13.125,0,0,1,1.15492892265,,,,,2015_Oct_11_1221,A,facesParametric,12,59.6604691983,
./stim/MorphM6_07_orig.jpg,165,,,,,,,,,0,165,165,165,,,,,,,,,,,,,,,-22.470703125,-13.154296875,0,0,1,1.59152507782,,,,,2015_Oct_11_1221,A,facesParametric,12,59.6604691983,
./stim/MorphM3_00_orig.jpg,166,,,,,,,,,0,166,166,166,,,,,,,,,,,,,,,-22.529296875,-12.94921875,0,0,1,10.0693891048,,,,,2015_Oct_11_1221,A,facesParametric,12,59.6604691983,
./stim/MorphF8_01_orig.jpg,167,,,,,,,,,0,167,167,167,,,,,,,,,,,,,,,-22.55859375,-13.037109375,0,0,1,0.903444051743,,,,,2015_Oct_11_1221,A,facesParametric,12,59.6604691983,
./stim/MorphF2_07_orig.jpg,168,,,,,,,,,0,168,168,168,,,,,,,,,,,,,,,-22.587890625,-13.06640625,1,0,0,2.00971508026,,,,,2015_Oct_11_1221,A,facesParametric,12,59.6604691983,
./stim/MorphM9_05_orig.jpg,169,,,,,,,,,0,169,169,169,,,,,,,,,,,,,,,-22.587890625,-13.06640625,0,0,1,1.40538811684,,,,,2015_Oct_11_1221,A,facesParametric,12,59.6604691983,
./stim/MorphF5_07_orig.jpg,170,,,,,,,,,0,170,170,170,,,,,,,,,,,,,,,-22.587890625,-13.06640625,1,0,0,1.42356204987,,,,,2015_Oct_11_1221,A,facesParametric,12,59.6604691983,
./stim/MorphM2_06_orig.jpg,171,,,,,,,,,0,171,171,171,,,,,,,,,,,,,,,-22.587890625,-13.06640625,1,0,0,1.73964190483,,,,,2015_Oct_11_1221,A,facesParametric,12,59.6604691983,
./stim/MorphM7_01_orig.jpg,172,,,,,,,,,0,172,172,172,,,,,,,,,,,,,,,-22.32421875,-12.919921875,0,0,1,1.47262215614,,,,,2015_Oct_11_1221,A,facesParametric,12,59.6604691983,
./stim/MorphF2_09_orig.jpg,173,,,,,,,,,0,173,173,173,,,,,,,,,,,,,,,-23.4375,-12.94921875,1,0,0,1.33945989609,,,,,2015_Oct_11_1221,A,facesParametric,12,59.6604691983,
./stim/MorphF6_07_orig.jpg,174,,,,,,,,,0,174,174,174,,,,,,,,,,,,,,,-22.91015625,-12.685546875,0,0,1,6.09895920753,,,,,2015_Oct_11_1221,A,facesParametric,12,59.6604691983,
./stim/MorphM3_01_orig.jpg,175,,,,,,,,,0,175,175,175,,,,,,,,,,,,,,,-22.91015625,-12.685546875,0,0,1,1.48974895477,,,,,2015_Oct_11_1221,A,facesParametric,12,59.6604691983,
./stim/MorphF4_10_orig.jpg,176,,,,,,,,,0,176,176,176,,,,,,,,,,,,,,,-23.4375,-12.83203125,1,0,0,1.32253503799,,,,,2015_Oct_11_1221,A,facesParametric,12,59.6604691983,
./stim/MorphM2_10_orig.jpg,177,,,,,,,,,0,177,177,177,,,,,,,,,,,,,,,-23.408203125,-12.802734375,1,0,0,0.818891048431,,,,,2015_Oct_11_1221,A,facesParametric,12,59.6604691983,
./stim/MorphM6_09_orig.jpg,178,,,,,,,,,0,178,178,178,,,,,,,,,,,,,,,-23.291015625,-12.83203125,1,0,0,2.10882091522,,,,,2015_Oct_11_1221,A,facesParametric,12,59.6604691983,
./stim/MorphF3_06_orig.jpg,179,,,,,,,,,0,179,179,179,,,,,,,,,,,,,,,-23.4375,-13.154296875,0,0,1,1.62235188484,,,,,2015_Oct_11_1221,A,facesParametric,12,59.6604691983,
./stim/MorphM4_02_orig.jpg,180,,,,,,,,,0,180,180,180,,,,,,,,,,,,,,,-23.203125,-13.095703125,0,0,1,1.32232189178,,,,,2015_Oct_11_1221,A,facesParametric,12,59.6604691983,
./stim/MorphM7_00_orig.jpg,181,,,,,,,,,0,181,181,181,,,,,,,,,,,,,,,-23.203125,-13.095703125,0,0,1,1.85891413689,,,,,2015_Oct_11_1221,A,facesParametric,12,59.6604691983,
./stim/MorphM2_09_orig.jpg,182,,,,,,,,,0,182,182,182,,,,,,,,,,,,,,,-23.408203125,-13.154296875,1,0,0,1.80874109268,,,,,2015_Oct_11_1221,A,facesParametric,12,59.6604691983,
./stim/MorphF4_08_orig.jpg,183,,,,,,,,,0,183,183,183,,,,,,,,,,,,,,,-23.4375,-13.154296875,1,0,0,2.61181211472,,,,,2015_Oct_11_1221,A,facesParametric,12,59.6604691983,
./stim/MorphM2_02_orig.jpg,184,,,,,,,,,0,184,184,184,,,,,,,,,,,,,,,-23.4375,-13.154296875,0,0,1,1.15553116798,,,,,2015_Oct_11_1221,A,facesParametric,12,59.6604691983,
./stim/MorphF4_05_orig.jpg,185,,,,,,,,,0,185,185,185,,,,,,,,,,,,,,,-23.37890625,-12.65625,1,0,0,2.27707099915,,,,,2015_Oct_11_1221,A,facesParametric,12,59.6604691983,
./stim/MorphM4_01_orig.jpg,186,,,,,,,,,0,186,186,186,,,,,,,,,,,,,,,-23.349609375,-13.0078125,0,0,1,1.00442814827,,,,,2015_Oct_11_1221,A,facesParametric,12,59.6604691983,
./stim/MorphM8_10_orig.jpg,187,,,,,,,,,0,187,187,187,,,,,,,,,,,,,,,-22.79296875,-12.978515625,1,0,0,1.52171301842,,,,,2015_Oct_11_1221,A,facesParametric,12,59.6604691983,
./stim/MorphM4_04_orig.jpg,188,,,,,,,,,0,188,188,188,,,,,,,,,,,,,,,-22.265625,-12.626953125,0,0,1,3.63588094711,,,,,2015_Oct_11_1221,A,facesParametric,12,59.6604691983,
./stim/MorphF2_04_orig.jpg,189,,,,,,,,,0,189,189,189,,,,,,,,,,,,,,,-23.115234375,-13.154296875,1,0,0,3.03200292587,,,,,2015_Oct_11_1221,A,facesParametric,12,59.6604691983,
./stim/MorphF8_03_orig.jpg,190,,,,,,,,,0,190,190,190,,,,,,,,,,,,,,,-22.939453125,-13.095703125,0,0,1,1.25530982018,,,,,2015_Oct_11_1221,A,facesParametric,12,59.6604691983,
./stim/MorphM5_00_orig.jpg,191,,,,,,,,,0,191,191,191,,,,,,,,,,,,,,,-22.880859375,-13.095703125,0,0,1,5.31107211113,,,,,2015_Oct_11_1221,A,facesParametric,12,59.6604691983,
./stim/MorphM4_05_orig.jpg,192,,,,,,,,,0,192,192,192,,,,,,,,,,,,,,,-22.470703125,-12.65625,0,0,1,2.9990298748,,,,,2015_Oct_11_1221,A,facesParametric,12,59.6604691983,
./stim/MorphM1_01_orig.jpg,193,,,,,,,,,0,193,193,193,,,,,,,,,,,,,,,-22.529296875,-12.65625,0,0,1,0.819880962372,,,,,2015_Oct_11_1221,A,facesParametric,12,59.6604691983,
./stim/MorphF7_07_orig.jpg,194,,,,,,,,,0,194,194,194,,,,,,,,,,,,,,,-23.203125,-13.095703125,1,0,0,5.05996894836,,,,,2015_Oct_11_1221,A,facesParametric,12,59.6604691983,
./stim/MorphM10_10_orig.jpg,195,,,,,,,,,0,195,195,195,,,,,,,,,,,,,,,-21.85546875,-13.154296875,1,0,0,0.818128824234,,,,,2015_Oct_11_1221,A,facesParametric,12,59.6604691983,
./stim/MorphM9_00_orig.jpg,196,,,,,,,,,0,196,196,196,,,,,,,,,,,,,,,-21.826171875,-13.154296875,0,0,1,1.08764791489,,,,,2015_Oct_11_1221,A,facesParametric,12,59.6604691983,
./stim/MorphM8_02_orig.jpg,197,,,,,,,,,0,197,197,197,,,,,,,,,,,,,,,-20.888671875,-12.041015625,0,0,1,2.96624588966,,,,,2015_Oct_11_1221,A,facesParametric,12,59.6604691983,
./stim/MorphF9_05_orig.jpg,198,,,,,,,,,0,198,198,198,,,,,,,,,,,,,,,-20.91796875,-12.041015625,0,0,1,1.87510299683,,,,,2015_Oct_11_1221,A,facesParametric,12,59.6604691983,
./stim/MorphM7_03_orig.jpg,199,,,,,,,,,0,199,199,199,,,,,,,,,,,,,,,-20.9765625,-12.12890625,0,0,1,2.9987719059,,,,,2015_Oct_11_1221,A,facesParametric,12,59.6604691983,
./stim/MorphF8_04_orig.jpg,200,,,,,,,,,0,200,200,200,,,,,,,,,,,,,,,-21.328125,-12.24609375,0,0,1,0.904062986374,,,,,2015_Oct_11_1221,A,facesParametric,12,59.6604691983,
./stim/MorphF2_03_orig.jpg,201,,,,,,,,,0,201,201,201,,,,,,,,,,,,,,,-21.357421875,-12.275390625,0,0,1,5.2437479496,,,,,2015_Oct_11_1221,A,facesParametric,12,59.6604691983,
./stim/MorphF9_00_orig.jpg,202,,,,,,,,,0,202,202,202,,,,,,,,,,,,,,,-21.591796875,-12.568359375,0,0,1,1.08809399605,,,,,2015_Oct_11_1221,A,facesParametric,12,59.6604691983,
./stim/MorphF10_00_orig.jpg,203,,,,,,,,,0,203,203,203,,,,,,,,,,,,,,,-21.591796875,-12.568359375,0,0,1,1.15532803535,,,,,2015_Oct_11_1221,A,facesParametric,12,59.6604691983,
./stim/MorphM3_04_orig.jpg,204,,,,,,,,,0,204,204,204,,,,,,,,,,,,,,,-22.763671875,-12.3046875,1,0,0,3.97032690048,,,,,2015_Oct_11_1221,A,facesParametric,12,59.6604691983,
./stim/MorphM9_03_orig.jpg,205,,,,,,,,,0,205,205,205,,,,,,,,,,,,,,,-22.734375,-12.3046875,0,0,1,1.47387099266,,,,,2015_Oct_11_1221,A,facesParametric,12,59.6604691983,
./stim/MorphF6_03_orig.jpg,206,,,,,,,,,0,206,206,206,,,,,,,,,,,,,,,-22.646484375,-11.923828125,0,0,1,1.10452604294,,,,,2015_Oct_11_1221,A,facesParametric,12,59.6604691983,
./stim/MorphM10_03_orig.jpg,207,,,,,,,,,0,207,207,207,,,,,,,,,,,,,,,-22.67578125,-11.89453125,0,0,1,0.936454057693,,,,,2015_Oct_11_1221,A,facesParametric,12,59.6604691983,
./stim/MorphF2_05_orig.jpg,208,,,,,,,,,0,208,208,208,,,,,,,,,,,,,,,-22.67578125,-11.89453125,1,0,0,2.34516000748,,,,,2015_Oct_11_1221,A,facesParametric,12,59.6604691983,
./stim/MorphM2_00_orig.jpg,209,,,,,,,,,0,209,209,209,,,,,,,,,,,,,,,-22.880859375,-12.041015625,0,0,1,1.07148694992,,,,,2015_Oct_11_1221,A,facesParametric,12,59.6604691983,
./stim/MorphF7_05_orig.jpg,210,,,,,,,,,0,210,210,210,,,,,,,,,,,,,,,-22.939453125,-12.216796875,0,0,1,7.0389509201,,,,,2015_Oct_11_1221,A,facesParametric,12,59.6604691983,
./stim/MorphM6_05_orig.jpg,211,,,,,,,,,0,211,211,211,,,,,,,,,,,,,,,-23.02734375,-12.275390625,0,0,1,1.4220468998,,,,,2015_Oct_11_1221,A,facesParametric,12,59.6604691983,
./stim/MorphF5_02_orig.jpg,212,,,,,,,,,0,212,212,212,,,,,,,,,,,,,,,-23.02734375,-12.275390625,0,0,1,1.18930196762,,,,,2015_Oct_11_1221,A,facesParametric,12,59.6604691983,
./stim/MorphF3_07_orig.jpg,213,,,,,,,,,0,213,213,213,,,,,,,,,,,,,,,-23.14453125,-12.333984375,1,0,0,2.41217780113,,,,,2015_Oct_11_1221,A,facesParametric,12,59.6604691983,
./stim/MorphF5_10_orig.jpg,214,,,,,,,,,0,214,214,214,,,,,,,,,,,,,,,-22.763671875,-12.333984375,1,0,0,0.93497800827,,,,,2015_Oct_11_1221,A,facesParametric,12,59.6604691983,
./stim/MorphF3_04_orig.jpg,215,,,,,,,,,0,215,215,215,,,,,,,,,,,,,,,-22.470703125,-12.158203125,1,0,0,4.33928608894,,,,,2015_Oct_11_1221,A,facesParametric,12,59.6604691983,
./stim/MorphF10_09_orig.jpg,216,,,,,,,,,0,216,216,216,,,,,,,,,,,,,,,-22.44140625,-12.158203125,1,0,0,0.819791078568,,,,,2015_Oct_11_1221,A,facesParametric,12,59.6604691983,
./stim/MorphF6_00_orig.jpg,217,,,,,,,,,0,217,217,217,,,,,,,,,,,,,,,-22.119140625,-11.71875,0,0,1,1.48925209045,,,,,2015_Oct_11_1221,A,facesParametric,12,59.6604691983,
./stim/MorphF1_05_orig.jpg,218,,,,,,,,,0,218,218,218,,,,,,,,,,,,,,,-22.763671875,-12.24609375,0,0,1,2.84589290619,,,,,2015_Oct_11_1221,A,facesParametric,12,59.6604691983,
./stim/MorphM3_10_orig.jpg,219,,,,,,,,,0,219,219,219,,,,,,,,,,,,,,,-22.880859375,-12.333984375,1,0,0,1.4746658802,,,,,2015_Oct_11_1221,A,facesParametric,12,59.6604691983,
,,,,,,,,,,,,,,,,,,,,,,,,,,,,,,,,,,,,return,44.2235269547,2015_Oct_11_1221,A,facesParametric,12,59.6604691983,
