img,num,basicLoop.thisRepN,basicLoop.thisTrialN,basicLoop.thisN,basicLoop.thisIndex,trials.thisRepN,trials.thisTrialN,trials.thisN,trials.thisIndex,trials2.thisRepN,trials2.thisTrialN,trials2.thisN,trials2.thisIndex,key_resp_2.keys,key_resp_2.rt,basicRating1.response,basicRating1.rt,basicRating2.response,basicRating2.rt,basicRating3.response,basicRating3.rt,basicRating4.response,basicRating4.rt,key_resp_3.keys,key_resp_3.rt,key_resp_4.keys,key_resp_4.rt,mouseResp.x,mouseResp.y,mouseResp.leftButton,mouseResp.midButton,mouseResp.rightButton,mouseResp.time,key_resp_5.keys,key_resp_5.rt,date,group,expName,participant,frameRate,
,,,,,,,,,,,,,,return,25.1893439293,,,,,,,,,,,,,,,,,,,,,2015_Oct_11_1620,A,facesParametric,13,59.4989906899,
./basicStim/02F_DI_O.jpg,,0,0,0,8,,,,,,,,,,,None,None,None,None,DIS,3.785,None,None,,,,,,,,,,,,,2015_Oct_11_1620,A,facesParametric,13,59.4989906899,
./basicStim/28M_FE_O.jpg,,0,1,1,65,,,,,,,,,,,None,None,FEA,2.634,None,None,None,None,,,,,,,,,,,,,2015_Oct_11_1620,A,facesParametric,13,59.4989906899,
./basicStim/24M_AN_O.jpg,,0,2,2,56,,,,,,,,,,,None,None,ANG,2.25,None,None,None,None,,,,,,,,,,,,,2015_Oct_11_1620,A,facesParametric,13,59.4989906899,
./basicStim/07F_SP_O.jpg,,0,3,3,33,,,,,,,,,,,None,None,None,None,SUP,1.73,None,None,,,,,,,,,,,,,2015_Oct_11_1620,A,facesParametric,13,59.4989906899,
./basicStim/28M_SA_C.jpg,,0,4,4,67,,,,,,,,,,,None,None,FEA,4.259,None,None,None,None,,,,,,,,,,,,,2015_Oct_11_1620,A,facesParametric,13,59.4989906899,
./basicStim/34M_FE_O.jpg,,0,5,5,72,,,,,,,,,,,None,None,None,None,SUP,6.643,None,None,,,,,,,,,,,,,2015_Oct_11_1620,A,facesParametric,13,59.4989906899,
./basicStim/06F_DI_O.jpg,,0,6,6,22,,,,,,,,,,,None,None,None,None,DIS,3.459,None,None,,,,,,,,,,,,,2015_Oct_11_1620,A,facesParametric,13,59.4989906899,
./basicStim/02F_SP_O.jpg,,0,7,7,12,,,,,,,,,,,None,None,None,None,SUP,3.444,None,None,,,,,,,,,,,,,2015_Oct_11_1620,A,facesParametric,13,59.4989906899,
./basicStim/03F_NE_C.jpg,,0,8,8,20,,,,,,,,,,,None,None,None,None,None,None,NTR,1.442,,,,,,,,,,,,,2015_Oct_11_1620,A,facesParametric,13,59.4989906899,
./basicStim/34M_HA_O.jpg,,0,9,9,73,,,,,,,,,,,HAP,3.862,None,None,None,None,None,None,,,,,,,,,,,,,2015_Oct_11_1620,A,facesParametric,13,59.4989906899,
./basicStim/03F_HA_O.jpg,,0,10,10,17,,,,,,,,,,,HAP,0.961,None,None,None,None,None,None,,,,,,,,,,,,,2015_Oct_11_1620,A,facesParametric,13,59.4989906899,
./basicStim/24M_FE_O.jpg,,0,11,11,58,,,,,,,,,,,None,None,None,None,SUP,4.206,None,None,,,,,,,,,,,,,2015_Oct_11_1620,A,facesParametric,13,59.4989906899,
./basicStim/02F_NE_C.jpg,,0,12,12,13,,,,,,,,,,,None,None,None,None,None,None,NTR,1.477,,,,,,,,,,,,,2015_Oct_11_1620,A,facesParametric,13,59.4989906899,
./basicStim/21M_AN_O.jpg,,0,13,13,42,,,,,,,,,,,None,None,ANG,3.666,None,None,None,None,,,,,,,,,,,,,2015_Oct_11_1620,A,facesParametric,13,59.4989906899,
./basicStim/23M_FE_O.jpg,,0,14,14,51,,,,,,,,,,,SAD,5.603,None,None,None,None,None,None,,,,,,,,,,,,,2015_Oct_11_1620,A,facesParametric,13,59.4989906899,
./basicStim/07F_AN_O.jpg,,0,15,15,28,,,,,,,,,,,None,None,ANG,1.56,None,None,None,None,,,,,,,,,,,,,2015_Oct_11_1620,A,facesParametric,13,59.4989906899,
./basicStim/09F_AN_O.jpg,,0,16,16,35,,,,,,,,,,,None,None,ANG,0.896,None,None,None,None,,,,,,,,,,,,,2015_Oct_11_1620,A,facesParametric,13,59.4989906899,
./basicStim/06F_NE_C.jpg,,0,17,17,27,,,,,,,,,,,None,None,None,None,None,None,NTR,3.925,,,,,,,,,,,,,2015_Oct_11_1620,A,facesParametric,13,59.4989906899,
./basicStim/34M_SA_C.jpg,,0,18,18,74,,,,,,,,,,,SAD,3.462,None,None,None,None,None,None,,,,,,,,,,,,,2015_Oct_11_1620,A,facesParametric,13,59.4989906899,
./basicStim/28M_DI_O.jpg,,0,19,19,64,,,,,,,,,,,None,None,None,None,DIS,2.747,None,None,,,,,,,,,,,,,2015_Oct_11_1620,A,facesParametric,13,59.4989906899,
./basicStim/09F_NE_C.jpg,,0,20,20,41,,,,,,,,,,,None,None,None,None,None,None,NTR,1.282,,,,,,,,,,,,,2015_Oct_11_1620,A,facesParametric,13,59.4989906899,
./basicStim/07F_NE_C.jpg,,0,21,21,34,,,,,,,,,,,None,None,None,None,None,None,NTR,1.154,,,,,,,,,,,,,2015_Oct_11_1620,A,facesParametric,13,59.4989906899,
./basicStim/36M_SA_C.jpg,,0,22,22,81,,,,,,,,,,,None,None,None,None,None,None,NTR,5.841,,,,,,,,,,,,,2015_Oct_11_1620,A,facesParametric,13,59.4989906899,
./basicStim/01F_AN_O.jpg,,0,23,23,0,,,,,,,,,,,None,None,ANG,2.869,None,None,None,None,,,,,,,,,,,,,2015_Oct_11_1620,A,facesParametric,13,59.4989906899,
./basicStim/36M_FE_O.jpg,,0,24,24,79,,,,,,,,,,,SAD,11.249,None,None,None,None,None,None,,,,,,,,,,,,,2015_Oct_11_1620,A,facesParametric,13,59.4989906899,
./basicStim/02F_SA_C.jpg,,0,25,25,11,,,,,,,,,,,SAD,1.031,None,None,None,None,None,None,,,,,,,,,,,,,2015_Oct_11_1620,A,facesParametric,13,59.4989906899,
./basicStim/23M_AN_O.jpg,,0,26,26,49,,,,,,,,,,,None,None,ANG,5.079,None,None,None,None,,,,,,,,,,,,,2015_Oct_11_1620,A,facesParametric,13,59.4989906899,
./basicStim/28M_AN_O.jpg,,0,27,27,63,,,,,,,,,,,None,None,None,None,DIS,7.396,None,None,,,,,,,,,,,,,2015_Oct_11_1620,A,facesParametric,13,59.4989906899,
./basicStim/06F_SP_O.jpg,,0,28,28,26,,,,,,,,,,,None,None,None,None,SUP,1.894,None,None,,,,,,,,,,,,,2015_Oct_11_1620,A,facesParametric,13,59.4989906899,
./basicStim/21M_FE_O.jpg,,0,29,29,44,,,,,,,,,,,None,None,FEA,2.45,None,None,None,None,,,,,,,,,,,,,2015_Oct_11_1620,A,facesParametric,13,59.4989906899,
./basicStim/24M_DI_O.jpg,,0,30,30,57,,,,,,,,,,,SAD,6.527,None,None,None,None,None,None,,,,,,,,,,,,,2015_Oct_11_1620,A,facesParametric,13,59.4989906899,
./basicStim/21M_SP_O.jpg,,0,31,31,47,,,,,,,,,,,None,None,None,None,SUP,12.288,None,None,,,,,,,,,,,,,2015_Oct_11_1620,A,facesParametric,13,59.4989906899,
./basicStim/09F_FE_O.jpg,,0,32,32,37,,,,,,,,,,,None,None,FEA,4.094,None,None,None,None,,,,,,,,,,,,,2015_Oct_11_1620,A,facesParametric,13,59.4989906899,
./basicStim/34M_NE_C.jpg,,0,33,33,76,,,,,,,,,,,None,None,None,None,None,None,NTR,1.392,,,,,,,,,,,,,2015_Oct_11_1620,A,facesParametric,13,59.4989906899,
./basicStim/06F_FE_O.jpg,,0,34,34,23,,,,,,,,,,,None,None,FEA,1.763,None,None,None,None,,,,,,,,,,,,,2015_Oct_11_1620,A,facesParametric,13,59.4989906899,
./basicStim/34M_SP_O.jpg,,0,35,35,75,,,,,,,,,,,None,None,None,None,SUP,1.877,None,None,,,,,,,,,,,,,2015_Oct_11_1620,A,facesParametric,13,59.4989906899,
./basicStim/28M_HA_O.jpg,,0,36,36,66,,,,,,,,,,,HAP,1.621,None,None,None,None,None,None,,,,,,,,,,,,,2015_Oct_11_1620,A,facesParametric,13,59.4989906899,
./basicStim/03F_FE_O.jpg,,0,37,37,16,,,,,,,,,,,None,None,None,None,SUP,2.019,None,None,,,,,,,,,,,,,2015_Oct_11_1620,A,facesParametric,13,59.4989906899,
./basicStim/01F_SP_O.jpg,,0,38,38,5,,,,,,,,,,,None,None,None,None,SUP,0.865,None,None,,,,,,,,,,,,,2015_Oct_11_1620,A,facesParametric,13,59.4989906899,
./basicStim/21M_NE_C.jpg,,0,39,39,48,,,,,,,,,,,None,None,None,None,None,None,NTR,1.141,,,,,,,,,,,,,2015_Oct_11_1620,A,facesParametric,13,59.4989906899,
./basicStim/23M_DI_O.jpg,,0,40,40,50,,,,,,,,,,,None,None,None,None,DIS,1.812,None,None,,,,,,,,,,,,,2015_Oct_11_1620,A,facesParametric,13,59.4989906899,
./basicStim/09F_DI_O.jpg,,0,41,41,36,,,,,,,,,,,None,None,None,None,DIS,0.722,None,None,,,,,,,,,,,,,2015_Oct_11_1620,A,facesParametric,13,59.4989906899,
./basicStim/02F_HA_O.jpg,,0,42,42,10,,,,,,,,,,,HAP,1.648,None,None,None,None,None,None,,,,,,,,,,,,,2015_Oct_11_1620,A,facesParametric,13,59.4989906899,
./basicStim/24M_HA_O.jpg,,0,43,43,59,,,,,,,,,,,HAP,0.63,None,None,None,None,None,None,,,,,,,,,,,,,2015_Oct_11_1620,A,facesParametric,13,59.4989906899,
./basicStim/01F_SA_C.jpg,,0,44,44,4,,,,,,,,,,,SAD,3.16,None,None,None,None,None,None,,,,,,,,,,,,,2015_Oct_11_1620,A,facesParametric,13,59.4989906899,
./basicStim/23M_NE_C.jpg,,0,45,45,55,,,,,,,,,,,None,None,None,None,None,None,NTR,1.799,,,,,,,,,,,,,2015_Oct_11_1620,A,facesParametric,13,59.4989906899,
./basicStim/07F_HA_O.jpg,,0,46,46,31,,,,,,,,,,,HAP,2.301,None,None,None,None,None,None,,,,,,,,,,,,,2015_Oct_11_1620,A,facesParametric,13,59.4989906899,
./basicStim/09F_SA_C.jpg,,0,47,47,39,,,,,,,,,,,SAD,9.844,None,None,None,None,None,None,,,,,,,,,,,,,2015_Oct_11_1620,A,facesParametric,13,59.4989906899,
./basicStim/36M_DI_O.jpg,,0,48,48,78,,,,,,,,,,,None,None,None,None,DIS,1.746,None,None,,,,,,,,,,,,,2015_Oct_11_1620,A,facesParametric,13,59.4989906899,
./basicStim/23M_SP_O.jpg,,0,49,49,54,,,,,,,,,,,None,None,None,None,SUP,1.864,None,None,,,,,,,,,,,,,2015_Oct_11_1620,A,facesParametric,13,59.4989906899,
./basicStim/24M_SP_O.jpg,,0,50,50,61,,,,,,,,,,,None,None,None,None,SUP,2.515,None,None,,,,,,,,,,,,,2015_Oct_11_1620,A,facesParametric,13,59.4989906899,
./basicStim/02F_AN_O.jpg,,0,51,51,7,,,,,,,,,,,None,None,ANG,1.568,None,None,None,None,,,,,,,,,,,,,2015_Oct_11_1620,A,facesParametric,13,59.4989906899,
./basicStim/02F_FE_O.jpg,,0,52,52,9,,,,,,,,,,,None,None,None,None,SUP,3.187,None,None,,,,,,,,,,,,,2015_Oct_11_1620,A,facesParametric,13,59.4989906899,
./basicStim/06F_SA_C.jpg,,0,53,53,25,,,,,,,,,,,SAD,6.07,None,None,None,None,None,None,,,,,,,,,,,,,2015_Oct_11_1620,A,facesParametric,13,59.4989906899,
./basicStim/06F_HA_O.jpg,,0,54,54,24,,,,,,,,,,,HAP,2.567,None,None,None,None,None,None,,,,,,,,,,,,,2015_Oct_11_1620,A,facesParametric,13,59.4989906899,
./basicStim/03F_SA_C.jpg,,0,55,55,18,,,,,,,,,,,SAD,1.415,None,None,None,None,None,None,,,,,,,,,,,,,2015_Oct_11_1620,A,facesParametric,13,59.4989906899,
./basicStim/21M_SA_C.jpg,,0,56,56,46,,,,,,,,,,,SAD,2.302,None,None,None,None,None,None,,,,,,,,,,,,,2015_Oct_11_1620,A,facesParametric,13,59.4989906899,
./basicStim/01F_FE_O.jpg,,0,57,57,2,,,,,,,,,,,None,None,None,None,SUP,1.181,None,None,,,,,,,,,,,,,2015_Oct_11_1620,A,facesParametric,13,59.4989906899,
./basicStim/07F_FE_O.jpg,,0,58,58,30,,,,,,,,,,,None,None,FEA,2.082,None,None,None,None,,,,,,,,,,,,,2015_Oct_11_1620,A,facesParametric,13,59.4989906899,
./basicStim/24M_SA_C.jpg,,0,59,59,60,,,,,,,,,,,SAD,2.052,None,None,None,None,None,None,,,,,,,,,,,,,2015_Oct_11_1620,A,facesParametric,13,59.4989906899,
./basicStim/01F_NE_C.jpg,,0,60,60,6,,,,,,,,,,,SAD,1.68,None,None,None,None,None,None,,,,,,,,,,,,,2015_Oct_11_1620,A,facesParametric,13,59.4989906899,
./basicStim/36M_NE_C.jpg,,0,61,61,83,,,,,,,,,,,None,None,None,None,None,None,NTR,1.523,,,,,,,,,,,,,2015_Oct_11_1620,A,facesParametric,13,59.4989906899,
./basicStim/01F_HA_O.jpg,,0,62,62,3,,,,,,,,,,,HAP,1.495,None,None,None,None,None,None,,,,,,,,,,,,,2015_Oct_11_1620,A,facesParametric,13,59.4989906899,
./basicStim/34M_DI_O.jpg,,0,63,63,71,,,,,,,,,,,None,None,None,None,DIS,1.239,None,None,,,,,,,,,,,,,2015_Oct_11_1620,A,facesParametric,13,59.4989906899,
./basicStim/07F_DI_O.jpg,,0,64,64,29,,,,,,,,,,,None,None,None,None,DIS,0.739,None,None,,,,,,,,,,,,,2015_Oct_11_1620,A,facesParametric,13,59.4989906899,
./basicStim/36M_AN_O.jpg,,0,65,65,77,,,,,,,,,,,None,None,ANG,5.906,None,None,None,None,,,,,,,,,,,,,2015_Oct_11_1620,A,facesParametric,13,59.4989906899,
./basicStim/36M_HA_O.jpg,,0,66,66,80,,,,,,,,,,,HAP,1.347,None,None,None,None,None,None,,,,,,,,,,,,,2015_Oct_11_1620,A,facesParametric,13,59.4989906899,
./basicStim/28M_SP_O.jpg,,0,67,67,68,,,,,,,,,,,None,None,None,None,SUP,1.325,None,None,,,,,,,,,,,,,2015_Oct_11_1620,A,facesParametric,13,59.4989906899,
./basicStim/01F_DI_O.jpg,,0,68,68,1,,,,,,,,,,,None,None,None,None,DIS,1.801,None,None,,,,,,,,,,,,,2015_Oct_11_1620,A,facesParametric,13,59.4989906899,
./basicStim/03F_AN_O.jpg,,0,69,69,14,,,,,,,,,,,None,None,ANG,1.829,None,None,None,None,,,,,,,,,,,,,2015_Oct_11_1620,A,facesParametric,13,59.4989906899,
./basicStim/34M_AN_O.jpg,,0,70,70,70,,,,,,,,,,,None,None,ANG,0.98,None,None,None,None,,,,,,,,,,,,,2015_Oct_11_1620,A,facesParametric,13,59.4989906899,
./basicStim/09F_HA_O.jpg,,0,71,71,38,,,,,,,,,,,HAP,1.183,None,None,None,None,None,None,,,,,,,,,,,,,2015_Oct_11_1620,A,facesParametric,13,59.4989906899,
./basicStim/21M_DI_O.jpg,,0,72,72,43,,,,,,,,,,,None,None,None,None,DIS,3.958,None,None,,,,,,,,,,,,,2015_Oct_11_1620,A,facesParametric,13,59.4989906899,
./basicStim/06F_AN_O.jpg,,0,73,73,21,,,,,,,,,,,None,None,FEA,4.441,None,None,None,None,,,,,,,,,,,,,2015_Oct_11_1620,A,facesParametric,13,59.4989906899,
./basicStim/23M_SA_C.jpg,,0,74,74,53,,,,,,,,,,,None,None,None,None,DIS,4.396,None,None,,,,,,,,,,,,,2015_Oct_11_1620,A,facesParametric,13,59.4989906899,
./basicStim/24M_NE_C.jpg,,0,75,75,62,,,,,,,,,,,None,None,None,None,None,None,NTR,1.19,,,,,,,,,,,,,2015_Oct_11_1620,A,facesParametric,13,59.4989906899,
./basicStim/09F_SP_O.jpg,,0,76,76,40,,,,,,,,,,,None,None,None,None,SUP,2.336,None,None,,,,,,,,,,,,,2015_Oct_11_1620,A,facesParametric,13,59.4989906899,
./basicStim/03F_SP_O.jpg,,0,77,77,19,,,,,,,,,,,None,None,None,None,SUP,2.452,None,None,,,,,,,,,,,,,2015_Oct_11_1620,A,facesParametric,13,59.4989906899,
./basicStim/07F_SA_C.jpg,,0,78,78,32,,,,,,,,,,,SAD,1.584,None,None,None,None,None,None,,,,,,,,,,,,,2015_Oct_11_1620,A,facesParametric,13,59.4989906899,
./basicStim/36M_SP_O.jpg,,0,79,79,82,,,,,,,,,,,None,None,None,None,SUP,1.815,None,None,,,,,,,,,,,,,2015_Oct_11_1620,A,facesParametric,13,59.4989906899,
./basicStim/23M_HA_O.jpg,,0,80,80,52,,,,,,,,,,,HAP,1.346,None,None,None,None,None,None,,,,,,,,,,,,,2015_Oct_11_1620,A,facesParametric,13,59.4989906899,
./basicStim/21M_HA_O.jpg,,0,81,81,45,,,,,,,,,,,HAP,0.673,None,None,None,None,None,None,,,,,,,,,,,,,2015_Oct_11_1620,A,facesParametric,13,59.4989906899,
./basicStim/28M_NE_C.jpg,,0,82,82,69,,,,,,,,,,,None,None,None,None,None,None,NTR,1.542,,,,,,,,,,,,,2015_Oct_11_1620,A,facesParametric,13,59.4989906899,
./basicStim/03F_DI_O.jpg,,0,83,83,15,,,,,,,,,,,None,None,None,None,DIS,3.104,None,None,,,,,,,,,,,,,2015_Oct_11_1620,A,facesParametric,13,59.4989906899,
,,,,,,,,,,,,,,,,,,,,,,,,return,3.21828389168,,,,,,,,,,,2015_Oct_11_1620,A,facesParametric,13,59.4989906899,
,,,,,,,,,,,,,,return,21.8199980259,,,,,,,,,,,,,,,,,,,,,2015_Oct_11_1620,A,facesParametric,13,59.4989906899,
,,,,,,,,,,,,,,,,,,,,,,,,return,7.23975205421,,,,,,,,,,,2015_Oct_11_1620,A,facesParametric,13,59.4989906899,
,,,,,,,,,,,,,,,,,,,,,,,,,,return,1.7596578598,,,,,,,,,2015_Oct_11_1620,A,facesParametric,13,59.4989906899,
./stim/MorphM9_09_orig.jpg,0,,,,,0,0,0,0,,,,,,,,,,,,,,,,,,,-4.189453125,-8.994140625,0,0,1,3.73031401634,,,2015_Oct_11_1620,A,facesParametric,13,59.4989906899,
./stim/MorphM4_08_orig.jpg,1,,,,,0,1,1,1,,,,,,,,,,,,,,,,,,,-4.189453125,-8.994140625,0,0,1,0.936451911926,,,2015_Oct_11_1620,A,facesParametric,13,59.4989906899,
./stim/MorphF9_06_orig.jpg,2,,,,,0,2,2,2,,,,,,,,,,,,,,,,,,,-4.189453125,-8.994140625,1,0,0,0.968878030777,,,2015_Oct_11_1620,A,facesParametric,13,59.4989906899,
./stim/MorphF7_10_orig.jpg,3,,,,,0,3,3,3,,,,,,,,,,,,,,,,,,,-4.189453125,-8.994140625,0,0,1,2.02629899979,,,2015_Oct_11_1620,A,facesParametric,13,59.4989906899,
./stim/MorphM3_04_orig.jpg,4,,,,,0,4,4,4,,,,,,,,,,,,,,,,,,,-4.189453125,-8.994140625,1,0,0,1.33749103546,,,2015_Oct_11_1620,A,facesParametric,13,59.4989906899,
./stim/MorphF1_10_orig.jpg,5,,,,,0,5,5,5,,,,,,,,,,,,,,,,,,,-4.189453125,-8.994140625,0,0,1,1.62423801422,,,2015_Oct_11_1620,A,facesParametric,13,59.4989906899,
./stim/MorphM4_06_orig.jpg,6,,,,,0,6,6,6,,,,,,,,,,,,,,,,,,,-4.189453125,-8.994140625,0,0,1,1.07130289078,,,2015_Oct_11_1620,A,facesParametric,13,59.4989906899,
./stim/MorphF7_02_orig.jpg,7,,,,,0,7,7,7,,,,,,,,,,,,,,,,,,,-4.189453125,-8.994140625,1,0,0,0.970817089081,,,2015_Oct_11_1620,A,facesParametric,13,59.4989906899,
./stim/MorphM3_00_orig.jpg,8,,,,,0,8,8,8,,,,,,,,,,,,,,,,,,,-4.189453125,-8.994140625,1,0,0,2.05935192108,,,2015_Oct_11_1620,A,facesParametric,13,59.4989906899,
./stim/MorphM1_02_orig.jpg,9,,,,,0,9,9,9,,,,,,,,,,,,,,,,,,,-4.189453125,-8.994140625,1,0,0,1.43991994858,,,2015_Oct_11_1620,A,facesParametric,13,59.4989906899,
./stim/MorphM6_03_orig.jpg,10,,,,,0,10,10,10,,,,,,,,,,,,,,,,,,,-4.189453125,-8.994140625,1,0,0,1.94267821312,,,2015_Oct_11_1620,A,facesParametric,13,59.4989906899,
./stim/MorphM7_01_orig.jpg,11,,,,,0,11,11,11,,,,,,,,,,,,,,,,,,,-4.189453125,-8.994140625,0,0,1,2.07683110237,,,2015_Oct_11_1620,A,facesParametric,13,59.4989906899,
./stim/MorphM5_02_orig.jpg,12,,,,,0,12,12,12,,,,,,,,,,,,,,,,,,,-4.189453125,-8.994140625,1,0,0,3.56864905357,,,2015_Oct_11_1620,A,facesParametric,13,59.4989906899,
./stim/MorphF5_09_orig.jpg,13,,,,,0,13,13,13,,,,,,,,,,,,,,,,,,,-4.189453125,-8.994140625,0,0,1,1.15506505966,,,2015_Oct_11_1620,A,facesParametric,13,59.4989906899,
./stim/MorphF10_04_orig.jpg,14,,,,,0,14,14,14,,,,,,,,,,,,,,,,,,,-4.189453125,-8.994140625,0,0,1,2.81409811974,,,2015_Oct_11_1620,A,facesParametric,13,59.4989906899,
./stim/MorphM5_00_orig.jpg,15,,,,,0,15,15,15,,,,,,,,,,,,,,,,,,,-4.189453125,-8.994140625,1,0,0,1.25639986992,,,2015_Oct_11_1620,A,facesParametric,13,59.4989906899,
./stim/MorphF8_08_orig.jpg,16,,,,,0,16,16,16,,,,,,,,,,,,,,,,,,,-4.189453125,-8.994140625,0,0,1,0.986053943634,,,2015_Oct_11_1620,A,facesParametric,13,59.4989906899,
./stim/MorphF9_04_orig.jpg,17,,,,,0,17,17,17,,,,,,,,,,,,,,,,,,,-4.189453125,-8.994140625,1,0,0,1.63862705231,,,2015_Oct_11_1620,A,facesParametric,13,59.4989906899,
./stim/MorphM5_09_orig.jpg,18,,,,,0,18,18,18,,,,,,,,,,,,,,,,,,,-4.189453125,-8.994140625,0,0,1,1.03790712357,,,2015_Oct_11_1620,A,facesParametric,13,59.4989906899,
./stim/MorphF8_00_orig.jpg,19,,,,,0,19,19,19,,,,,,,,,,,,,,,,,,,-4.189453125,-8.994140625,1,0,0,0.836750030518,,,2015_Oct_11_1620,A,facesParametric,13,59.4989906899,
./stim/MorphM2_05_orig.jpg,20,,,,,0,20,20,20,,,,,,,,,,,,,,,,,,,-4.189453125,-8.994140625,0,0,1,3.01417303085,,,2015_Oct_11_1620,A,facesParametric,13,59.4989906899,
./stim/MorphF10_05_orig.jpg,21,,,,,0,21,21,21,,,,,,,,,,,,,,,,,,,-4.189453125,-8.994140625,0,0,1,1.08824801445,,,2015_Oct_11_1620,A,facesParametric,13,59.4989906899,
./stim/MorphF6_00_orig.jpg,22,,,,,0,22,22,22,,,,,,,,,,,,,,,,,,,-4.189453125,-8.994140625,1,0,0,0.853288888931,,,2015_Oct_11_1620,A,facesParametric,13,59.4989906899,
./stim/MorphF10_01_orig.jpg,23,,,,,0,23,23,23,,,,,,,,,,,,,,,,,,,-4.189453125,-8.994140625,1,0,0,2.26090478897,,,2015_Oct_11_1620,A,facesParametric,13,59.4989906899,
./stim/MorphM1_00_orig.jpg,24,,,,,0,24,24,24,,,,,,,,,,,,,,,,,,,-4.189453125,-8.994140625,1,0,0,1.59086608887,,,2015_Oct_11_1620,A,facesParametric,13,59.4989906899,
./stim/MorphF3_05_orig.jpg,25,,,,,0,25,25,25,,,,,,,,,,,,,,,,,,,-4.189453125,-8.994140625,0,0,1,1.62428092957,,,2015_Oct_11_1620,A,facesParametric,13,59.4989906899,
./stim/MorphF2_00_orig.jpg,26,,,,,0,26,26,26,,,,,,,,,,,,,,,,,,,-4.189453125,-8.994140625,1,0,0,1.00393486023,,,2015_Oct_11_1620,A,facesParametric,13,59.4989906899,
./stim/MorphF4_02_orig.jpg,27,,,,,0,27,27,27,,,,,,,,,,,,,,,,,,,-4.189453125,-8.994140625,1,0,0,0.836745977402,,,2015_Oct_11_1620,A,facesParametric,13,59.4989906899,
./stim/MorphM6_05_orig.jpg,28,,,,,0,28,28,28,,,,,,,,,,,,,,,,,,,-4.189453125,-8.994140625,1,0,0,1.74172306061,,,2015_Oct_11_1620,A,facesParametric,13,59.4989906899,
./stim/MorphF7_07_orig.jpg,29,,,,,0,29,29,29,,,,,,,,,,,,,,,,,,,-4.189453125,-8.994140625,0,0,1,0.902764797211,,,2015_Oct_11_1620,A,facesParametric,13,59.4989906899,
./stim/MorphF8_03_orig.jpg,30,,,,,0,30,30,30,,,,,,,,,,,,,,,,,,,-4.189453125,-8.994140625,1,0,0,2.362885952,,,2015_Oct_11_1620,A,facesParametric,13,59.4989906899,
./stim/MorphM5_03_orig.jpg,31,,,,,0,31,31,31,,,,,,,,,,,,,,,,,,,-4.189453125,-8.994140625,1,0,0,3.23275589943,,,2015_Oct_11_1620,A,facesParametric,13,59.4989906899,
./stim/MorphF4_10_orig.jpg,32,,,,,0,32,32,32,,,,,,,,,,,,,,,,,,,-4.189453125,-8.994140625,0,0,1,0.820652961731,,,2015_Oct_11_1620,A,facesParametric,13,59.4989906899,
./stim/MorphM8_03_orig.jpg,33,,,,,0,33,33,33,,,,,,,,,,,,,,,,,,,-4.189453125,-8.994140625,0,0,1,2.00926303864,,,2015_Oct_11_1620,A,facesParametric,13,59.4989906899,
./stim/MorphF8_05_orig.jpg,34,,,,,0,34,34,34,,,,,,,,,,,,,,,,,,,-4.189453125,-8.994140625,1,0,0,1.37277507782,,,2015_Oct_11_1620,A,facesParametric,13,59.4989906899,
./stim/MorphF9_09_orig.jpg,35,,,,,0,35,35,35,,,,,,,,,,,,,,,,,,,-4.189453125,-8.994140625,0,0,1,1.0209197998,,,2015_Oct_11_1620,A,facesParametric,13,59.4989906899,
./stim/MorphM1_05_orig.jpg,36,,,,,0,36,36,36,,,,,,,,,,,,,,,,,,,-4.189453125,-8.994140625,1,0,0,1.67412090302,,,2015_Oct_11_1620,A,facesParametric,13,59.4989906899,
./stim/MorphF6_06_orig.jpg,37,,,,,0,37,37,37,,,,,,,,,,,,,,,,,,,-4.189453125,-8.994140625,0,0,1,3.71816110611,,,2015_Oct_11_1620,A,facesParametric,13,59.4989906899,
./stim/MorphF3_06_orig.jpg,38,,,,,0,38,38,38,,,,,,,,,,,,,,,,,,,-4.189453125,-8.994140625,1,0,0,3.65035295486,,,2015_Oct_11_1620,A,facesParametric,13,59.4989906899,
./stim/MorphF6_08_orig.jpg,39,,,,,0,39,39,39,,,,,,,,,,,,,,,,,,,-4.189453125,-8.994140625,0,0,1,0.719712018967,,,2015_Oct_11_1620,A,facesParametric,13,59.4989906899,
./stim/MorphF3_07_orig.jpg,40,,,,,0,40,40,40,,,,,,,,,,,,,,,,,,,-4.189453125,-8.994140625,0,0,1,0.903542041779,,,2015_Oct_11_1620,A,facesParametric,13,59.4989906899,
./stim/MorphF1_06_orig.jpg,41,,,,,0,41,41,41,,,,,,,,,,,,,,,,,,,-4.189453125,-8.994140625,1,0,0,1.82493400574,,,2015_Oct_11_1620,A,facesParametric,13,59.4989906899,
./stim/MorphM4_04_orig.jpg,42,,,,,0,42,42,42,,,,,,,,,,,,,,,,,,,-4.189453125,-8.994140625,0,0,1,2.09385418892,,,2015_Oct_11_1620,A,facesParametric,13,59.4989906899,
./stim/MorphM3_01_orig.jpg,43,,,,,0,43,43,43,,,,,,,,,,,,,,,,,,,-4.189453125,-8.994140625,1,0,0,1.32274103165,,,2015_Oct_11_1620,A,facesParametric,13,59.4989906899,
./stim/MorphF4_08_orig.jpg,44,,,,,0,44,44,44,,,,,,,,,,,,,,,,,,,-4.189453125,-8.994140625,0,0,1,0.920925855637,,,2015_Oct_11_1620,A,facesParametric,13,59.4989906899,
./stim/MorphM3_02_orig.jpg,45,,,,,0,45,45,45,,,,,,,,,,,,,,,,,,,-4.189453125,-8.994140625,1,0,0,1.06947207451,,,2015_Oct_11_1620,A,facesParametric,13,59.4989906899,
./stim/MorphM7_07_orig.jpg,46,,,,,0,46,46,46,,,,,,,,,,,,,,,,,,,-4.189453125,-8.994140625,0,0,1,1.60672688484,,,2015_Oct_11_1620,A,facesParametric,13,59.4989906899,
./stim/MorphM2_04_orig.jpg,47,,,,,0,47,47,47,,,,,,,,,,,,,,,,,,,-4.189453125,-8.994140625,1,0,0,1.64077877998,,,2015_Oct_11_1620,A,facesParametric,13,59.4989906899,
./stim/MorphM3_06_orig.jpg,48,,,,,0,48,48,48,,,,,,,,,,,,,,,,,,,-4.189453125,-8.994140625,1,0,0,2.51381993294,,,2015_Oct_11_1620,A,facesParametric,13,59.4989906899,
./stim/MorphM1_01_orig.jpg,49,,,,,0,49,49,49,,,,,,,,,,,,,,,,,,,-4.189453125,-8.994140625,1,0,0,1.00408792496,,,2015_Oct_11_1620,A,facesParametric,13,59.4989906899,
./stim/MorphM4_02_orig.jpg,50,,,,,0,50,50,50,,,,,,,,,,,,,,,,,,,-4.189453125,-8.994140625,1,0,0,3.70121598244,,,2015_Oct_11_1620,A,facesParametric,13,59.4989906899,
./stim/MorphM7_02_orig.jpg,51,,,,,0,51,51,51,,,,,,,,,,,,,,,,,,,-4.189453125,-8.994140625,0,0,1,1.27240991592,,,2015_Oct_11_1620,A,facesParametric,13,59.4989906899,
./stim/MorphM1_09_orig.jpg,52,,,,,0,52,52,52,,,,,,,,,,,,,,,,,,,-4.189453125,-8.994140625,0,0,1,1.0020210743,,,2015_Oct_11_1620,A,facesParametric,13,59.4989906899,
./stim/MorphM5_05_orig.jpg,53,,,,,0,53,53,53,,,,,,,,,,,,,,,,,,,-4.189453125,-8.994140625,1,0,0,1.57421016693,,,2015_Oct_11_1620,A,facesParametric,13,59.4989906899,
./stim/MorphM7_10_orig.jpg,54,,,,,0,54,54,54,,,,,,,,,,,,,,,,,,,-4.189453125,-8.994140625,0,0,1,0.954326868057,,,2015_Oct_11_1620,A,facesParametric,13,59.4989906899,
./stim/MorphF4_05_orig.jpg,55,,,,,0,55,55,55,,,,,,,,,,,,,,,,,,,-4.189453125,-8.994140625,1,0,0,2.24412298203,,,2015_Oct_11_1620,A,facesParametric,13,59.4989906899,
./stim/MorphF1_07_orig.jpg,56,,,,,0,56,56,56,,,,,,,,,,,,,,,,,,,-4.189453125,-8.994140625,1,0,0,2.02694797516,,,2015_Oct_11_1620,A,facesParametric,13,59.4989906899,
./stim/MorphM10_09_orig.jpg,57,,,,,0,57,57,57,,,,,,,,,,,,,,,,,,,-4.189453125,-8.994140625,0,0,1,0.685656070709,,,2015_Oct_11_1620,A,facesParametric,13,59.4989906899,
./stim/MorphM9_08_orig.jpg,58,,,,,0,58,58,58,,,,,,,,,,,,,,,,,,,-4.189453125,-8.994140625,0,0,1,2.11068701744,,,2015_Oct_11_1620,A,facesParametric,13,59.4989906899,
./stim/MorphM4_00_orig.jpg,59,,,,,0,59,59,59,,,,,,,,,,,,,,,,,,,-4.189453125,-8.994140625,1,0,0,2.14412093163,,,2015_Oct_11_1620,A,facesParametric,13,59.4989906899,
./stim/MorphM10_01_orig.jpg,60,,,,,0,60,60,60,,,,,,,,,,,,,,,,,,,-4.189453125,-8.994140625,1,0,0,1.02079606056,,,2015_Oct_11_1620,A,facesParametric,13,59.4989906899,
./stim/MorphF1_08_orig.jpg,61,,,,,0,61,61,61,,,,,,,,,,,,,,,,,,,-4.189453125,-8.994140625,0,0,1,2.3451321125,,,2015_Oct_11_1620,A,facesParametric,13,59.4989906899,
./stim/MorphM9_03_orig.jpg,62,,,,,0,62,62,62,,,,,,,,,,,,,,,,,,,-4.189453125,-8.994140625,1,0,0,2.7467520237,,,2015_Oct_11_1620,A,facesParametric,13,59.4989906899,
./stim/MorphF3_03_orig.jpg,63,,,,,0,63,63,63,,,,,,,,,,,,,,,,,,,-4.189453125,-8.994140625,1,0,0,1.9254488945,,,2015_Oct_11_1620,A,facesParametric,13,59.4989906899,
./stim/MorphM2_01_orig.jpg,64,,,,,0,64,64,64,,,,,,,,,,,,,,,,,,,-4.189453125,-8.994140625,1,0,0,0.986802101135,,,2015_Oct_11_1620,A,facesParametric,13,59.4989906899,
./stim/MorphM6_08_orig.jpg,65,,,,,0,65,65,65,,,,,,,,,,,,,,,,,,,-4.189453125,-8.994140625,0,0,1,3.0662381649,,,2015_Oct_11_1620,A,facesParametric,13,59.4989906899,
./stim/MorphF1_09_orig.jpg,66,,,,,0,66,66,66,,,,,,,,,,,,,,,,,,,-4.189453125,-8.994140625,0,0,1,1.43699193001,,,2015_Oct_11_1620,A,facesParametric,13,59.4989906899,
./stim/MorphM9_02_orig.jpg,67,,,,,0,67,67,67,,,,,,,,,,,,,,,,,,,-4.189453125,-8.994140625,1,0,0,0.818164825439,,,2015_Oct_11_1620,A,facesParametric,13,59.4989906899,
./stim/MorphM10_07_orig.jpg,68,,,,,0,68,68,68,,,,,,,,,,,,,,,,,,,-4.189453125,-8.994140625,0,0,1,0.736555099487,,,2015_Oct_11_1620,A,facesParametric,13,59.4989906899,
./stim/MorphM8_04_orig.jpg,69,,,,,0,69,69,69,,,,,,,,,,,,,,,,,,,-4.189453125,-8.994140625,0,0,1,2.66311192513,,,2015_Oct_11_1620,A,facesParametric,13,59.4989906899,
./stim/MorphF3_04_orig.jpg,70,,,,,0,70,70,70,,,,,,,,,,,,,,,,,,,-4.189453125,-8.994140625,1,0,0,0.685065984726,,,2015_Oct_11_1620,A,facesParametric,13,59.4989906899,
./stim/MorphM7_05_orig.jpg,71,,,,,0,71,71,71,,,,,,,,,,,,,,,,,,,-4.189453125,-8.994140625,0,0,1,2.36170291901,,,2015_Oct_11_1620,A,facesParametric,13,59.4989906899,
./stim/MorphM10_04_orig.jpg,72,,,,,0,72,72,72,,,,,,,,,,,,,,,,,,,-4.189453125,-8.994140625,0,0,1,1.30597996712,,,2015_Oct_11_1620,A,facesParametric,13,59.4989906899,
./stim/MorphM3_05_orig.jpg,73,,,,,0,73,73,73,,,,,,,,,,,,,,,,,,,-4.189453125,-8.994140625,1,0,0,1.35643005371,,,2015_Oct_11_1620,A,facesParametric,13,59.4989906899,
./stim/MorphM7_08_orig.jpg,74,,,,,0,74,74,74,,,,,,,,,,,,,,,,,,,-4.189453125,-8.994140625,0,0,1,0.853456020355,,,2015_Oct_11_1620,A,facesParametric,13,59.4989906899,
./stim/MorphM9_07_orig.jpg,75,,,,,0,75,75,75,,,,,,,,,,,,,,,,,,,-4.189453125,-8.994140625,0,0,1,3.83653283119,,,2015_Oct_11_1620,A,facesParametric,13,59.4989906899,
./stim/MorphM8_07_orig.jpg,76,,,,,0,76,76,76,,,,,,,,,,,,,,,,,,,-4.189453125,-8.994140625,0,0,1,1.43971920013,,,2015_Oct_11_1620,A,facesParametric,13,59.4989906899,
./stim/MorphF8_01_orig.jpg,77,,,,,0,77,77,77,,,,,,,,,,,,,,,,,,,-4.189453125,-8.994140625,1,0,0,0.920242071152,,,2015_Oct_11_1620,A,facesParametric,13,59.4989906899,
./stim/MorphF5_01_orig.jpg,78,,,,,0,78,78,78,,,,,,,,,,,,,,,,,,,-4.189453125,-8.994140625,1,0,0,1.00438904762,,,2015_Oct_11_1620,A,facesParametric,13,59.4989906899,
./stim/MorphF4_09_orig.jpg,79,,,,,0,79,79,79,,,,,,,,,,,,,,,,,,,-4.189453125,-8.994140625,0,0,1,0.851782798767,,,2015_Oct_11_1620,A,facesParametric,13,59.4989906899,
./stim/MorphM10_08_orig.jpg,80,,,,,0,80,80,80,,,,,,,,,,,,,,,,,,,-4.189453125,-8.994140625,0,0,1,0.802811861038,,,2015_Oct_11_1620,A,facesParametric,13,59.4989906899,
./stim/MorphF6_01_orig.jpg,81,,,,,0,81,81,81,,,,,,,,,,,,,,,,,,,-4.189453125,-8.994140625,1,0,0,1.75748801231,,,2015_Oct_11_1620,A,facesParametric,13,59.4989906899,
./stim/MorphM8_00_orig.jpg,82,,,,,0,82,82,82,,,,,,,,,,,,,,,,,,,-4.189453125,-8.994140625,1,0,0,1.77548885345,,,2015_Oct_11_1620,A,facesParametric,13,59.4989906899,
./stim/MorphM1_08_orig.jpg,83,,,,,0,83,83,83,,,,,,,,,,,,,,,,,,,-4.189453125,-8.994140625,1,0,0,2.27645277977,,,2015_Oct_11_1620,A,facesParametric,13,59.4989906899,
./stim/MorphF6_02_orig.jpg,84,,,,,0,84,84,84,,,,,,,,,,,,,,,,,,,-4.189453125,-8.994140625,1,0,0,2.86470794678,,,2015_Oct_11_1620,A,facesParametric,13,59.4989906899,
./stim/MorphF5_10_orig.jpg,85,,,,,0,85,85,85,,,,,,,,,,,,,,,,,,,-4.189453125,-8.994140625,0,0,1,0.97101187706,,,2015_Oct_11_1620,A,facesParametric,13,59.4989906899,
./stim/MorphM9_00_orig.jpg,86,,,,,0,86,86,86,,,,,,,,,,,,,,,,,,,-4.189453125,-8.994140625,1,0,0,1.08776187897,,,2015_Oct_11_1620,A,facesParametric,13,59.4989906899,
./stim/MorphM3_10_orig.jpg,87,,,,,0,87,87,87,,,,,,,,,,,,,,,,,,,-4.189453125,-8.994140625,0,0,1,1.59149098396,,,2015_Oct_11_1620,A,facesParametric,13,59.4989906899,
./stim/MorphF10_07_orig.jpg,88,,,,,0,88,88,88,,,,,,,,,,,,,,,,,,,-4.189453125,-8.994140625,1,0,0,0.802731990814,,,2015_Oct_11_1620,A,facesParametric,13,59.4989906899,
./stim/MorphM4_07_orig.jpg,89,,,,,0,89,89,89,,,,,,,,,,,,,,,,,,,-4.189453125,-8.994140625,0,0,1,0.920577049255,,,2015_Oct_11_1620,A,facesParametric,13,59.4989906899,
./stim/MorphM9_04_orig.jpg,90,,,,,0,90,90,90,,,,,,,,,,,,,,,,,,,-4.189453125,-8.994140625,1,0,0,1.28954696655,,,2015_Oct_11_1620,A,facesParametric,13,59.4989906899,
./stim/MorphM6_09_orig.jpg,91,,,,,0,91,91,91,,,,,,,,,,,,,,,,,,,-4.189453125,-8.994140625,0,0,1,2.21041202545,,,2015_Oct_11_1620,A,facesParametric,13,59.4989906899,
./stim/MorphF10_00_orig.jpg,92,,,,,0,92,92,92,,,,,,,,,,,,,,,,,,,-4.189453125,-8.994140625,1,0,0,1.0371940136,,,2015_Oct_11_1620,A,facesParametric,13,59.4989906899,
./stim/MorphM8_10_orig.jpg,93,,,,,0,93,93,93,,,,,,,,,,,,,,,,,,,-4.189453125,-8.994140625,0,0,1,0.987567186356,,,2015_Oct_11_1620,A,facesParametric,13,59.4989906899,
./stim/MorphM7_04_orig.jpg,94,,,,,0,94,94,94,,,,,,,,,,,,,,,,,,,-4.189453125,-8.994140625,0,0,1,0.769676923752,,,2015_Oct_11_1620,A,facesParametric,13,59.4989906899,
./stim/MorphF10_08_orig.jpg,95,,,,,0,95,95,95,,,,,,,,,,,,,,,,,,,-4.189453125,-8.994140625,0,0,1,1.1384139061,,,2015_Oct_11_1620,A,facesParametric,13,59.4989906899,
./stim/MorphF5_00_orig.jpg,96,,,,,0,96,96,96,,,,,,,,,,,,,,,,,,,-4.189453125,-8.994140625,1,0,0,1.8759560585,,,2015_Oct_11_1620,A,facesParametric,13,59.4989906899,
./stim/MorphM10_03_orig.jpg,97,,,,,0,97,97,97,,,,,,,,,,,,,,,,,,,-4.189453125,-8.994140625,1,0,0,3.18172597885,,,2015_Oct_11_1620,A,facesParametric,13,59.4989906899,
./stim/MorphF8_04_orig.jpg,98,,,,,0,98,98,98,,,,,,,,,,,,,,,,,,,-4.189453125,-8.994140625,1,0,0,0.970016956329,,,2015_Oct_11_1620,A,facesParametric,13,59.4989906899,
./stim/MorphF9_00_orig.jpg,99,,,,,0,99,99,99,,,,,,,,,,,,,,,,,,,-4.189453125,-8.994140625,1,0,0,2.57990384102,,,2015_Oct_11_1620,A,facesParametric,13,59.4989906899,
./stim/MorphF2_06_orig.jpg,100,,,,,0,100,100,100,,,,,,,,,,,,,,,,,,,-4.189453125,-8.994140625,0,0,1,5.19356894493,,,2015_Oct_11_1620,A,facesParametric,13,59.4989906899,
./stim/MorphF7_06_orig.jpg,101,,,,,0,101,101,101,,,,,,,,,,,,,,,,,,,-4.189453125,-8.994140625,0,0,1,0.801829814911,,,2015_Oct_11_1620,A,facesParametric,13,59.4989906899,
./stim/MorphF5_08_orig.jpg,102,,,,,0,102,102,102,,,,,,,,,,,,,,,,,,,-4.189453125,-8.994140625,0,0,1,1.05285787582,,,2015_Oct_11_1620,A,facesParametric,13,59.4989906899,
./stim/MorphF3_10_orig.jpg,103,,,,,0,103,103,103,,,,,,,,,,,,,,,,,,,-4.189453125,-8.994140625,0,0,1,1.7408311367,,,2015_Oct_11_1620,A,facesParametric,13,59.4989906899,
./stim/MorphF2_02_orig.jpg,104,,,,,0,104,104,104,,,,,,,,,,,,,,,,,,,-4.189453125,-8.994140625,1,0,0,1.01754713058,,,2015_Oct_11_1620,A,facesParametric,13,59.4989906899,
./stim/MorphF3_02_orig.jpg,105,,,,,0,105,105,105,,,,,,,,,,,,,,,,,,,-4.189453125,-8.994140625,1,0,0,1.12193989754,,,2015_Oct_11_1620,A,facesParametric,13,59.4989906899,
./stim/MorphM8_05_orig.jpg,106,,,,,0,106,106,106,,,,,,,,,,,,,,,,,,,-4.189453125,-8.994140625,1,0,0,3.46772408485,,,2015_Oct_11_1620,A,facesParametric,13,59.4989906899,
./stim/MorphF1_04_orig.jpg,107,,,,,0,107,107,107,,,,,,,,,,,,,,,,,,,-4.189453125,-8.994140625,1,0,0,1.2893640995,,,2015_Oct_11_1620,A,facesParametric,13,59.4989906899,
./stim/MorphM5_01_orig.jpg,108,,,,,0,108,108,108,,,,,,,,,,,,,,,,,,,-4.189453125,-8.994140625,1,0,0,1.22001099586,,,2015_Oct_11_1620,A,facesParametric,13,59.4989906899,
./stim/MorphM3_08_orig.jpg,109,,,,,0,109,109,109,,,,,,,,,,,,,,,,,,,-4.189453125,-8.994140625,1,0,0,1.3383231163,,,2015_Oct_11_1620,A,facesParametric,13,59.4989906899,
./stim/MorphF8_06_orig.jpg,110,,,,,0,110,110,110,,,,,,,,,,,,,,,,,,,-4.189453125,-8.994140625,1,0,0,3.23341107368,,,2015_Oct_11_1620,A,facesParametric,13,59.4989906899,
./stim/MorphM6_01_orig.jpg,111,,,,,0,111,111,111,,,,,,,,,,,,,,,,,,,-4.189453125,-8.994140625,1,0,0,0.987020969391,,,2015_Oct_11_1620,A,facesParametric,13,59.4989906899,
./stim/MorphM2_00_orig.jpg,112,,,,,0,112,112,112,,,,,,,,,,,,,,,,,,,-4.189453125,-8.994140625,1,0,0,1.72285604477,,,2015_Oct_11_1620,A,facesParametric,13,59.4989906899,
./stim/MorphM1_03_orig.jpg,113,,,,,0,113,113,113,,,,,,,,,,,,,,,,,,,-4.189453125,-8.994140625,1,0,0,0.920490980148,,,2015_Oct_11_1620,A,facesParametric,13,59.4989906899,
./stim/MorphM6_07_orig.jpg,114,,,,,0,114,114,114,,,,,,,,,,,,,,,,,,,-4.189453125,-8.994140625,1,0,0,1.43781900406,,,2015_Oct_11_1620,A,facesParametric,13,59.4989906899,
./stim/MorphF5_07_orig.jpg,115,,,,,0,115,115,115,,,,,,,,,,,,,,,,,,,-4.189453125,-8.994140625,0,0,1,0.820315122604,,,2015_Oct_11_1620,A,facesParametric,13,59.4989906899,
./stim/MorphM9_05_orig.jpg,116,,,,,0,116,116,116,,,,,,,,,,,,,,,,,,,-4.189453125,-8.994140625,1,0,0,0.953947067261,,,2015_Oct_11_1620,A,facesParametric,13,59.4989906899,
./stim/MorphM5_08_orig.jpg,117,,,,,0,117,117,117,,,,,,,,,,,,,,,,,,,-4.189453125,-8.994140625,0,0,1,2.51266288757,,,2015_Oct_11_1620,A,facesParametric,13,59.4989906899,
./stim/MorphF7_04_orig.jpg,118,,,,,0,118,118,118,,,,,,,,,,,,,,,,,,,-4.189453125,-8.994140625,1,0,0,0.701400995255,,,2015_Oct_11_1620,A,facesParametric,13,59.4989906899,
./stim/MorphF3_01_orig.jpg,119,,,,,0,119,119,119,,,,,,,,,,,,,,,,,,,-4.189453125,-8.994140625,1,0,0,0.851979017258,,,2015_Oct_11_1620,A,facesParametric,13,59.4989906899,
./stim/MorphM2_02_orig.jpg,120,,,,,0,120,120,120,,,,,,,,,,,,,,,,,,,-4.189453125,-8.994140625,1,0,0,1.10468697548,,,2015_Oct_11_1620,A,facesParametric,13,59.4989906899,
./stim/MorphM8_01_orig.jpg,121,,,,,0,121,121,121,,,,,,,,,,,,,,,,,,,-4.189453125,-8.994140625,1,0,0,3.48494100571,,,2015_Oct_11_1620,A,facesParametric,13,59.4989906899,
./stim/MorphF10_09_orig.jpg,122,,,,,0,122,122,122,,,,,,,,,,,,,,,,,,,-4.189453125,-8.994140625,0,0,1,0.718722105026,,,2015_Oct_11_1620,A,facesParametric,13,59.4989906899,
./stim/MorphF6_04_orig.jpg,123,,,,,0,123,123,123,,,,,,,,,,,,,,,,,,,-4.189453125,-8.994140625,1,0,0,0.920216798782,,,2015_Oct_11_1620,A,facesParametric,13,59.4989906899,
./stim/MorphM5_04_orig.jpg,124,,,,,0,124,124,124,,,,,,,,,,,,,,,,,,,-4.189453125,-8.994140625,1,0,0,1.70864295959,,,2015_Oct_11_1620,A,facesParametric,13,59.4989906899,
./stim/MorphM2_07_orig.jpg,125,,,,,0,125,125,125,,,,,,,,,,,,,,,,,,,-4.189453125,-8.994140625,1,0,0,3.36748194695,,,2015_Oct_11_1620,A,facesParametric,13,59.4989906899,
./stim/MorphF10_02_orig.jpg,126,,,,,0,126,126,126,,,,,,,,,,,,,,,,,,,-4.189453125,-8.994140625,1,0,0,1.77413201332,,,2015_Oct_11_1620,A,facesParametric,13,59.4989906899,
./stim/MorphF5_02_orig.jpg,127,,,,,0,127,127,127,,,,,,,,,,,,,,,,,,,-4.189453125,-8.994140625,1,0,0,1.01924705505,,,2015_Oct_11_1620,A,facesParametric,13,59.4989906899,
./stim/MorphM4_01_orig.jpg,128,,,,,0,128,128,128,,,,,,,,,,,,,,,,,,,-4.189453125,-8.994140625,1,0,0,0.735960960388,,,2015_Oct_11_1620,A,facesParametric,13,59.4989906899,
./stim/MorphM9_10_orig.jpg,129,,,,,0,129,129,129,,,,,,,,,,,,,,,,,,,-4.189453125,-8.994140625,0,0,1,0.936063051224,,,2015_Oct_11_1620,A,facesParametric,13,59.4989906899,
./stim/MorphM1_06_orig.jpg,130,,,,,0,130,130,130,,,,,,,,,,,,,,,,,,,-4.189453125,-8.994140625,1,0,0,3.4008769989,,,2015_Oct_11_1620,A,facesParametric,13,59.4989906899,
./stim/MorphF6_10_orig.jpg,131,,,,,0,131,131,131,,,,,,,,,,,,,,,,,,,-4.189453125,-8.994140625,0,0,1,0.784351825714,,,2015_Oct_11_1620,A,facesParametric,13,59.4989906899,
./stim/MorphF9_10_orig.jpg,132,,,,,0,132,132,132,,,,,,,,,,,,,,,,,,,-4.189453125,-8.994140625,0,0,1,0.869626045227,,,2015_Oct_11_1620,A,facesParametric,13,59.4989906899,
./stim/MorphM4_10_orig.jpg,133,,,,,0,133,133,133,,,,,,,,,,,,,,,,,,,-4.189453125,-8.994140625,0,0,1,1.6717300415,,,2015_Oct_11_1620,A,facesParametric,13,59.4989906899,
./stim/MorphF2_04_orig.jpg,134,,,,,0,134,134,134,,,,,,,,,,,,,,,,,,,-4.189453125,-8.994140625,1,0,0,2.57918405533,,,2015_Oct_11_1620,A,facesParametric,13,59.4989906899,
./stim/MorphF10_06_orig.jpg,135,,,,,0,135,135,135,,,,,,,,,,,,,,,,,,,-4.189453125,-8.994140625,1,0,0,5.64639592171,,,2015_Oct_11_1620,A,facesParametric,13,59.4989906899,
./stim/MorphM7_06_orig.jpg,136,,,,,0,136,136,136,,,,,,,,,,,,,,,,,,,-4.189453125,-8.994140625,0,0,1,2.32943701744,,,2015_Oct_11_1620,A,facesParametric,13,59.4989906899,
./stim/MorphF1_05_orig.jpg,137,,,,,0,137,137,137,,,,,,,,,,,,,,,,,,,-4.189453125,-8.994140625,1,0,0,0.834841012955,,,2015_Oct_11_1620,A,facesParametric,13,59.4989906899,
./stim/MorphF4_01_orig.jpg,138,,,,,0,138,138,138,,,,,,,,,,,,,,,,,,,-4.189453125,-8.994140625,1,0,0,0.885014057159,,,2015_Oct_11_1620,A,facesParametric,13,59.4989906899,
./stim/MorphM6_06_orig.jpg,139,,,,,0,139,139,139,,,,,,,,,,,,,,,,,,,-4.189453125,-8.994140625,1,0,0,1.95918297768,,,2015_Oct_11_1620,A,facesParametric,13,59.4989906899,
./stim/MorphF4_00_orig.jpg,140,,,,,0,140,140,140,,,,,,,,,,,,,,,,,,,-4.189453125,-8.994140625,1,0,0,2.26147985458,,,2015_Oct_11_1620,A,facesParametric,13,59.4989906899,
./stim/MorphM8_06_orig.jpg,141,,,,,0,141,141,141,,,,,,,,,,,,,,,,,,,-4.189453125,-8.994140625,0,0,1,0.819201946259,,,2015_Oct_11_1620,A,facesParametric,13,59.4989906899,
./stim/MorphM7_09_orig.jpg,142,,,,,0,142,142,142,,,,,,,,,,,,,,,,,,,-4.189453125,-8.994140625,0,0,1,0.902057170868,,,2015_Oct_11_1620,A,facesParametric,13,59.4989906899,
./stim/MorphF6_07_orig.jpg,143,,,,,0,143,143,143,,,,,,,,,,,,,,,,,,,-4.189453125,-8.994140625,0,0,1,0.819864988327,,,2015_Oct_11_1620,A,facesParametric,13,59.4989906899,
./stim/MorphM6_00_orig.jpg,144,,,,,0,144,144,144,,,,,,,,,,,,,,,,,,,-4.189453125,-8.994140625,1,0,0,3.01438307762,,,2015_Oct_11_1620,A,facesParametric,13,59.4989906899,
./stim/MorphM2_03_orig.jpg,145,,,,,0,145,145,145,,,,,,,,,,,,,,,,,,,-4.189453125,-8.994140625,1,0,0,1.10270404816,,,2015_Oct_11_1620,A,facesParametric,13,59.4989906899,
./stim/MorphF4_07_orig.jpg,146,,,,,0,146,146,146,,,,,,,,,,,,,,,,,,,-4.189453125,-8.994140625,0,0,1,0.853472948074,,,2015_Oct_11_1620,A,facesParametric,13,59.4989906899,
./stim/MorphF5_05_orig.jpg,147,,,,,0,147,147,147,,,,,,,,,,,,,,,,,,,-4.189453125,-8.994140625,0,0,1,2.61333179474,,,2015_Oct_11_1620,A,facesParametric,13,59.4989906899,
./stim/MorphF2_03_orig.jpg,148,,,,,0,148,148,148,,,,,,,,,,,,,,,,,,,-4.189453125,-8.994140625,1,0,0,1.6238899231,,,2015_Oct_11_1620,A,facesParametric,13,59.4989906899,
./stim/MorphM10_00_orig.jpg,149,,,,,0,149,149,149,,,,,,,,,,,,,,,,,,,-4.189453125,-8.994140625,1,0,0,2.36196112633,,,2015_Oct_11_1620,A,facesParametric,13,59.4989906899,
./stim/MorphF10_03_orig.jpg,150,,,,,0,150,150,150,,,,,,,,,,,,,,,,,,,-4.189453125,-8.994140625,0,0,1,2.66172480583,,,2015_Oct_11_1620,A,facesParametric,13,59.4989906899,
./stim/MorphF4_06_orig.jpg,151,,,,,0,151,151,151,,,,,,,,,,,,,,,,,,,-4.189453125,-8.994140625,0,0,1,2.14391303062,,,2015_Oct_11_1620,A,facesParametric,13,59.4989906899,
./stim/MorphF7_05_orig.jpg,152,,,,,0,152,152,152,,,,,,,,,,,,,,,,,,,-4.189453125,-8.994140625,0,0,1,0.920586109161,,,2015_Oct_11_1620,A,facesParametric,13,59.4989906899,
./stim/MorphM3_03_orig.jpg,153,,,,,0,153,153,153,,,,,,,,,,,,,,,,,,,-4.189453125,-8.994140625,1,0,0,1.00239300728,,,2015_Oct_11_1620,A,facesParametric,13,59.4989906899,
./stim/MorphM4_09_orig.jpg,154,,,,,0,154,154,154,,,,,,,,,,,,,,,,,,,-4.189453125,-8.994140625,0,0,1,2.34503293037,,,2015_Oct_11_1620,A,facesParametric,13,59.4989906899,
./stim/MorphF7_09_orig.jpg,155,,,,,0,155,155,155,,,,,,,,,,,,,,,,,,,-4.189453125,-8.994140625,0,0,1,0.918280124664,,,2015_Oct_11_1620,A,facesParametric,13,59.4989906899,
./stim/MorphF1_00_orig.jpg,156,,,,,0,156,156,156,,,,,,,,,,,,,,,,,,,-4.189453125,-8.994140625,1,0,0,0.937306165695,,,2015_Oct_11_1620,A,facesParametric,13,59.4989906899,
./stim/MorphF9_05_orig.jpg,157,,,,,0,157,157,157,,,,,,,,,,,,,,,,,,,-4.189453125,-8.994140625,1,0,0,1.72312808037,,,2015_Oct_11_1620,A,facesParametric,13,59.4989906899,
./stim/MorphF8_10_orig.jpg,158,,,,,0,158,158,158,,,,,,,,,,,,,,,,,,,-4.189453125,-8.994140625,0,0,1,0.886949062347,,,2015_Oct_11_1620,A,facesParametric,13,59.4989906899,
./stim/MorphM10_05_orig.jpg,159,,,,,0,159,159,159,,,,,,,,,,,,,,,,,,,-4.189453125,-8.994140625,0,0,1,3.15031886101,,,2015_Oct_11_1620,A,facesParametric,13,59.4989906899,
./stim/MorphM2_08_orig.jpg,160,,,,,0,160,160,160,,,,,,,,,,,,,,,,,,,-4.189453125,-8.994140625,1,0,0,1.50550580025,,,2015_Oct_11_1620,A,facesParametric,13,59.4989906899,
./stim/MorphM6_02_orig.jpg,161,,,,,0,161,161,161,,,,,,,,,,,,,,,,,,,-4.189453125,-8.994140625,1,0,0,1.10452699661,,,2015_Oct_11_1620,A,facesParametric,13,59.4989906899,
./stim/MorphF5_06_orig.jpg,162,,,,,0,162,162,162,,,,,,,,,,,,,,,,,,,-4.189453125,-8.994140625,1,0,0,4.30406212807,,,2015_Oct_11_1620,A,facesParametric,13,59.4989906899,
./stim/MorphF10_10_orig.jpg,163,,,,,0,163,163,163,,,,,,,,,,,,,,,,,,,-4.189453125,-8.994140625,0,0,1,0.970445156097,,,2015_Oct_11_1620,A,facesParametric,13,59.4989906899,
./stim/MorphF9_02_orig.jpg,164,,,,,0,164,164,164,,,,,,,,,,,,,,,,,,,-4.189453125,-8.994140625,1,0,0,1.48865699768,,,2015_Oct_11_1620,A,facesParametric,13,59.4989906899,
./stim/MorphM2_06_orig.jpg,165,,,,,0,165,165,165,,,,,,,,,,,,,,,,,,,-4.189453125,-8.994140625,1,0,0,1.52396202087,,,2015_Oct_11_1620,A,facesParametric,13,59.4989906899,
./stim/MorphM8_08_orig.jpg,166,,,,,0,166,166,166,,,,,,,,,,,,,,,,,,,-4.189453125,-8.994140625,1,0,0,4.37106800079,,,2015_Oct_11_1620,A,facesParametric,13,59.4989906899,
./stim/MorphM10_02_orig.jpg,167,,,,,0,167,167,167,,,,,,,,,,,,,,,,,,,-4.189453125,-8.994140625,1,0,0,2.93130517006,,,2015_Oct_11_1620,A,facesParametric,13,59.4989906899,
./stim/MorphM8_09_orig.jpg,168,,,,,0,168,168,168,,,,,,,,,,,,,,,,,,,-4.189453125,-8.994140625,0,0,1,2.31063604355,,,2015_Oct_11_1620,A,facesParametric,13,59.4989906899,
./stim/MorphF9_01_orig.jpg,169,,,,,0,169,169,169,,,,,,,,,,,,,,,,,,,-4.189453125,-8.994140625,1,0,0,1.60703897476,,,2015_Oct_11_1620,A,facesParametric,13,59.4989906899,
./stim/MorphM7_00_orig.jpg,170,,,,,0,170,170,170,,,,,,,,,,,,,,,,,,,-4.189453125,-8.994140625,1,0,0,1.35636806488,,,2015_Oct_11_1620,A,facesParametric,13,59.4989906899,
./stim/MorphM2_10_orig.jpg,171,,,,,0,171,171,171,,,,,,,,,,,,,,,,,,,-4.189453125,-8.994140625,1,0,0,3.58549404144,,,2015_Oct_11_1620,A,facesParametric,13,59.4989906899,
./stim/MorphF2_07_orig.jpg,172,,,,,0,172,172,172,,,,,,,,,,,,,,,,,,,-4.189453125,-8.994140625,1,0,0,1.59054493904,,,2015_Oct_11_1620,A,facesParametric,13,59.4989906899,
./stim/MorphF5_04_orig.jpg,173,,,,,0,173,173,173,,,,,,,,,,,,,,,,,,,-4.189453125,-8.994140625,1,0,0,1.10514712334,,,2015_Oct_11_1620,A,facesParametric,13,59.4989906899,
./stim/MorphF3_08_orig.jpg,174,,,,,0,174,174,174,,,,,,,,,,,,,,,,,,,-4.189453125,-8.994140625,0,0,1,3.60122394562,,,2015_Oct_11_1620,A,facesParametric,13,59.4989906899,
./stim/MorphF1_02_orig.jpg,175,,,,,0,175,175,175,,,,,,,,,,,,,,,,,,,-4.189453125,-8.994140625,1,0,0,0.767645120621,,,2015_Oct_11_1620,A,facesParametric,13,59.4989906899,
./stim/MorphM5_06_orig.jpg,176,,,,,0,176,176,176,,,,,,,,,,,,,,,,,,,-4.189453125,-8.994140625,1,0,0,1.37334609032,,,2015_Oct_11_1620,A,facesParametric,13,59.4989906899,
./stim/MorphF1_01_orig.jpg,177,,,,,0,177,177,177,,,,,,,,,,,,,,,,,,,-4.189453125,-8.994140625,1,0,0,0.901355028152,,,2015_Oct_11_1620,A,facesParametric,13,59.4989906899,
./stim/MorphF4_03_orig.jpg,178,,,,,0,178,178,178,,,,,,,,,,,,,,,,,,,-4.189453125,-8.994140625,1,0,0,1.03784108162,,,2015_Oct_11_1620,A,facesParametric,13,59.4989906899,
./stim/MorphF3_00_orig.jpg,179,,,,,0,179,179,179,,,,,,,,,,,,,,,,,,,-4.189453125,-8.994140625,1,0,0,1.35394501686,,,2015_Oct_11_1620,A,facesParametric,13,59.4989906899,
./stim/MorphF6_09_orig.jpg,180,,,,,0,180,180,180,,,,,,,,,,,,,,,,,,,-4.189453125,-8.994140625,0,0,1,0.752683877945,,,2015_Oct_11_1620,A,facesParametric,13,59.4989906899,
./stim/MorphF2_08_orig.jpg,181,,,,,0,181,181,181,,,,,,,,,,,,,,,,,,,-4.189453125,-8.994140625,0,0,1,2.17606210709,,,2015_Oct_11_1620,A,facesParametric,13,59.4989906899,
./stim/MorphM6_04_orig.jpg,182,,,,,0,182,182,182,,,,,,,,,,,,,,,,,,,-4.189453125,-8.994140625,1,0,0,3.40110111237,,,2015_Oct_11_1620,A,facesParametric,13,59.4989906899,
./stim/MorphF8_02_orig.jpg,183,,,,,0,183,183,183,,,,,,,,,,,,,,,,,,,-4.189453125,-8.994140625,1,0,0,1.97622299194,,,2015_Oct_11_1620,A,facesParametric,13,59.4989906899,
./stim/MorphF7_01_orig.jpg,184,,,,,0,184,184,184,,,,,,,,,,,,,,,,,,,-4.189453125,-8.994140625,1,0,0,1.55660700798,,,2015_Oct_11_1620,A,facesParametric,13,59.4989906899,
./stim/MorphM3_07_orig.jpg,185,,,,,0,185,185,185,,,,,,,,,,,,,,,,,,,-4.189453125,-8.994140625,1,0,0,2.47907400131,,,2015_Oct_11_1620,A,facesParametric,13,59.4989906899,
./stim/MorphM1_04_orig.jpg,186,,,,,0,186,186,186,,,,,,,,,,,,,,,,,,,-4.189453125,-8.994140625,1,0,0,0.702778816223,,,2015_Oct_11_1620,A,facesParametric,13,59.4989906899,
./stim/MorphM8_02_orig.jpg,187,,,,,0,187,187,187,,,,,,,,,,,,,,,,,,,-4.189453125,-8.994140625,1,0,0,4.47318696976,,,2015_Oct_11_1620,A,facesParametric,13,59.4989906899,
./stim/MorphF4_04_orig.jpg,188,,,,,0,188,188,188,,,,,,,,,,,,,,,,,,,-4.189453125,-8.994140625,1,0,0,1.60752415657,,,2015_Oct_11_1620,A,facesParametric,13,59.4989906899,
./stim/MorphF3_09_orig.jpg,189,,,,,0,189,189,189,,,,,,,,,,,,,,,,,,,-4.189453125,-8.994140625,0,0,1,1.92610907555,,,2015_Oct_11_1620,A,facesParametric,13,59.4989906899,
./stim/MorphM6_10_orig.jpg,190,,,,,0,190,190,190,,,,,,,,,,,,,,,,,,,-4.189453125,-8.994140625,0,0,1,3.65264892578,,,2015_Oct_11_1620,A,facesParametric,13,59.4989906899,
./stim/MorphF5_03_orig.jpg,191,,,,,0,191,191,191,,,,,,,,,,,,,,,,,,,-4.189453125,-8.994140625,1,0,0,1.42314100266,,,2015_Oct_11_1620,A,facesParametric,13,59.4989906899,
./stim/MorphF6_05_orig.jpg,192,,,,,0,192,192,192,,,,,,,,,,,,,,,,,,,-4.189453125,-8.994140625,1,0,0,1.0383040905,,,2015_Oct_11_1620,A,facesParametric,13,59.4989906899,
./stim/MorphM7_03_orig.jpg,193,,,,,0,193,193,193,,,,,,,,,,,,,,,,,,,-4.189453125,-8.994140625,0,0,1,3.76781606674,,,2015_Oct_11_1620,A,facesParametric,13,59.4989906899,
./stim/MorphF6_03_orig.jpg,194,,,,,0,194,194,194,,,,,,,,,,,,,,,,,,,-4.189453125,-8.994140625,1,0,0,1.62437391281,,,2015_Oct_11_1620,A,facesParametric,13,59.4989906899,
./stim/MorphM10_10_orig.jpg,195,,,,,0,195,195,195,,,,,,,,,,,,,,,,,,,-4.189453125,-8.994140625,0,0,1,1.22239899635,,,2015_Oct_11_1620,A,facesParametric,13,59.4989906899,
./stim/MorphM2_09_orig.jpg,196,,,,,0,196,196,196,,,,,,,,,,,,,,,,,,,-4.189453125,-8.96484375,1,0,0,2.24533009529,,,2015_Oct_11_1620,A,facesParametric,13,59.4989906899,
./stim/MorphF8_09_orig.jpg,197,,,,,0,197,197,197,,,,,,,,,,,,,,,,,,,-4.189453125,-8.96484375,0,0,1,1.37328100204,,,2015_Oct_11_1620,A,facesParametric,13,59.4989906899,
./stim/MorphM4_05_orig.jpg,198,,,,,0,198,198,198,,,,,,,,,,,,,,,,,,,-4.072265625,-8.96484375,0,0,1,3.2982070446,,,2015_Oct_11_1620,A,facesParametric,13,59.4989906899,
./stim/MorphM5_07_orig.jpg,199,,,,,0,199,199,199,,,,,,,,,,,,,,,,,,,-3.984375,-8.994140625,1,0,0,29.6962428093,,,2015_Oct_11_1620,A,facesParametric,13,59.4989906899,
./stim/MorphF2_10_orig.jpg,200,,,,,0,200,200,200,,,,,,,,,,,,,,,,,,,-3.984375,-8.994140625,0,0,1,17.4283661842,,,2015_Oct_11_1620,A,facesParametric,13,59.4989906899,
./stim/MorphM1_10_orig.jpg,201,,,,,0,201,201,201,,,,,,,,,,,,,,,,,,,-3.984375,-8.994140625,1,0,0,1.08639001846,,,2015_Oct_11_1620,A,facesParametric,13,59.4989906899,
./stim/MorphF7_00_orig.jpg,202,,,,,0,202,202,202,,,,,,,,,,,,,,,,,,,-3.984375,-8.994140625,1,0,0,1.08845496178,,,2015_Oct_11_1620,A,facesParametric,13,59.4989906899,
./stim/MorphF2_05_orig.jpg,203,,,,,0,203,203,203,,,,,,,,,,,,,,,,,,,-3.984375,-8.994140625,1,0,0,2.89757800102,,,2015_Oct_11_1620,A,facesParametric,13,59.4989906899,
./stim/MorphF9_03_orig.jpg,204,,,,,0,204,204,204,,,,,,,,,,,,,,,,,,,-3.984375,-8.994140625,1,0,0,1.10568189621,,,2015_Oct_11_1620,A,facesParametric,13,59.4989906899,
./stim/MorphM9_06_orig.jpg,205,,,,,0,205,205,205,,,,,,,,,,,,,,,,,,,-3.984375,-8.994140625,1,0,0,3.71803689003,,,2015_Oct_11_1620,A,facesParametric,13,59.4989906899,
./stim/MorphM10_06_orig.jpg,206,,,,,0,206,206,206,,,,,,,,,,,,,,,,,,,-3.984375,-8.994140625,0,0,1,0.820235013962,,,2015_Oct_11_1620,A,facesParametric,13,59.4989906899,
./stim/MorphF1_03_orig.jpg,207,,,,,0,207,207,207,,,,,,,,,,,,,,,,,,,-3.984375,-8.994140625,1,0,0,0.853239059448,,,2015_Oct_11_1620,A,facesParametric,13,59.4989906899,
./stim/MorphM9_01_orig.jpg,208,,,,,0,208,208,208,,,,,,,,,,,,,,,,,,,-3.984375,-8.994140625,1,0,0,0.886767148972,,,2015_Oct_11_1620,A,facesParametric,13,59.4989906899,
./stim/MorphM4_03_orig.jpg,209,,,,,0,209,209,209,,,,,,,,,,,,,,,,,,,-3.984375,-8.994140625,1,0,0,2.02706813812,,,2015_Oct_11_1620,A,facesParametric,13,59.4989906899,
./stim/MorphM1_07_orig.jpg,210,,,,,0,210,210,210,,,,,,,,,,,,,,,,,,,-3.984375,-8.994140625,1,0,0,2.22656702995,,,2015_Oct_11_1620,A,facesParametric,13,59.4989906899,
./stim/MorphM5_10_orig.jpg,211,,,,,0,211,211,211,,,,,,,,,,,,,,,,,,,-3.984375,-8.994140625,0,0,1,8.74748182297,,,2015_Oct_11_1620,A,facesParametric,13,59.4989906899,
./stim/MorphF9_08_orig.jpg,212,,,,,0,212,212,212,,,,,,,,,,,,,,,,,,,-3.984375,-8.994140625,0,0,1,4.50672006607,,,2015_Oct_11_1620,A,facesParametric,13,59.4989906899,
./stim/MorphF2_09_orig.jpg,213,,,,,0,213,213,213,,,,,,,,,,,,,,,,,,,-3.984375,-8.994140625,0,0,1,0.751923084259,,,2015_Oct_11_1620,A,facesParametric,13,59.4989906899,
./stim/MorphM3_09_orig.jpg,214,,,,,0,214,214,214,,,,,,,,,,,,,,,,,,,-3.984375,-8.994140625,0,0,1,1.15438199043,,,2015_Oct_11_1620,A,facesParametric,13,59.4989906899,
./stim/MorphF9_07_orig.jpg,215,,,,,0,215,215,215,,,,,,,,,,,,,,,,,,,-3.984375,-8.994140625,1,0,0,2.09431195259,,,2015_Oct_11_1620,A,facesParametric,13,59.4989906899,
./stim/MorphF7_08_orig.jpg,216,,,,,0,216,216,216,,,,,,,,,,,,,,,,,,,-3.984375,-8.994140625,0,0,1,0.836911201477,,,2015_Oct_11_1620,A,facesParametric,13,59.4989906899,
./stim/MorphF8_07_orig.jpg,217,,,,,0,217,217,217,,,,,,,,,,,,,,,,,,,-3.984375,-8.994140625,0,0,1,0.836529016495,,,2015_Oct_11_1620,A,facesParametric,13,59.4989906899,
./stim/MorphF7_03_orig.jpg,218,,,,,0,218,218,218,,,,,,,,,,,,,,,,,,,-3.984375,-8.994140625,1,0,0,1.25545501709,,,2015_Oct_11_1620,A,facesParametric,13,59.4989906899,
./stim/MorphF2_01_orig.jpg,219,,,,,0,219,219,219,,,,,,,,,,,,,,,,,,,-3.984375,-8.994140625,1,0,0,1.54062795639,,,2015_Oct_11_1620,A,facesParametric,13,59.4989906899,
,,,,,,,,,,,,,,,,,,,,,,,,,,,,,,,,,,return,25.1228079796,2015_Oct_11_1620,A,facesParametric,13,59.4989906899,
./stim/MorphM1_05_orig.jpg,0,,,,,,,,,0,0,0,0,,,,,,,,,,,,,,,-3.984375,-8.994140625,1,0,0,3.70915913582,,,2015_Oct_11_1620,A,facesParametric,13,59.4989906899,
./stim/MorphM8_05_orig.jpg,1,,,,,,,,,0,1,1,1,,,,,,,,,,,,,,,-3.984375,-8.994140625,1,0,0,3.76700210571,,,2015_Oct_11_1620,A,facesParametric,13,59.4989906899,
./stim/MorphF1_05_orig.jpg,2,,,,,,,,,0,2,2,2,,,,,,,,,,,,,,,-3.984375,-8.994140625,1,0,0,1.87594890594,,,2015_Oct_11_1620,A,facesParametric,13,59.4989906899,
./stim/MorphM5_03_orig.jpg,3,,,,,,,,,0,3,3,3,,,,,,,,,,,,,,,-3.984375,-8.994140625,1,0,0,1.42287802696,,,2015_Oct_11_1620,A,facesParametric,13,59.4989906899,
./stim/MorphF2_10_orig.jpg,4,,,,,,,,,0,4,4,4,,,,,,,,,,,,,,,-3.984375,-8.994140625,0,0,1,0.868509054184,,,2015_Oct_11_1620,A,facesParametric,13,59.4989906899,
./stim/MorphM3_04_orig.jpg,5,,,,,,,,,0,5,5,5,,,,,,,,,,,,,,,-3.984375,-8.994140625,1,0,0,1.32228803635,,,2015_Oct_11_1620,A,facesParametric,13,59.4989906899,
./stim/MorphF9_08_orig.jpg,6,,,,,,,,,0,6,6,6,,,,,,,,,,,,,,,-3.984375,-8.994140625,0,0,1,1.38970208168,,,2015_Oct_11_1620,A,facesParametric,13,59.4989906899,
./stim/MorphF3_07_orig.jpg,7,,,,,,,,,0,7,7,7,,,,,,,,,,,,,,,-3.984375,-8.994140625,0,0,1,1.5573348999,,,2015_Oct_11_1620,A,facesParametric,13,59.4989906899,
./stim/MorphF8_01_orig.jpg,8,,,,,,,,,0,8,8,8,,,,,,,,,,,,,,,-3.984375,-8.994140625,1,0,0,1.67462086678,,,2015_Oct_11_1620,A,facesParametric,13,59.4989906899,
./stim/MorphM2_05_orig.jpg,9,,,,,,,,,0,9,9,9,,,,,,,,,,,,,,,-3.984375,-8.994140625,1,0,0,1.05408096313,,,2015_Oct_11_1620,A,facesParametric,13,59.4989906899,
./stim/MorphF3_06_orig.jpg,10,,,,,,,,,0,10,10,10,,,,,,,,,,,,,,,-3.984375,-8.994140625,0,0,1,4.84291195869,,,2015_Oct_11_1620,A,facesParametric,13,59.4989906899,
./stim/MorphM10_01_orig.jpg,11,,,,,,,,,0,11,11,11,,,,,,,,,,,,,,,-3.984375,-8.994140625,1,0,0,1.70779800415,,,2015_Oct_11_1620,A,facesParametric,13,59.4989906899,
./stim/MorphF8_00_orig.jpg,12,,,,,,,,,0,12,12,12,,,,,,,,,,,,,,,-3.984375,-8.994140625,1,0,0,0.736608982086,,,2015_Oct_11_1620,A,facesParametric,13,59.4989906899,
./stim/MorphM4_08_orig.jpg,13,,,,,,,,,0,13,13,13,,,,,,,,,,,,,,,-3.984375,-8.994140625,0,0,1,1.28801894188,,,2015_Oct_11_1620,A,facesParametric,13,59.4989906899,
./stim/MorphF7_04_orig.jpg,14,,,,,,,,,0,14,14,14,,,,,,,,,,,,,,,-3.984375,-8.994140625,1,0,0,2.54632592201,,,2015_Oct_11_1620,A,facesParametric,13,59.4989906899,
./stim/MorphF4_00_orig.jpg,15,,,,,,,,,0,15,15,15,,,,,,,,,,,,,,,-3.984375,-8.994140625,1,0,0,0.853143930435,,,2015_Oct_11_1620,A,facesParametric,13,59.4989906899,
./stim/MorphF7_09_orig.jpg,16,,,,,,,,,0,16,16,16,,,,,,,,,,,,,,,-3.984375,-8.994140625,0,0,1,0.734405994415,,,2015_Oct_11_1620,A,facesParametric,13,59.4989906899,
./stim/MorphM3_06_orig.jpg,17,,,,,,,,,0,17,17,17,,,,,,,,,,,,,,,-3.984375,-8.994140625,1,0,0,4.60725998878,,,2015_Oct_11_1620,A,facesParametric,13,59.4989906899,
./stim/MorphM6_03_orig.jpg,18,,,,,,,,,0,18,18,18,,,,,,,,,,,,,,,-3.984375,-8.994140625,1,0,0,1.18875694275,,,2015_Oct_11_1620,A,facesParametric,13,59.4989906899,
./stim/MorphM9_05_orig.jpg,19,,,,,,,,,0,19,19,19,,,,,,,,,,,,,,,-3.984375,-8.994140625,1,0,0,1.63923096657,,,2015_Oct_11_1620,A,facesParametric,13,59.4989906899,
./stim/MorphF6_07_orig.jpg,20,,,,,,,,,0,20,20,20,,,,,,,,,,,,,,,-3.984375,-8.994140625,0,0,1,0.702939033508,,,2015_Oct_11_1620,A,facesParametric,13,59.4989906899,
./stim/MorphF4_03_orig.jpg,21,,,,,,,,,0,21,21,21,,,,,,,,,,,,,,,-3.984375,-8.994140625,1,0,0,1.30613398552,,,2015_Oct_11_1620,A,facesParametric,13,59.4989906899,
./stim/MorphM1_02_orig.jpg,22,,,,,,,,,0,22,22,22,,,,,,,,,,,,,,,-3.984375,-8.994140625,1,0,0,1.69143486023,,,2015_Oct_11_1620,A,facesParametric,13,59.4989906899,
./stim/MorphF1_06_orig.jpg,23,,,,,,,,,0,23,23,23,,,,,,,,,,,,,,,-3.984375,-8.994140625,1,0,0,5.52955389023,,,2015_Oct_11_1620,A,facesParametric,13,59.4989906899,
./stim/MorphM9_00_orig.jpg,24,,,,,,,,,0,24,24,24,,,,,,,,,,,,,,,-3.984375,-8.994140625,1,0,0,0.85351395607,,,2015_Oct_11_1620,A,facesParametric,13,59.4989906899,
./stim/MorphF6_04_orig.jpg,25,,,,,,,,,0,25,25,25,,,,,,,,,,,,,,,-3.984375,-8.994140625,1,0,0,5.87914013863,,,2015_Oct_11_1620,A,facesParametric,13,59.4989906899,
./stim/MorphF8_09_orig.jpg,26,,,,,,,,,0,26,26,26,,,,,,,,,,,,,,,-3.984375,-8.994140625,0,0,1,0.685986042023,,,2015_Oct_11_1620,A,facesParametric,13,59.4989906899,
./stim/MorphF10_09_orig.jpg,27,,,,,,,,,0,27,27,27,,,,,,,,,,,,,,,-3.984375,-8.994140625,0,0,1,0.836817979813,,,2015_Oct_11_1620,A,facesParametric,13,59.4989906899,
./stim/MorphF8_08_orig.jpg,28,,,,,,,,,0,28,28,28,,,,,,,,,,,,,,,-3.984375,-8.994140625,0,0,1,2.69559192657,,,2015_Oct_11_1620,A,facesParametric,13,59.4989906899,
./stim/MorphM6_09_orig.jpg,29,,,,,,,,,0,29,29,29,,,,,,,,,,,,,,,-3.984375,-8.994140625,1,0,0,1.27263092995,,,2015_Oct_11_1620,A,facesParametric,13,59.4989906899,
./stim/MorphF1_02_orig.jpg,30,,,,,,,,,0,30,30,30,,,,,,,,,,,,,,,-3.984375,-8.994140625,1,0,0,1.15426898003,,,2015_Oct_11_1620,A,facesParametric,13,59.4989906899,
./stim/MorphM8_07_orig.jpg,31,,,,,,,,,0,31,31,31,,,,,,,,,,,,,,,-3.984375,-8.994140625,0,0,1,1.47112488747,,,2015_Oct_11_1620,A,facesParametric,13,59.4989906899,
./stim/MorphM2_01_orig.jpg,32,,,,,,,,,0,32,32,32,,,,,,,,,,,,,,,-3.984375,-8.994140625,1,0,0,0.98699593544,,,2015_Oct_11_1620,A,facesParametric,13,59.4989906899,
./stim/MorphM3_03_orig.jpg,33,,,,,,,,,0,33,33,33,,,,,,,,,,,,,,,-3.984375,-8.994140625,0,0,1,1.79040002823,,,2015_Oct_11_1620,A,facesParametric,13,59.4989906899,
./stim/MorphF8_04_orig.jpg,34,,,,,,,,,0,34,34,34,,,,,,,,,,,,,,,-3.984375,-8.994140625,1,0,0,2.31188702583,,,2015_Oct_11_1620,A,facesParametric,13,59.4989906899,
./stim/MorphM4_00_orig.jpg,35,,,,,,,,,0,35,35,35,,,,,,,,,,,,,,,-3.984375,-8.994140625,1,0,0,1.18876099586,,,2015_Oct_11_1620,A,facesParametric,13,59.4989906899,
./stim/MorphF6_03_orig.jpg,36,,,,,,,,,0,36,36,36,,,,,,,,,,,,,,,-3.984375,-8.994140625,1,0,0,2.00771284103,,,2015_Oct_11_1620,A,facesParametric,13,59.4989906899,
./stim/MorphM10_09_orig.jpg,37,,,,,,,,,0,37,37,37,,,,,,,,,,,,,,,-3.984375,-8.994140625,0,0,1,1.28937506676,,,2015_Oct_11_1620,A,facesParametric,13,59.4989906899,
./stim/MorphM7_00_orig.jpg,38,,,,,,,,,0,38,38,38,,,,,,,,,,,,,,,-3.984375,-8.994140625,1,0,0,1.94259214401,,,2015_Oct_11_1620,A,facesParametric,13,59.4989906899,
./stim/MorphF9_02_orig.jpg,39,,,,,,,,,0,39,39,39,,,,,,,,,,,,,,,-3.984375,-8.994140625,1,0,0,1.33945798874,,,2015_Oct_11_1620,A,facesParametric,13,59.4989906899,
./stim/MorphF5_02_orig.jpg,40,,,,,,,,,0,40,40,40,,,,,,,,,,,,,,,-3.984375,-8.994140625,1,0,0,1.18865418434,,,2015_Oct_11_1620,A,facesParametric,13,59.4989906899,
./stim/MorphM10_03_orig.jpg,41,,,,,,,,,0,41,41,41,,,,,,,,,,,,,,,-3.984375,-8.994140625,1,0,0,2.66339612007,,,2015_Oct_11_1620,A,facesParametric,13,59.4989906899,
./stim/MorphM2_08_orig.jpg,42,,,,,,,,,0,42,42,42,,,,,,,,,,,,,,,-3.984375,-8.994140625,1,0,0,1.80887818336,,,2015_Oct_11_1620,A,facesParametric,13,59.4989906899,
./stim/MorphF3_01_orig.jpg,43,,,,,,,,,0,43,43,43,,,,,,,,,,,,,,,-3.984375,-8.994140625,1,0,0,1.15548181534,,,2015_Oct_11_1620,A,facesParametric,13,59.4989906899,
./stim/MorphM4_09_orig.jpg,44,,,,,,,,,0,44,44,44,,,,,,,,,,,,,,,-3.984375,-8.994140625,0,0,1,0.90207695961,,,2015_Oct_11_1620,A,facesParametric,13,59.4989906899,
./stim/MorphF2_05_orig.jpg,45,,,,,,,,,0,45,45,45,,,,,,,,,,,,,,,-3.984375,-8.994140625,0,0,1,2.09375,,,2015_Oct_11_1620,A,facesParametric,13,59.4989906899,
./stim/MorphM5_05_orig.jpg,46,,,,,,,,,0,46,46,46,,,,,,,,,,,,,,,-3.984375,-8.994140625,1,0,0,6.55079197884,,,2015_Oct_11_1620,A,facesParametric,13,59.4989906899,
./stim/MorphF9_10_orig.jpg,47,,,,,,,,,0,47,47,47,,,,,,,,,,,,,,,-3.984375,-8.994140625,0,0,1,1.17281198502,,,2015_Oct_11_1620,A,facesParametric,13,59.4989906899,
./stim/MorphF1_01_orig.jpg,48,,,,,,,,,0,48,48,48,,,,,,,,,,,,,,,-3.984375,-8.994140625,1,0,0,2.8129119873,,,2015_Oct_11_1620,A,facesParametric,13,59.4989906899,
./stim/MorphM8_09_orig.jpg,49,,,,,,,,,0,49,49,49,,,,,,,,,,,,,,,-3.984375,-8.994140625,0,0,1,1.99318408966,,,2015_Oct_11_1620,A,facesParametric,13,59.4989906899,
./stim/MorphM4_02_orig.jpg,50,,,,,,,,,0,50,50,50,,,,,,,,,,,,,,,-3.984375,-8.994140625,1,0,0,0.835510969162,,,2015_Oct_11_1620,A,facesParametric,13,59.4989906899,
./stim/MorphM6_08_orig.jpg,51,,,,,,,,,0,51,51,51,,,,,,,,,,,,,,,-3.984375,-8.994140625,1,0,0,5.27832388878,,,2015_Oct_11_1620,A,facesParametric,13,59.4989906899,
./stim/MorphF2_00_orig.jpg,52,,,,,,,,,0,52,52,52,,,,,,,,,,,,,,,-3.984375,-8.994140625,1,0,0,1.17179894447,,,2015_Oct_11_1620,A,facesParametric,13,59.4989906899,
./stim/MorphM7_04_orig.jpg,53,,,,,,,,,0,53,53,53,,,,,,,,,,,,,,,-3.984375,-8.994140625,0,0,1,2.14399409294,,,2015_Oct_11_1620,A,facesParametric,13,59.4989906899,
./stim/MorphM6_07_orig.jpg,54,,,,,,,,,0,54,54,54,,,,,,,,,,,,,,,-3.984375,-8.994140625,1,0,0,1.05282211304,,,2015_Oct_11_1620,A,facesParametric,13,59.4989906899,
./stim/MorphF1_10_orig.jpg,55,,,,,,,,,0,55,55,55,,,,,,,,,,,,,,,-3.984375,-8.994140625,0,0,1,1.33871603012,,,2015_Oct_11_1620,A,facesParametric,13,59.4989906899,
./stim/MorphM1_03_orig.jpg,56,,,,,,,,,0,56,56,56,,,,,,,,,,,,,,,-3.984375,-8.994140625,1,0,0,1.3039329052,,,2015_Oct_11_1620,A,facesParametric,13,59.4989906899,
./stim/MorphF4_10_orig.jpg,57,,,,,,,,,0,57,57,57,,,,,,,,,,,,,,,-3.984375,-8.994140625,0,0,1,0.784535884857,,,2015_Oct_11_1620,A,facesParametric,13,59.4989906899,
./stim/MorphF9_09_orig.jpg,58,,,,,,,,,0,58,58,58,,,,,,,,,,,,,,,-3.984375,-8.994140625,0,0,1,0.954951047897,,,2015_Oct_11_1620,A,facesParametric,13,59.4989906899,
./stim/MorphM7_09_orig.jpg,59,,,,,,,,,0,59,59,59,,,,,,,,,,,,,,,-3.984375,-8.994140625,0,0,1,0.699862003326,,,2015_Oct_11_1620,A,facesParametric,13,59.4989906899,
./stim/MorphF4_05_orig.jpg,60,,,,,,,,,0,60,60,60,,,,,,,,,,,,,,,-3.984375,-8.994140625,1,0,0,1.70835781097,,,2015_Oct_11_1620,A,facesParametric,13,59.4989906899,
./stim/MorphM3_05_orig.jpg,61,,,,,,,,,0,61,61,61,,,,,,,,,,,,,,,-3.984375,-8.994140625,0,0,1,1.45438599586,,,2015_Oct_11_1620,A,facesParametric,13,59.4989906899,
./stim/MorphM5_06_orig.jpg,62,,,,,,,,,0,62,62,62,,,,,,,,,,,,,,,-3.984375,-8.994140625,0,0,1,2.47930502892,,,2015_Oct_11_1620,A,facesParametric,13,59.4989906899,
./stim/MorphM8_08_orig.jpg,63,,,,,,,,,0,63,63,63,,,,,,,,,,,,,,,-3.984375,-8.994140625,0,0,1,1.97621512413,,,2015_Oct_11_1620,A,facesParametric,13,59.4989906899,
./stim/MorphF5_09_orig.jpg,64,,,,,,,,,0,64,64,64,,,,,,,,,,,,,,,-3.984375,-8.994140625,0,0,1,0.767845153809,,,2015_Oct_11_1620,A,facesParametric,13,59.4989906899,
./stim/MorphF10_03_orig.jpg,65,,,,,,,,,0,65,65,65,,,,,,,,,,,,,,,-3.984375,-8.994140625,1,0,0,1.6426320076,,,2015_Oct_11_1620,A,facesParametric,13,59.4989906899,
./stim/MorphF7_00_orig.jpg,66,,,,,,,,,0,66,66,66,,,,,,,,,,,,,,,-3.984375,-8.994140625,1,0,0,0.667933940887,,,2015_Oct_11_1620,A,facesParametric,13,59.4989906899,
./stim/MorphF8_05_orig.jpg,67,,,,,,,,,0,67,67,67,,,,,,,,,,,,,,,-3.984375,-8.994140625,1,0,0,2.27682113647,,,2015_Oct_11_1620,A,facesParametric,13,59.4989906899,
./stim/MorphM2_03_orig.jpg,68,,,,,,,,,0,68,68,68,,,,,,,,,,,,,,,-3.984375,-8.994140625,1,0,0,1.23816514015,,,2015_Oct_11_1620,A,facesParametric,13,59.4989906899,
./stim/MorphM10_07_orig.jpg,69,,,,,,,,,0,69,69,69,,,,,,,,,,,,,,,-3.984375,-8.994140625,0,0,1,0.769320964813,,,2015_Oct_11_1620,A,facesParametric,13,59.4989906899,
./stim/MorphF6_02_orig.jpg,70,,,,,,,,,0,70,70,70,,,,,,,,,,,,,,,-3.984375,-8.994140625,1,0,0,0.886591911316,,,2015_Oct_11_1620,A,facesParametric,13,59.4989906899,
./stim/MorphM7_07_orig.jpg,71,,,,,,,,,0,71,71,71,,,,,,,,,,,,,,,-3.984375,-8.994140625,0,0,1,0.719861984253,,,2015_Oct_11_1620,A,facesParametric,13,59.4989906899,
./stim/MorphF10_04_orig.jpg,72,,,,,,,,,0,72,72,72,,,,,,,,,,,,,,,-3.984375,-8.994140625,1,0,0,1.70647311211,,,2015_Oct_11_1620,A,facesParametric,13,59.4989906899,
./stim/MorphM9_09_orig.jpg,73,,,,,,,,,0,73,73,73,,,,,,,,,,,,,,,-3.984375,-8.994140625,0,0,1,1.0546810627,,,2015_Oct_11_1620,A,facesParametric,13,59.4989906899,
./stim/MorphM6_06_orig.jpg,74,,,,,,,,,0,74,74,74,,,,,,,,,,,,,,,-3.984375,-8.994140625,1,0,0,3.60214591026,,,2015_Oct_11_1620,A,facesParametric,13,59.4989906899,
./stim/MorphF10_07_orig.jpg,75,,,,,,,,,0,75,75,75,,,,,,,,,,,,,,,-3.984375,-8.994140625,0,0,1,1.82361721992,,,2015_Oct_11_1620,A,facesParametric,13,59.4989906899,
./stim/MorphF7_10_orig.jpg,76,,,,,,,,,0,76,76,76,,,,,,,,,,,,,,,-3.984375,-8.994140625,0,0,1,0.736150026321,,,2015_Oct_11_1620,A,facesParametric,13,59.4989906899,
./stim/MorphM5_07_orig.jpg,77,,,,,,,,,0,77,77,77,,,,,,,,,,,,,,,-3.984375,-8.994140625,0,0,1,2.91343522072,,,2015_Oct_11_1620,A,facesParametric,13,59.4989906899,
./stim/MorphF6_05_orig.jpg,78,,,,,,,,,0,78,78,78,,,,,,,,,,,,,,,-3.984375,-8.994140625,1,0,0,3.24955487251,,,2015_Oct_11_1620,A,facesParametric,13,59.4989906899,
./stim/MorphM10_10_orig.jpg,79,,,,,,,,,0,79,79,79,,,,,,,,,,,,,,,-3.984375,-8.994140625,0,0,1,1.01932215691,,,2015_Oct_11_1620,A,facesParametric,13,59.4989906899,
./stim/MorphM6_10_orig.jpg,80,,,,,,,,,0,80,80,80,,,,,,,,,,,,,,,-3.984375,-8.994140625,0,0,1,1.17210006714,,,2015_Oct_11_1620,A,facesParametric,13,59.4989906899,
./stim/MorphF3_05_orig.jpg,81,,,,,,,,,0,81,81,81,,,,,,,,,,,,,,,-3.984375,-8.994140625,1,0,0,4.82445502281,,,2015_Oct_11_1620,A,facesParametric,13,59.4989906899,
./stim/MorphM2_07_orig.jpg,82,,,,,,,,,0,82,82,82,,,,,,,,,,,,,,,-3.984375,-8.994140625,1,0,0,3.33378195763,,,2015_Oct_11_1620,A,facesParametric,13,59.4989906899,
./stim/MorphF1_03_orig.jpg,83,,,,,,,,,0,83,83,83,,,,,,,,,,,,,,,-3.984375,-8.994140625,1,0,0,0.853204011917,,,2015_Oct_11_1620,A,facesParametric,13,59.4989906899,
./stim/MorphF5_08_orig.jpg,84,,,,,,,,,0,84,84,84,,,,,,,,,,,,,,,-3.984375,-8.994140625,0,0,1,1.11996793747,,,2015_Oct_11_1620,A,facesParametric,13,59.4989906899,
./stim/MorphM4_01_orig.jpg,85,,,,,,,,,0,85,85,85,,,,,,,,,,,,,,,-3.984375,-8.994140625,1,0,0,1.84128499031,,,2015_Oct_11_1620,A,facesParametric,13,59.4989906899,
./stim/MorphF2_07_orig.jpg,86,,,,,,,,,0,86,86,86,,,,,,,,,,,,,,,-3.984375,-8.994140625,0,0,1,1.8253390789,,,2015_Oct_11_1620,A,facesParametric,13,59.4989906899,
./stim/MorphM8_02_orig.jpg,87,,,,,,,,,0,87,87,87,,,,,,,,,,,,,,,-3.984375,-8.994140625,1,0,0,4.52410507202,,,2015_Oct_11_1620,A,facesParametric,13,59.4989906899,
./stim/MorphF3_02_orig.jpg,88,,,,,,,,,0,88,88,88,,,,,,,,,,,,,,,-3.984375,-8.994140625,1,0,0,2.21118187904,,,2015_Oct_11_1620,A,facesParametric,13,59.4989906899,
./stim/MorphF8_10_orig.jpg,89,,,,,,,,,0,89,89,89,,,,,,,,,,,,,,,-3.984375,-8.994140625,0,0,1,0.719173908234,,,2015_Oct_11_1620,A,facesParametric,13,59.4989906899,
./stim/MorphM4_04_orig.jpg,90,,,,,,,,,0,90,90,90,,,,,,,,,,,,,,,-3.984375,-8.994140625,1,0,0,1.08713912964,,,2015_Oct_11_1620,A,facesParametric,13,59.4989906899,
./stim/MorphF5_04_orig.jpg,91,,,,,,,,,0,91,91,91,,,,,,,,,,,,,,,-3.984375,-8.994140625,1,0,0,1.49027490616,,,2015_Oct_11_1620,A,facesParametric,13,59.4989906899,
./stim/MorphF1_08_orig.jpg,92,,,,,,,,,0,92,92,92,,,,,,,,,,,,,,,-3.984375,-8.994140625,1,0,0,1.67476296425,,,2015_Oct_11_1620,A,facesParametric,13,59.4989906899,
./stim/MorphM3_09_orig.jpg,93,,,,,,,,,0,93,93,93,,,,,,,,,,,,,,,-3.984375,-8.994140625,0,0,1,1.02048182487,,,2015_Oct_11_1620,A,facesParametric,13,59.4989906899,
./stim/MorphF10_06_orig.jpg,94,,,,,,,,,0,94,94,94,,,,,,,,,,,,,,,-3.984375,-8.994140625,0,0,1,2.2779610157,,,2015_Oct_11_1620,A,facesParametric,13,59.4989906899,
./stim/MorphM8_10_orig.jpg,95,,,,,,,,,0,95,95,95,,,,,,,,,,,,,,,-3.984375,-8.994140625,0,0,1,0.669214963913,,,2015_Oct_11_1620,A,facesParametric,13,59.4989906899,
./stim/MorphM3_00_orig.jpg,96,,,,,,,,,0,96,96,96,,,,,,,,,,,,,,,-3.984375,-8.994140625,1,0,0,1.28928589821,,,2015_Oct_11_1620,A,facesParametric,13,59.4989906899,
./stim/MorphF10_00_orig.jpg,97,,,,,,,,,0,97,97,97,,,,,,,,,,,,,,,-3.984375,-8.994140625,1,0,0,1.27224421501,,,2015_Oct_11_1620,A,facesParametric,13,59.4989906899,
./stim/MorphF1_04_orig.jpg,98,,,,,,,,,0,98,98,98,,,,,,,,,,,,,,,-3.984375,-8.994140625,1,0,0,1.22252202034,,,2015_Oct_11_1620,A,facesParametric,13,59.4989906899,
./stim/MorphM6_01_orig.jpg,99,,,,,,,,,0,99,99,99,,,,,,,,,,,,,,,-3.984375,-8.994140625,1,0,0,1.30363297462,,,2015_Oct_11_1620,A,facesParametric,13,59.4989906899,
./stim/MorphF6_00_orig.jpg,100,,,,,,,,,0,100,100,100,,,,,,,,,,,,,,,-3.984375,-8.994140625,1,0,0,1.02030205727,,,2015_Oct_11_1620,A,facesParametric,13,59.4989906899,
./stim/MorphM4_10_orig.jpg,101,,,,,,,,,0,101,101,101,,,,,,,,,,,,,,,-3.984375,-8.994140625,0,0,1,0.870438098907,,,2015_Oct_11_1620,A,facesParametric,13,59.4989906899,
./stim/MorphM7_02_orig.jpg,102,,,,,,,,,0,102,102,102,,,,,,,,,,,,,,,-3.984375,-8.994140625,1,0,0,3.05002689362,,,2015_Oct_11_1620,A,facesParametric,13,59.4989906899,
./stim/MorphM9_07_orig.jpg,103,,,,,,,,,0,103,103,103,,,,,,,,,,,,,,,-3.984375,-8.994140625,1,0,0,2.93063688278,,,2015_Oct_11_1620,A,facesParametric,13,59.4989906899,
./stim/MorphF2_01_orig.jpg,104,,,,,,,,,0,104,104,104,,,,,,,,,,,,,,,-3.984375,-8.994140625,1,0,0,0.836194992065,,,2015_Oct_11_1620,A,facesParametric,13,59.4989906899,
./stim/MorphF3_03_orig.jpg,105,,,,,,,,,0,105,105,105,,,,,,,,,,,,,,,-3.984375,-8.994140625,1,0,0,2.63002300262,,,2015_Oct_11_1620,A,facesParametric,13,59.4989906899,
./stim/MorphM4_03_orig.jpg,106,,,,,,,,,0,106,106,106,,,,,,,,,,,,,,,-3.984375,-8.994140625,1,0,0,0.937700033188,,,2015_Oct_11_1620,A,facesParametric,13,59.4989906899,
./stim/MorphF9_04_orig.jpg,107,,,,,,,,,0,107,107,107,,,,,,,,,,,,,,,-3.984375,-8.994140625,1,0,0,1.25405597687,,,2015_Oct_11_1620,A,facesParametric,13,59.4989906899,
./stim/MorphM1_00_orig.jpg,108,,,,,,,,,0,108,108,108,,,,,,,,,,,,,,,-3.984375,-8.994140625,1,0,0,1.07103610039,,,2015_Oct_11_1620,A,facesParametric,13,59.4989906899,
./stim/MorphM8_06_orig.jpg,109,,,,,,,,,0,109,109,109,,,,,,,,,,,,,,,-3.984375,-8.994140625,0,0,1,1.55701398849,,,2015_Oct_11_1620,A,facesParametric,13,59.4989906899,
./stim/MorphF8_07_orig.jpg,110,,,,,,,,,0,110,110,110,,,,,,,,,,,,,,,-3.984375,-8.994140625,0,0,1,1.55747509003,,,2015_Oct_11_1620,A,facesParametric,13,59.4989906899,
./stim/MorphF3_08_orig.jpg,111,,,,,,,,,0,111,111,111,,,,,,,,,,,,,,,-3.984375,-8.994140625,0,0,1,2.05884385109,,,2015_Oct_11_1620,A,facesParametric,13,59.4989906899,
./stim/MorphM6_05_orig.jpg,112,,,,,,,,,0,112,112,112,,,,,,,,,,,,,,,-3.984375,-8.994140625,1,0,0,0.987712144852,,,2015_Oct_11_1620,A,facesParametric,13,59.4989906899,
./stim/MorphF9_03_orig.jpg,113,,,,,,,,,0,113,113,113,,,,,,,,,,,,,,,-3.984375,-8.994140625,1,0,0,0.954125165939,,,2015_Oct_11_1620,A,facesParametric,13,59.4989906899,
./stim/MorphM3_08_orig.jpg,114,,,,,,,,,0,114,114,114,,,,,,,,,,,,,,,-3.984375,-8.994140625,0,0,1,2.68083810806,,,2015_Oct_11_1620,A,facesParametric,13,59.4989906899,
./stim/MorphM9_06_orig.jpg,115,,,,,,,,,0,115,115,115,,,,,,,,,,,,,,,-3.984375,-8.994140625,1,0,0,1.22162294388,,,2015_Oct_11_1620,A,facesParametric,13,59.4989906899,
./stim/MorphF1_07_orig.jpg,116,,,,,,,,,0,116,116,116,,,,,,,,,,,,,,,-3.984375,-8.994140625,1,0,0,2.66368699074,,,2015_Oct_11_1620,A,facesParametric,13,59.4989906899,
./stim/MorphM9_01_orig.jpg,117,,,,,,,,,0,117,117,117,,,,,,,,,,,,,,,-3.984375,-8.994140625,1,0,0,0.869986057281,,,2015_Oct_11_1620,A,facesParametric,13,59.4989906899,
./stim/MorphM5_08_orig.jpg,118,,,,,,,,,0,118,118,118,,,,,,,,,,,,,,,-3.984375,-8.994140625,0,0,1,1.10533595085,,,2015_Oct_11_1620,A,facesParametric,13,59.4989906899,
./stim/MorphF6_01_orig.jpg,119,,,,,,,,,0,119,119,119,,,,,,,,,,,,,,,-3.984375,-8.994140625,1,0,0,2.84537196159,,,2015_Oct_11_1620,A,facesParametric,13,59.4989906899,
./stim/MorphM1_01_orig.jpg,120,,,,,,,,,0,120,120,120,,,,,,,,,,,,,,,-3.984375,-8.994140625,1,0,0,1.0210340023,,,2015_Oct_11_1620,A,facesParametric,13,59.4989906899,
./stim/MorphF4_08_orig.jpg,121,,,,,,,,,0,121,121,121,,,,,,,,,,,,,,,-3.984375,-8.994140625,0,0,1,1.1709959507,,,2015_Oct_11_1620,A,facesParametric,13,59.4989906899,
./stim/MorphF9_07_orig.jpg,122,,,,,,,,,0,122,122,122,,,,,,,,,,,,,,,-3.984375,-8.994140625,0,0,1,4.20556497574,,,2015_Oct_11_1620,A,facesParametric,13,59.4989906899,
./stim/MorphM1_10_orig.jpg,123,,,,,,,,,0,123,123,123,,,,,,,,,,,,,,,-3.984375,-8.994140625,0,0,1,1.42287778854,,,2015_Oct_11_1620,A,facesParametric,13,59.4989906899,
./stim/MorphF5_05_orig.jpg,124,,,,,,,,,0,124,124,124,,,,,,,,,,,,,,,-3.984375,-8.994140625,1,0,0,4.97605991364,,,2015_Oct_11_1620,A,facesParametric,13,59.4989906899,
./stim/MorphM2_09_orig.jpg,125,,,,,,,,,0,125,125,125,,,,,,,,,,,,,,,-3.984375,-8.994140625,0,0,1,2.74817490578,,,2015_Oct_11_1620,A,facesParametric,13,59.4989906899,
./stim/MorphF4_06_orig.jpg,126,,,,,,,,,0,126,126,126,,,,,,,,,,,,,,,-3.984375,-8.994140625,1,0,0,2.71209812164,,,2015_Oct_11_1620,A,facesParametric,13,59.4989906899,
./stim/MorphM7_03_orig.jpg,127,,,,,,,,,0,127,127,127,,,,,,,,,,,,,,,-3.984375,-8.994140625,0,0,1,5.06139993668,,,2015_Oct_11_1620,A,facesParametric,13,59.4989906899,
./stim/MorphF3_10_orig.jpg,128,,,,,,,,,0,128,128,128,,,,,,,,,,,,,,,-3.984375,-8.994140625,0,0,1,1.63877606392,,,2015_Oct_11_1620,A,facesParametric,13,59.4989906899,
./stim/MorphF7_08_orig.jpg,129,,,,,,,,,0,129,129,129,,,,,,,,,,,,,,,-3.984375,-8.994140625,0,0,1,0.786294937134,,,2015_Oct_11_1620,A,facesParametric,13,59.4989906899,
./stim/MorphF2_04_orig.jpg,130,,,,,,,,,0,130,130,130,,,,,,,,,,,,,,,-3.984375,-8.994140625,1,0,0,1.59089493752,,,2015_Oct_11_1620,A,facesParametric,13,59.4989906899,
./stim/MorphM1_09_orig.jpg,131,,,,,,,,,0,131,131,131,,,,,,,,,,,,,,,-3.984375,-8.994140625,1,0,0,1.20489811897,,,2015_Oct_11_1620,A,facesParametric,13,59.4989906899,
./stim/MorphM7_10_orig.jpg,132,,,,,,,,,0,132,132,132,,,,,,,,,,,,,,,-3.984375,-8.994140625,0,0,1,0.80287694931,,,2015_Oct_11_1620,A,facesParametric,13,59.4989906899,
./stim/MorphF7_01_orig.jpg,133,,,,,,,,,0,133,133,133,,,,,,,,,,,,,,,-3.984375,-8.994140625,1,0,0,1.10292196274,,,2015_Oct_11_1620,A,facesParametric,13,59.4989906899,
./stim/MorphM4_07_orig.jpg,134,,,,,,,,,0,134,134,134,,,,,,,,,,,,,,,-3.984375,-8.994140625,0,0,1,1.08802700043,,,2015_Oct_11_1620,A,facesParametric,13,59.4989906899,
./stim/MorphM8_03_orig.jpg,135,,,,,,,,,0,135,135,135,,,,,,,,,,,,,,,-3.984375,-8.994140625,1,0,0,1.45590519905,,,2015_Oct_11_1620,A,facesParametric,13,59.4989906899,
./stim/MorphF10_01_orig.jpg,136,,,,,,,,,0,136,136,136,,,,,,,,,,,,,,,-3.984375,-8.994140625,1,0,0,1.45626401901,,,2015_Oct_11_1620,A,facesParametric,13,59.4989906899,
./stim/MorphF9_01_orig.jpg,137,,,,,,,,,0,137,137,137,,,,,,,,,,,,,,,-3.984375,-8.994140625,1,0,0,0.970057964325,,,2015_Oct_11_1620,A,facesParametric,13,59.4989906899,
./stim/MorphM7_01_orig.jpg,138,,,,,,,,,0,138,138,138,,,,,,,,,,,,,,,-3.984375,-8.994140625,0,0,1,2.49493718147,,,2015_Oct_11_1620,A,facesParametric,13,59.4989906899,
./stim/MorphF2_02_orig.jpg,139,,,,,,,,,0,139,139,139,,,,,,,,,,,,,,,-3.984375,-8.994140625,1,0,0,1.05446791649,,,2015_Oct_11_1620,A,facesParametric,13,59.4989906899,
./stim/MorphF8_02_orig.jpg,140,,,,,,,,,0,140,140,140,,,,,,,,,,,,,,,-3.984375,-8.994140625,1,0,0,1.33971190453,,,2015_Oct_11_1620,A,facesParametric,13,59.4989906899,
./stim/MorphM2_04_orig.jpg,141,,,,,,,,,0,141,141,141,,,,,,,,,,,,,,,-3.984375,-8.994140625,1,0,0,1.38978981972,,,2015_Oct_11_1620,A,facesParametric,13,59.4989906899,
./stim/MorphF2_06_orig.jpg,142,,,,,,,,,0,142,142,142,,,,,,,,,,,,,,,-3.984375,-8.994140625,0,0,1,1.70792198181,,,2015_Oct_11_1620,A,facesParametric,13,59.4989906899,
./stim/MorphF7_05_orig.jpg,143,,,,,,,,,0,143,143,143,,,,,,,,,,,,,,,-3.984375,-8.994140625,0,0,1,1.05565905571,,,2015_Oct_11_1620,A,facesParametric,13,59.4989906899,
./stim/MorphM1_04_orig.jpg,144,,,,,,,,,0,144,144,144,,,,,,,,,,,,,,,-3.984375,-8.994140625,1,0,0,1.08648705482,,,2015_Oct_11_1620,A,facesParametric,13,59.4989906899,
./stim/MorphF4_07_orig.jpg,145,,,,,,,,,0,145,145,145,,,,,,,,,,,,,,,-3.984375,-8.994140625,0,0,1,1.2370159626,,,2015_Oct_11_1620,A,facesParametric,13,59.4989906899,
./stim/MorphM10_08_orig.jpg,146,,,,,,,,,0,146,146,146,,,,,,,,,,,,,,,-3.984375,-8.994140625,0,0,1,0.684500932693,,,2015_Oct_11_1620,A,facesParametric,13,59.4989906899,
./stim/MorphF9_05_orig.jpg,147,,,,,,,,,0,147,147,147,,,,,,,,,,,,,,,-3.984375,-8.994140625,1,0,0,1.00327992439,,,2015_Oct_11_1620,A,facesParametric,13,59.4989906899,
./stim/MorphM7_05_orig.jpg,148,,,,,,,,,0,148,148,148,,,,,,,,,,,,,,,-3.984375,-8.994140625,0,0,1,0.920268058777,,,2015_Oct_11_1620,A,facesParametric,13,59.4989906899,
./stim/MorphM5_09_orig.jpg,149,,,,,,,,,0,149,149,149,,,,,,,,,,,,,,,-3.984375,-8.994140625,0,0,1,7.92572021484,,,2015_Oct_11_1620,A,facesParametric,13,59.4989906899,
./stim/MorphF7_02_orig.jpg,150,,,,,,,,,0,150,150,150,,,,,,,,,,,,,,,-3.984375,-8.994140625,1,0,0,4.28943800926,,,2015_Oct_11_1620,A,facesParametric,13,59.4989906899,
./stim/MorphM2_10_orig.jpg,151,,,,,,,,,0,151,151,151,,,,,,,,,,,,,,,-3.984375,-8.994140625,0,0,1,1.25346183777,,,2015_Oct_11_1620,A,facesParametric,13,59.4989906899,
./stim/MorphF5_03_orig.jpg,152,,,,,,,,,0,152,152,152,,,,,,,,,,,,,,,-3.984375,-8.994140625,1,0,0,0.88701915741,,,2015_Oct_11_1620,A,facesParametric,13,59.4989906899,
./stim/MorphF6_06_orig.jpg,153,,,,,,,,,0,153,153,153,,,,,,,,,,,,,,,-3.984375,-8.994140625,0,0,1,3.56886601448,,,2015_Oct_11_1620,A,facesParametric,13,59.4989906899,
./stim/MorphM10_00_orig.jpg,154,,,,,,,,,0,154,154,154,,,,,,,,,,,,,,,-3.984375,-8.994140625,1,0,0,0.868869066238,,,2015_Oct_11_1620,A,facesParametric,13,59.4989906899,
./stim/MorphM8_00_orig.jpg,155,,,,,,,,,0,155,155,155,,,,,,,,,,,,,,,-3.984375,-8.994140625,1,0,0,0.853312015533,,,2015_Oct_11_1620,A,facesParametric,13,59.4989906899,
./stim/MorphM3_07_orig.jpg,156,,,,,,,,,0,156,156,156,,,,,,,,,,,,,,,-3.984375,-8.994140625,0,0,1,2.91505002975,,,2015_Oct_11_1620,A,facesParametric,13,59.4989906899,
./stim/MorphF4_02_orig.jpg,157,,,,,,,,,0,157,157,157,,,,,,,,,,,,,,,-3.984375,-8.994140625,1,0,0,0.7196829319,,,2015_Oct_11_1620,A,facesParametric,13,59.4989906899,
./stim/MorphM10_04_orig.jpg,158,,,,,,,,,0,158,158,158,,,,,,,,,,,,,,,-3.984375,-8.994140625,1,0,0,2.11019301414,,,2015_Oct_11_1620,A,facesParametric,13,59.4989906899,
./stim/MorphM5_10_orig.jpg,159,,,,,,,,,0,159,159,159,,,,,,,,,,,,,,,-3.984375,-8.994140625,0,0,1,5.1945130825,,,2015_Oct_11_1620,A,facesParametric,13,59.4989906899,
./stim/MorphF5_06_orig.jpg,160,,,,,,,,,0,160,160,160,,,,,,,,,,,,,,,-3.984375,-8.994140625,0,0,1,1.20549416542,,,2015_Oct_11_1620,A,facesParametric,13,59.4989906899,
./stim/MorphM4_05_orig.jpg,161,,,,,,,,,0,161,161,161,,,,,,,,,,,,,,,-3.984375,-8.994140625,0,0,1,21.7695920467,,,2015_Oct_11_1620,A,facesParametric,13,59.4989906899,
./stim/MorphF6_09_orig.jpg,162,,,,,,,,,0,162,162,162,,,,,,,,,,,,,,,-3.984375,-8.994140625,0,0,1,2.21041703224,,,2015_Oct_11_1620,A,facesParametric,13,59.4989906899,
./stim/MorphM9_02_orig.jpg,163,,,,,,,,,0,163,163,163,,,,,,,,,,,,,,,-3.984375,-8.994140625,1,0,0,4.23792219162,,,2015_Oct_11_1620,A,facesParametric,13,59.4989906899,
./stim/MorphF7_06_orig.jpg,164,,,,,,,,,0,164,164,164,,,,,,,,,,,,,,,-3.984375,-8.994140625,0,0,1,1.12168192863,,,2015_Oct_11_1620,A,facesParametric,13,59.4989906899,
./stim/MorphM6_00_orig.jpg,165,,,,,,,,,0,165,165,165,,,,,,,,,,,,,,,-3.984375,-8.994140625,1,0,0,1.57378411293,,,2015_Oct_11_1620,A,facesParametric,13,59.4989906899,
./stim/MorphF4_01_orig.jpg,166,,,,,,,,,0,166,166,166,,,,,,,,,,,,,,,-3.984375,-8.994140625,1,0,0,1.69159913063,,,2015_Oct_11_1620,A,facesParametric,13,59.4989906899,
./stim/MorphF8_06_orig.jpg,167,,,,,,,,,0,167,167,167,,,,,,,,,,,,,,,-3.984375,-8.994140625,0,0,1,1.02096605301,,,2015_Oct_11_1620,A,facesParametric,13,59.4989906899,
./stim/MorphF5_01_orig.jpg,168,,,,,,,,,0,168,168,168,,,,,,,,,,,,,,,-3.984375,-8.994140625,1,0,0,2.99903702736,,,2015_Oct_11_1620,A,facesParametric,13,59.4989906899,
./stim/MorphM6_02_orig.jpg,169,,,,,,,,,0,169,169,169,,,,,,,,,,,,,,,-3.984375,-8.994140625,1,0,0,1.23902177811,,,2015_Oct_11_1620,A,facesParametric,13,59.4989906899,
./stim/MorphF9_06_orig.jpg,170,,,,,,,,,0,170,170,170,,,,,,,,,,,,,,,-3.984375,-8.994140625,1,0,0,2.99886107445,,,2015_Oct_11_1620,A,facesParametric,13,59.4989906899,
./stim/MorphF5_07_orig.jpg,171,,,,,,,,,0,171,171,171,,,,,,,,,,,,,,,-3.984375,-8.994140625,0,0,1,1.28885912895,,,2015_Oct_11_1620,A,facesParametric,13,59.4989906899,
./stim/MorphF3_09_orig.jpg,172,,,,,,,,,0,172,172,172,,,,,,,,,,,,,,,-3.984375,-8.994140625,0,0,1,0.785087108612,,,2015_Oct_11_1620,A,facesParametric,13,59.4989906899,
./stim/MorphF7_07_orig.jpg,173,,,,,,,,,0,173,173,173,,,,,,,,,,,,,,,-3.984375,-8.994140625,0,0,1,0.870306968689,,,2015_Oct_11_1620,A,facesParametric,13,59.4989906899,
./stim/MorphM3_01_orig.jpg,174,,,,,,,,,0,174,174,174,,,,,,,,,,,,,,,-3.984375,-8.994140625,1,0,0,1.1218521595,,,2015_Oct_11_1620,A,facesParametric,13,59.4989906899,
./stim/MorphM6_04_orig.jpg,175,,,,,,,,,0,175,175,175,,,,,,,,,,,,,,,-3.984375,-8.994140625,1,0,0,1.27170205116,,,2015_Oct_11_1620,A,facesParametric,13,59.4989906899,
./stim/MorphF2_09_orig.jpg,176,,,,,,,,,0,176,176,176,,,,,,,,,,,,,,,-3.984375,-8.994140625,0,0,1,0.752928972244,,,2015_Oct_11_1620,A,facesParametric,13,59.4989906899,
./stim/MorphF5_10_orig.jpg,177,,,,,,,,,0,177,177,177,,,,,,,,,,,,,,,-3.984375,-8.994140625,0,0,1,0.769859075546,,,2015_Oct_11_1620,A,facesParametric,13,59.4989906899,
./stim/MorphF10_02_orig.jpg,178,,,,,,,,,0,178,178,178,,,,,,,,,,,,,,,-3.984375,-8.994140625,1,0,0,1.12141513824,,,2015_Oct_11_1620,A,facesParametric,13,59.4989906899,
./stim/MorphM7_06_orig.jpg,179,,,,,,,,,0,179,179,179,,,,,,,,,,,,,,,-3.984375,-8.994140625,0,0,1,0.83537197113,,,2015_Oct_11_1620,A,facesParametric,13,59.4989906899,
./stim/MorphM10_06_orig.jpg,180,,,,,,,,,0,180,180,180,,,,,,,,,,,,,,,-3.984375,-8.994140625,0,0,1,1.03774380684,,,2015_Oct_11_1620,A,facesParametric,13,59.4989906899,
./stim/MorphF4_09_orig.jpg,181,,,,,,,,,0,181,181,181,,,,,,,,,,,,,,,-3.984375,-8.994140625,0,0,1,1.03822803497,,,2015_Oct_11_1620,A,facesParametric,13,59.4989906899,
./stim/MorphF3_00_orig.jpg,182,,,,,,,,,0,182,182,182,,,,,,,,,,,,,,,-3.984375,-8.994140625,1,0,0,1.1868751049,,,2015_Oct_11_1620,A,facesParametric,13,59.4989906899,
./stim/MorphM7_08_orig.jpg,183,,,,,,,,,0,183,183,183,,,,,,,,,,,,,,,-3.984375,-8.994140625,0,0,1,0.736032962799,,,2015_Oct_11_1620,A,facesParametric,13,59.4989906899,
./stim/MorphM4_06_orig.jpg,184,,,,,,,,,0,184,184,184,,,,,,,,,,,,,,,-3.984375,-8.994140625,0,0,1,0.902134180069,,,2015_Oct_11_1620,A,facesParametric,13,59.4989906899,
./stim/MorphM1_06_orig.jpg,185,,,,,,,,,0,185,185,185,,,,,,,,,,,,,,,-3.984375,-8.994140625,0,0,1,1.06969213486,,,2015_Oct_11_1620,A,facesParametric,13,59.4989906899,
./stim/MorphF4_04_orig.jpg,186,,,,,,,,,0,186,186,186,,,,,,,,,,,,,,,-3.984375,-8.994140625,1,0,0,1.25552797318,,,2015_Oct_11_1620,A,facesParametric,13,59.4989906899,
./stim/MorphM2_02_orig.jpg,187,,,,,,,,,0,187,187,187,,,,,,,,,,,,,,,-3.984375,-8.994140625,1,0,0,0.920831918716,,,2015_Oct_11_1620,A,facesParametric,13,59.4989906899,
./stim/MorphM10_02_orig.jpg,188,,,,,,,,,0,188,188,188,,,,,,,,,,,,,,,-3.984375,-8.994140625,1,0,0,0.652436971664,,,2015_Oct_11_1620,A,facesParametric,13,59.4989906899,
./stim/MorphM5_04_orig.jpg,189,,,,,,,,,0,189,189,189,,,,,,,,,,,,,,,-3.984375,-8.994140625,0,0,1,4.87559080124,,,2015_Oct_11_1620,A,facesParametric,13,59.4989906899,
./stim/MorphM1_07_orig.jpg,190,,,,,,,,,0,190,190,190,,,,,,,,,,,,,,,-3.984375,-8.994140625,0,0,1,1.15536308289,,,2015_Oct_11_1620,A,facesParametric,13,59.4989906899,
./stim/MorphF8_03_orig.jpg,191,,,,,,,,,0,191,191,191,,,,,,,,,,,,,,,-3.984375,-8.994140625,1,0,0,0.920274972916,,,2015_Oct_11_1620,A,facesParametric,13,59.4989906899,
./stim/MorphM2_06_orig.jpg,192,,,,,,,,,0,192,192,192,,,,,,,,,,,,,,,-3.984375,-8.994140625,1,0,0,0.970315933228,,,2015_Oct_11_1620,A,facesParametric,13,59.4989906899,
./stim/MorphF1_09_orig.jpg,193,,,,,,,,,0,193,193,193,,,,,,,,,,,,,,,-3.984375,-8.994140625,0,0,1,0.903707027435,,,2015_Oct_11_1620,A,facesParametric,13,59.4989906899,
./stim/MorphF9_00_orig.jpg,194,,,,,,,,,0,194,194,194,,,,,,,,,,,,,,,-3.984375,-8.994140625,1,0,0,0.920901060104,,,2015_Oct_11_1620,A,facesParametric,13,59.4989906899,
./stim/MorphM5_00_orig.jpg,195,,,,,,,,,0,195,195,195,,,,,,,,,,,,,,,-3.984375,-8.994140625,1,0,0,4.45560789108,,,2015_Oct_11_1620,A,facesParametric,13,59.4989906899,
./stim/MorphF1_00_orig.jpg,196,,,,,,,,,0,196,196,196,,,,,,,,,,,,,,,-3.984375,-8.994140625,1,0,0,3.33382916451,,,2015_Oct_11_1620,A,facesParametric,13,59.4989906899,
./stim/MorphF6_10_orig.jpg,197,,,,,,,,,0,197,197,197,,,,,,,,,,,,,,,-3.984375,-8.994140625,0,0,1,0.752166032791,,,2015_Oct_11_1620,A,facesParametric,13,59.4989906899,
./stim/MorphF10_10_orig.jpg,198,,,,,,,,,0,198,198,198,,,,,,,,,,,,,,,-3.984375,-8.994140625,0,0,1,1.17195010185,,,2015_Oct_11_1620,A,facesParametric,13,59.4989906899,
./stim/MorphM5_01_orig.jpg,199,,,,,,,,,0,199,199,199,,,,,,,,,,,,,,,-3.984375,-8.994140625,0,0,1,2.77944087982,,,2015_Oct_11_1620,A,facesParametric,13,59.4989906899,
./stim/MorphF2_08_orig.jpg,200,,,,,,,,,0,200,200,200,,,,,,,,,,,,,,,-3.984375,-8.994140625,0,0,1,1.0210750103,,,2015_Oct_11_1620,A,facesParametric,13,59.4989906899,
./stim/MorphF5_00_orig.jpg,201,,,,,,,,,0,201,201,201,,,,,,,,,,,,,,,-3.984375,-8.994140625,1,0,0,2.27789306641,,,2015_Oct_11_1620,A,facesParametric,13,59.4989906899,
./stim/MorphM3_10_orig.jpg,202,,,,,,,,,0,202,202,202,,,,,,,,,,,,,,,-3.984375,-8.994140625,0,0,1,1.12033200264,,,2015_Oct_11_1620,A,facesParametric,13,59.4989906899,
./stim/MorphF10_08_orig.jpg,203,,,,,,,,,0,203,203,203,,,,,,,,,,,,,,,-3.984375,-8.994140625,0,0,1,0.886684894562,,,2015_Oct_11_1620,A,facesParametric,13,59.4989906899,
./stim/MorphM2_00_orig.jpg,204,,,,,,,,,0,204,204,204,,,,,,,,,,,,,,,-3.984375,-8.994140625,1,0,0,0.853646993637,,,2015_Oct_11_1620,A,facesParametric,13,59.4989906899,
./stim/MorphM3_02_orig.jpg,205,,,,,,,,,0,205,205,205,,,,,,,,,,,,,,,-3.984375,-8.994140625,1,0,0,1.12169408798,,,2015_Oct_11_1620,A,facesParametric,13,59.4989906899,
./stim/MorphF6_08_orig.jpg,206,,,,,,,,,0,206,206,206,,,,,,,,,,,,,,,-3.984375,-8.994140625,0,0,1,1.47374105453,,,2015_Oct_11_1620,A,facesParametric,13,59.4989906899,
./stim/MorphM10_05_orig.jpg,207,,,,,,,,,0,207,207,207,,,,,,,,,,,,,,,-3.984375,-8.994140625,0,0,1,2.31137299538,,,2015_Oct_11_1620,A,facesParametric,13,59.4989906899,
./stim/MorphF7_03_orig.jpg,208,,,,,,,,,0,208,208,208,,,,,,,,,,,,,,,-3.984375,-8.994140625,1,0,0,1.42204904556,,,2015_Oct_11_1620,A,facesParametric,13,59.4989906899,
./stim/MorphM8_01_orig.jpg,209,,,,,,,,,0,209,209,209,,,,,,,,,,,,,,,-3.984375,-8.994140625,1,0,0,1.02110505104,,,2015_Oct_11_1620,A,facesParametric,13,59.4989906899,
./stim/MorphM5_02_orig.jpg,210,,,,,,,,,0,210,210,210,,,,,,,,,,,,,,,-3.984375,-8.994140625,1,0,0,17.4625599384,,,2015_Oct_11_1620,A,facesParametric,13,59.4989906899,
./stim/MorphM9_04_orig.jpg,211,,,,,,,,,0,211,211,211,,,,,,,,,,,,,,,-3.984375,-8.994140625,1,0,0,1.02049589157,,,2015_Oct_11_1620,A,facesParametric,13,59.4989906899,
./stim/MorphF2_03_orig.jpg,212,,,,,,,,,0,212,212,212,,,,,,,,,,,,,,,-3.984375,-8.994140625,1,0,0,1.23847603798,,,2015_Oct_11_1620,A,facesParametric,13,59.4989906899,
./stim/MorphM9_08_orig.jpg,213,,,,,,,,,0,213,213,213,,,,,,,,,,,,,,,-3.984375,-8.994140625,0,0,1,0.853572845459,,,2015_Oct_11_1620,A,facesParametric,13,59.4989906899,
./stim/MorphF3_04_orig.jpg,214,,,,,,,,,0,214,214,214,,,,,,,,,,,,,,,-3.984375,-8.994140625,1,0,0,1.25429487228,,,2015_Oct_11_1620,A,facesParametric,13,59.4989906899,
./stim/MorphM9_10_orig.jpg,215,,,,,,,,,0,215,215,215,,,,,,,,,,,,,,,-3.984375,-8.994140625,0,0,1,0.970798969269,,,2015_Oct_11_1620,A,facesParametric,13,59.4989906899,
./stim/MorphM8_04_orig.jpg,216,,,,,,,,,0,216,216,216,,,,,,,,,,,,,,,-3.984375,-8.994140625,1,0,0,0.920839071274,,,2015_Oct_11_1620,A,facesParametric,13,59.4989906899,
./stim/MorphM9_03_orig.jpg,217,,,,,,,,,0,217,217,217,,,,,,,,,,,,,,,-3.984375,-8.994140625,1,0,0,0.918704986572,,,2015_Oct_11_1620,A,facesParametric,13,59.4989906899,
./stim/MorphM1_08_orig.jpg,218,,,,,,,,,0,218,218,218,,,,,,,,,,,,,,,-3.984375,-8.994140625,0,0,1,2.54630708694,,,2015_Oct_11_1620,A,facesParametric,13,59.4989906899,
./stim/MorphF10_05_orig.jpg,219,,,,,,,,,0,219,219,219,,,,,,,,,,,,,,,-3.984375,-8.994140625,0,0,1,0.853123903275,,,2015_Oct_11_1620,A,facesParametric,13,59.4989906899,
