img,num,basicLoop.thisRepN,basicLoop.thisTrialN,basicLoop.thisN,basicLoop.thisIndex,trials.thisRepN,trials.thisTrialN,trials.thisN,trials.thisIndex,trials2.thisRepN,trials2.thisTrialN,trials2.thisN,trials2.thisIndex,key_resp_2.keys,key_resp_2.rt,basicRating1.response,basicRating1.rt,basicRating2.response,basicRating2.rt,basicRating3.response,basicRating3.rt,basicRating4.response,basicRating4.rt,key_resp_3.keys,key_resp_3.rt,key_resp_4.keys,key_resp_4.rt,mouseResp.x,mouseResp.y,mouseResp.leftButton,mouseResp.midButton,mouseResp.rightButton,mouseResp.time,key_resp_5.keys,key_resp_5.rt,key_resp_7.keys,key_resp_7.rt,date,group,expName,participant,frameRate,
,,,,,,,,,,,,,,return,66.545541048,,,,,,,,,,,,,,,,,,,,,,,2015_Nov_01_1250,A,facesParametric,14,59.490129666,
./basicStim/24M_AN_O.jpg,,0,0,0,56,,,,,,,,,,,None,None,ANG,11.673,None,None,None,None,,,,,,,,,,,,,,,2015_Nov_01_1250,A,facesParametric,14,59.490129666,
./basicStim/07F_FE_O.jpg,,0,1,1,30,,,,,,,,,,,None,None,None,None,DIS,8.414,None,None,,,,,,,,,,,,,,,2015_Nov_01_1250,A,facesParametric,14,59.490129666,
./basicStim/21M_SP_O.jpg,,0,2,2,47,,,,,,,,,,,None,None,None,None,SUP,4.348,None,None,,,,,,,,,,,,,,,2015_Nov_01_1250,A,facesParametric,14,59.490129666,
./basicStim/21M_DI_O.jpg,,0,3,3,43,,,,,,,,,,,None,None,None,None,DIS,9.709,None,None,,,,,,,,,,,,,,,2015_Nov_01_1250,A,facesParametric,14,59.490129666,
./basicStim/01F_AN_O.jpg,,0,4,4,0,,,,,,,,,,,None,None,ANG,4.398,None,None,None,None,,,,,,,,,,,,,,,2015_Nov_01_1250,A,facesParametric,14,59.490129666,
./basicStim/24M_NE_C.jpg,,0,5,5,62,,,,,,,,,,,None,None,None,None,None,None,NTR,3.841,,,,,,,,,,,,,,,2015_Nov_01_1250,A,facesParametric,14,59.490129666,
./basicStim/24M_SP_O.jpg,,0,6,6,61,,,,,,,,,,,None,None,None,None,SUP,3.088,None,None,,,,,,,,,,,,,,,2015_Nov_01_1250,A,facesParametric,14,59.490129666,
./basicStim/23M_HA_O.jpg,,0,7,7,52,,,,,,,,,,,HAP,4.63,None,None,None,None,None,None,,,,,,,,,,,,,,,2015_Nov_01_1250,A,facesParametric,14,59.490129666,
./basicStim/34M_NE_C.jpg,,0,8,8,76,,,,,,,,,,,None,None,None,None,None,None,NTR,7.878,,,,,,,,,,,,,,,2015_Nov_01_1250,A,facesParametric,14,59.490129666,
./basicStim/23M_DI_O.jpg,,0,9,9,50,,,,,,,,,,,SAD,4.345,None,None,None,None,None,None,,,,,,,,,,,,,,,2015_Nov_01_1250,A,facesParametric,14,59.490129666,
./basicStim/21M_AN_O.jpg,,0,10,10,42,,,,,,,,,,,None,None,ANG,4.366,None,None,None,None,,,,,,,,,,,,,,,2015_Nov_01_1250,A,facesParametric,14,59.490129666,
./basicStim/03F_FE_O.jpg,,0,11,11,16,,,,,,,,,,,None,None,ANG,1.906,None,None,None,None,,,,,,,,,,,,,,,2015_Nov_01_1250,A,facesParametric,14,59.490129666,
./basicStim/06F_NE_C.jpg,,0,12,12,27,,,,,,,,,,,None,None,None,None,None,None,NTR,8.499,,,,,,,,,,,,,,,2015_Nov_01_1250,A,facesParametric,14,59.490129666,
./basicStim/21M_FE_O.jpg,,0,13,13,44,,,,,,,,,,,None,None,FEA,4.734,None,None,None,None,,,,,,,,,,,,,,,2015_Nov_01_1250,A,facesParametric,14,59.490129666,
./basicStim/03F_HA_O.jpg,,0,14,14,17,,,,,,,,,,,HAP,3.391,None,None,None,None,None,None,,,,,,,,,,,,,,,2015_Nov_01_1250,A,facesParametric,14,59.490129666,
./basicStim/24M_DI_O.jpg,,0,15,15,57,,,,,,,,,,,SAD,5.091,None,None,None,None,None,None,,,,,,,,,,,,,,,2015_Nov_01_1250,A,facesParametric,14,59.490129666,
./basicStim/23M_SA_C.jpg,,0,16,16,53,,,,,,,,,,,SAD,5.693,None,None,None,None,None,None,,,,,,,,,,,,,,,2015_Nov_01_1250,A,facesParametric,14,59.490129666,
./basicStim/02F_SP_O.jpg,,0,17,17,12,,,,,,,,,,,None,None,None,None,SUP,2.903,None,None,,,,,,,,,,,,,,,2015_Nov_01_1250,A,facesParametric,14,59.490129666,
./basicStim/28M_DI_O.jpg,,0,18,18,64,,,,,,,,,,,None,None,None,None,DIS,5.152,None,None,,,,,,,,,,,,,,,2015_Nov_01_1250,A,facesParametric,14,59.490129666,
./basicStim/34M_DI_O.jpg,,0,19,19,71,,,,,,,,,,,None,None,None,None,DIS,1.56,None,None,,,,,,,,,,,,,,,2015_Nov_01_1250,A,facesParametric,14,59.490129666,
./basicStim/06F_SA_C.jpg,,0,20,20,25,,,,,,,,,,,None,None,ANG,10.246,None,None,None,None,,,,,,,,,,,,,,,2015_Nov_01_1250,A,facesParametric,14,59.490129666,
./basicStim/09F_SP_O.jpg,,0,21,21,40,,,,,,,,,,,None,None,None,None,SUP,2.461,None,None,,,,,,,,,,,,,,,2015_Nov_01_1250,A,facesParametric,14,59.490129666,
./basicStim/01F_FE_O.jpg,,0,22,22,2,,,,,,,,,,,None,None,None,None,SUP,4.196,None,None,,,,,,,,,,,,,,,2015_Nov_01_1250,A,facesParametric,14,59.490129666,
./basicStim/06F_HA_O.jpg,,0,23,23,24,,,,,,,,,,,HAP,4.335,None,None,None,None,None,None,,,,,,,,,,,,,,,2015_Nov_01_1250,A,facesParametric,14,59.490129666,
./basicStim/21M_SA_C.jpg,,0,24,24,46,,,,,,,,,,,HAP,3.799,None,None,None,None,None,None,,,,,,,,,,,,,,,2015_Nov_01_1250,A,facesParametric,14,59.490129666,
./basicStim/23M_SP_O.jpg,,0,25,25,54,,,,,,,,,,,None,None,None,None,SUP,2.905,None,None,,,,,,,,,,,,,,,2015_Nov_01_1250,A,facesParametric,14,59.490129666,
./basicStim/34M_SP_O.jpg,,0,26,26,75,,,,,,,,,,,None,None,None,None,SUP,2.632,None,None,,,,,,,,,,,,,,,2015_Nov_01_1250,A,facesParametric,14,59.490129666,
./basicStim/09F_FE_O.jpg,,0,27,27,37,,,,,,,,,,,None,None,None,None,DIS,10.589,None,None,,,,,,,,,,,,,,,2015_Nov_01_1250,A,facesParametric,14,59.490129666,
./basicStim/09F_DI_O.jpg,,0,28,28,36,,,,,,,,,,,None,None,None,None,DIS,1.929,None,None,,,,,,,,,,,,,,,2015_Nov_01_1250,A,facesParametric,14,59.490129666,
./basicStim/03F_AN_O.jpg,,0,29,29,14,,,,,,,,,,,None,None,ANG,8.517,None,None,None,None,,,,,,,,,,,,,,,2015_Nov_01_1250,A,facesParametric,14,59.490129666,
./basicStim/28M_SP_O.jpg,,0,30,30,68,,,,,,,,,,,None,None,None,None,SUP,3.432,None,None,,,,,,,,,,,,,,,2015_Nov_01_1250,A,facesParametric,14,59.490129666,
./basicStim/07F_SA_C.jpg,,0,31,31,32,,,,,,,,,,,SAD,7.58,None,None,None,None,None,None,,,,,,,,,,,,,,,2015_Nov_01_1250,A,facesParametric,14,59.490129666,
./basicStim/03F_NE_C.jpg,,0,32,32,20,,,,,,,,,,,None,None,None,None,None,None,NTR,2.904,,,,,,,,,,,,,,,2015_Nov_01_1250,A,facesParametric,14,59.490129666,
./basicStim/36M_FE_O.jpg,,0,33,33,79,,,,,,,,,,,None,None,None,None,DIS,15.189,None,None,,,,,,,,,,,,,,,2015_Nov_01_1250,A,facesParametric,14,59.490129666,
./basicStim/07F_DI_O.jpg,,0,34,34,29,,,,,,,,,,,None,None,None,None,DIS,0.947,None,None,,,,,,,,,,,,,,,2015_Nov_01_1250,A,facesParametric,14,59.490129666,
./basicStim/34M_HA_O.jpg,,0,35,35,73,,,,,,,,,,,None,None,None,None,DIS,1.324,None,None,,,,,,,,,,,,,,,2015_Nov_01_1250,A,facesParametric,14,59.490129666,
./basicStim/06F_AN_O.jpg,,0,36,36,21,,,,,,,,,,,None,None,ANG,6.757,None,None,None,None,,,,,,,,,,,,,,,2015_Nov_01_1250,A,facesParametric,14,59.490129666,
./basicStim/09F_HA_O.jpg,,0,37,37,38,,,,,,,,,,,HAP,3.103,None,None,None,None,None,None,,,,,,,,,,,,,,,2015_Nov_01_1250,A,facesParametric,14,59.490129666,
./basicStim/23M_AN_O.jpg,,0,38,38,49,,,,,,,,,,,None,None,ANG,6.137,None,None,None,None,,,,,,,,,,,,,,,2015_Nov_01_1250,A,facesParametric,14,59.490129666,
./basicStim/36M_SP_O.jpg,,0,39,39,82,,,,,,,,,,,None,None,None,None,SUP,2.753,None,None,,,,,,,,,,,,,,,2015_Nov_01_1250,A,facesParametric,14,59.490129666,
./basicStim/28M_FE_O.jpg,,0,40,40,65,,,,,,,,,,,None,None,FEA,5.48,None,None,None,None,,,,,,,,,,,,,,,2015_Nov_01_1250,A,facesParametric,14,59.490129666,
./basicStim/28M_AN_O.jpg,,0,41,41,63,,,,,,,,,,,None,None,ANG,6.262,None,None,None,None,,,,,,,,,,,,,,,2015_Nov_01_1250,A,facesParametric,14,59.490129666,
./basicStim/01F_HA_O.jpg,,0,42,42,3,,,,,,,,,,,HAP,3.307,None,None,None,None,None,None,,,,,,,,,,,,,,,2015_Nov_01_1250,A,facesParametric,14,59.490129666,
./basicStim/28M_SA_C.jpg,,0,43,43,67,,,,,,,,,,,None,None,None,None,SUP,4.26,None,None,,,,,,,,,,,,,,,2015_Nov_01_1250,A,facesParametric,14,59.490129666,
./basicStim/23M_NE_C.jpg,,0,44,44,55,,,,,,,,,,,None,None,None,None,None,None,NTR,3.436,,,,,,,,,,,,,,,2015_Nov_01_1250,A,facesParametric,14,59.490129666,
./basicStim/02F_NE_C.jpg,,0,45,45,13,,,,,,,,,,,None,None,None,None,None,None,NTR,2.804,,,,,,,,,,,,,,,2015_Nov_01_1250,A,facesParametric,14,59.490129666,
./basicStim/02F_DI_O.jpg,,0,46,46,8,,,,,,,,,,,None,None,None,None,DIS,3.872,None,None,,,,,,,,,,,,,,,2015_Nov_01_1250,A,facesParametric,14,59.490129666,
./basicStim/06F_FE_O.jpg,,0,47,47,23,,,,,,,,,,,None,None,None,None,SUP,3.098,None,None,,,,,,,,,,,,,,,2015_Nov_01_1250,A,facesParametric,14,59.490129666,
./basicStim/02F_AN_O.jpg,,0,48,48,7,,,,,,,,,,,None,None,ANG,2.073,None,None,None,None,,,,,,,,,,,,,,,2015_Nov_01_1250,A,facesParametric,14,59.490129666,
./basicStim/23M_FE_O.jpg,,0,49,49,51,,,,,,,,,,,None,None,None,None,SUP,4.414,None,None,,,,,,,,,,,,,,,2015_Nov_01_1250,A,facesParametric,14,59.490129666,
./basicStim/03F_DI_O.jpg,,0,50,50,15,,,,,,,,,,,None,None,None,None,DIS,4.539,None,None,,,,,,,,,,,,,,,2015_Nov_01_1250,A,facesParametric,14,59.490129666,
./basicStim/24M_HA_O.jpg,,0,51,51,59,,,,,,,,,,,HAP,1.985,None,None,None,None,None,None,,,,,,,,,,,,,,,2015_Nov_01_1250,A,facesParametric,14,59.490129666,
./basicStim/06F_SP_O.jpg,,0,52,52,26,,,,,,,,,,,None,None,None,None,SUP,2.619,None,None,,,,,,,,,,,,,,,2015_Nov_01_1250,A,facesParametric,14,59.490129666,
./basicStim/01F_DI_O.jpg,,0,53,53,1,,,,,,,,,,,None,None,None,None,DIS,3.737,None,None,,,,,,,,,,,,,,,2015_Nov_01_1250,A,facesParametric,14,59.490129666,
./basicStim/07F_NE_C.jpg,,0,54,54,34,,,,,,,,,,,None,None,None,None,None,None,NTR,4.373,,,,,,,,,,,,,,,2015_Nov_01_1250,A,facesParametric,14,59.490129666,
./basicStim/02F_FE_O.jpg,,0,55,55,9,,,,,,,,,,,None,None,None,None,SUP,3.005,None,None,,,,,,,,,,,,,,,2015_Nov_01_1250,A,facesParametric,14,59.490129666,
./basicStim/02F_SA_C.jpg,,0,56,56,11,,,,,,,,,,,SAD,2.069,None,None,None,None,None,None,,,,,,,,,,,,,,,2015_Nov_01_1250,A,facesParametric,14,59.490129666,
./basicStim/01F_NE_C.jpg,,0,57,57,6,,,,,,,,,,,None,None,None,None,None,None,NTR,2.575,,,,,,,,,,,,,,,2015_Nov_01_1250,A,facesParametric,14,59.490129666,
./basicStim/01F_SA_C.jpg,,0,58,58,4,,,,,,,,,,,SAD,9.06,None,None,None,None,None,None,,,,,,,,,,,,,,,2015_Nov_01_1250,A,facesParametric,14,59.490129666,
./basicStim/36M_NE_C.jpg,,0,59,59,83,,,,,,,,,,,None,None,None,None,None,None,NTR,3.204,,,,,,,,,,,,,,,2015_Nov_01_1250,A,facesParametric,14,59.490129666,
./basicStim/34M_FE_O.jpg,,0,60,60,72,,,,,,,,,,,None,None,None,None,SUP,2.133,None,None,,,,,,,,,,,,,,,2015_Nov_01_1250,A,facesParametric,14,59.490129666,
./basicStim/28M_NE_C.jpg,,0,61,61,69,,,,,,,,,,,None,None,None,None,None,None,NTR,1.873,,,,,,,,,,,,,,,2015_Nov_01_1250,A,facesParametric,14,59.490129666,
./basicStim/01F_SP_O.jpg,,0,62,62,5,,,,,,,,,,,None,None,None,None,SUP,2.365,None,None,,,,,,,,,,,,,,,2015_Nov_01_1250,A,facesParametric,14,59.490129666,
./basicStim/02F_HA_O.jpg,,0,63,63,10,,,,,,,,,,,HAP,2.489,None,None,None,None,None,None,,,,,,,,,,,,,,,2015_Nov_01_1250,A,facesParametric,14,59.490129666,
./basicStim/36M_HA_O.jpg,,0,64,64,80,,,,,,,,,,,HAP,0.843,None,None,None,None,None,None,,,,,,,,,,,,,,,2015_Nov_01_1250,A,facesParametric,14,59.490129666,
./basicStim/07F_HA_O.jpg,,0,65,65,31,,,,,,,,,,,HAP,0.615,None,None,None,None,None,None,,,,,,,,,,,,,,,2015_Nov_01_1250,A,facesParametric,14,59.490129666,
./basicStim/09F_NE_C.jpg,,0,66,66,41,,,,,,,,,,,None,None,None,None,None,None,NTR,2.317,,,,,,,,,,,,,,,2015_Nov_01_1250,A,facesParametric,14,59.490129666,
./basicStim/24M_FE_O.jpg,,0,67,67,58,,,,,,,,,,,None,None,FEA,7.491,None,None,None,None,,,,,,,,,,,,,,,2015_Nov_01_1250,A,facesParametric,14,59.490129666,
./basicStim/07F_AN_O.jpg,,0,68,68,28,,,,,,,,,,,None,None,ANG,3.374,None,None,None,None,,,,,,,,,,,,,,,2015_Nov_01_1250,A,facesParametric,14,59.490129666,
./basicStim/34M_AN_O.jpg,,0,69,69,70,,,,,,,,,,,None,None,ANG,1.412,None,None,None,None,,,,,,,,,,,,,,,2015_Nov_01_1250,A,facesParametric,14,59.490129666,
./basicStim/36M_DI_O.jpg,,0,70,70,78,,,,,,,,,,,None,None,None,None,DIS,3.94,None,None,,,,,,,,,,,,,,,2015_Nov_01_1250,A,facesParametric,14,59.490129666,
./basicStim/24M_SA_C.jpg,,0,71,71,60,,,,,,,,,,,SAD,2.081,None,None,None,None,None,None,,,,,,,,,,,,,,,2015_Nov_01_1250,A,facesParametric,14,59.490129666,
./basicStim/28M_HA_O.jpg,,0,72,72,66,,,,,,,,,,,HAP,2.335,None,None,None,None,None,None,,,,,,,,,,,,,,,2015_Nov_01_1250,A,facesParametric,14,59.490129666,
./basicStim/09F_SA_C.jpg,,0,73,73,39,,,,,,,,,,,SAD,3.325,None,None,None,None,None,None,,,,,,,,,,,,,,,2015_Nov_01_1250,A,facesParametric,14,59.490129666,
./basicStim/09F_AN_O.jpg,,0,74,74,35,,,,,,,,,,,None,None,ANG,2.246,None,None,None,None,,,,,,,,,,,,,,,2015_Nov_01_1250,A,facesParametric,14,59.490129666,
./basicStim/03F_SA_C.jpg,,0,75,75,18,,,,,,,,,,,SAD,1.446,None,None,None,None,None,None,,,,,,,,,,,,,,,2015_Nov_01_1250,A,facesParametric,14,59.490129666,
./basicStim/03F_SP_O.jpg,,0,76,76,19,,,,,,,,,,,HAP,3.275,None,None,None,None,None,None,,,,,,,,,,,,,,,2015_Nov_01_1250,A,facesParametric,14,59.490129666,
./basicStim/07F_SP_O.jpg,,0,77,77,33,,,,,,,,,,,None,None,None,None,SUP,4.141,None,None,,,,,,,,,,,,,,,2015_Nov_01_1250,A,facesParametric,14,59.490129666,
./basicStim/36M_SA_C.jpg,,0,78,78,81,,,,,,,,,,,SAD,5.367,None,None,None,None,None,None,,,,,,,,,,,,,,,2015_Nov_01_1250,A,facesParametric,14,59.490129666,
./basicStim/34M_SA_C.jpg,,0,79,79,74,,,,,,,,,,,SAD,2.954,None,None,None,None,None,None,,,,,,,,,,,,,,,2015_Nov_01_1250,A,facesParametric,14,59.490129666,
./basicStim/36M_AN_O.jpg,,0,80,80,77,,,,,,,,,,,None,None,ANG,2.873,None,None,None,None,,,,,,,,,,,,,,,2015_Nov_01_1250,A,facesParametric,14,59.490129666,
./basicStim/21M_HA_O.jpg,,0,81,81,45,,,,,,,,,,,HAP,3.061,None,None,None,None,None,None,,,,,,,,,,,,,,,2015_Nov_01_1250,A,facesParametric,14,59.490129666,
./basicStim/06F_DI_O.jpg,,0,82,82,22,,,,,,,,,,,None,None,None,None,DIS,4.195,None,None,,,,,,,,,,,,,,,2015_Nov_01_1250,A,facesParametric,14,59.490129666,
./basicStim/21M_NE_C.jpg,,0,83,83,48,,,,,,,,,,,None,None,None,None,None,None,NTR,2.416,,,,,,,,,,,,,,,2015_Nov_01_1250,A,facesParametric,14,59.490129666,
,,,,,,,,,,,,,,,,,,,,,,,,return,181.927928925,,,,,,,,,,,,,2015_Nov_01_1250,A,facesParametric,14,59.490129666,
,,,,,,,,,,,,,,return,1.40658998489,,,,,,,,,,,,,,,,,,,,,,,2015_Nov_01_1250,A,facesParametric,14,59.490129666,
,,,,,,,,,,,,,,,,,,,,,,,,return,25.8938479424,,,,,,,,,,,,,2015_Nov_01_1250,A,facesParametric,14,59.490129666,
,,,,,,,,,,,,,,,,,,,,,,,,,,return,2.51386284828,,,,,,,,,,,2015_Nov_01_1250,A,facesParametric,14,59.490129666,
./stim/MorphF4_06_orig.jpg,0,,,,,0,0,0,0,,,,,,,,,,,,,,,,,,,0.8203125,-11.162109375,0,0,1,6.59231686592,,,,,2015_Nov_01_1250,A,facesParametric,14,59.490129666,
./stim/MorphM8_10_orig.jpg,1,,,,,0,1,1,1,,,,,,,,,,,,,,,,,,,0.8203125,-11.162109375,0,0,1,1.20271897316,,,,,2015_Nov_01_1250,A,facesParametric,14,59.490129666,
./stim/MorphF9_08_orig.jpg,2,,,,,0,2,2,2,,,,,,,,,,,,,,,,,,,0.8203125,-11.162109375,1,0,0,1.80991697311,,,,,2015_Nov_01_1250,A,facesParametric,14,59.490129666,
./stim/MorphM5_01_orig.jpg,3,,,,,0,3,3,3,,,,,,,,,,,,,,,,,,,0.8203125,-11.162109375,1,0,0,6.04871582985,,,,,2015_Nov_01_1250,A,facesParametric,14,59.490129666,
./stim/MorphM1_06_orig.jpg,4,,,,,0,4,4,4,,,,,,,,,,,,,,,,,,,0.8203125,-11.162109375,0,0,1,2.05965900421,,,,,2015_Nov_01_1250,A,facesParametric,14,59.490129666,
./stim/MorphF9_06_orig.jpg,5,,,,,0,5,5,5,,,,,,,,,,,,,,,,,,,0.8203125,-11.162109375,0,0,1,1.42258310318,,,,,2015_Nov_01_1250,A,facesParametric,14,59.490129666,
./stim/MorphF5_04_orig.jpg,6,,,,,0,6,6,6,,,,,,,,,,,,,,,,,,,0.8203125,-11.162109375,0,0,1,2.69656610489,,,,,2015_Nov_01_1250,A,facesParametric,14,59.490129666,
./stim/MorphM5_06_orig.jpg,7,,,,,0,7,7,7,,,,,,,,,,,,,,,,,,,0.8203125,-11.162109375,0,0,1,1.25534009933,,,,,2015_Nov_01_1250,A,facesParametric,14,59.490129666,
./stim/MorphM3_08_orig.jpg,8,,,,,0,8,8,8,,,,,,,,,,,,,,,,,,,0.8203125,-11.162109375,0,0,1,2.5436899662,,,,,2015_Nov_01_1250,A,facesParametric,14,59.490129666,
./stim/MorphF10_08_orig.jpg,9,,,,,0,9,9,9,,,,,,,,,,,,,,,,,,,0.8203125,-11.162109375,1,0,0,5.47865486145,,,,,2015_Nov_01_1250,A,facesParametric,14,59.490129666,
./stim/MorphM5_09_orig.jpg,10,,,,,0,10,10,10,,,,,,,,,,,,,,,,,,,0.8203125,-11.162109375,1,0,0,1.28731989861,,,,,2015_Nov_01_1250,A,facesParametric,14,59.490129666,
./stim/MorphM10_00_orig.jpg,11,,,,,0,11,11,11,,,,,,,,,,,,,,,,,,,0.8203125,-11.162109375,0,0,1,1.20448303223,,,,,2015_Nov_01_1250,A,facesParametric,14,59.490129666,
./stim/MorphF3_08_orig.jpg,12,,,,,0,12,12,12,,,,,,,,,,,,,,,,,,,0.8203125,-11.162109375,1,0,0,2.27843093872,,,,,2015_Nov_01_1250,A,facesParametric,14,59.490129666,
./stim/MorphF8_03_orig.jpg,13,,,,,0,13,13,13,,,,,,,,,,,,,,,,,,,0.8203125,-11.162109375,0,0,1,4.59121394157,,,,,2015_Nov_01_1250,A,facesParametric,14,59.490129666,
./stim/MorphM5_00_orig.jpg,14,,,,,0,14,14,14,,,,,,,,,,,,,,,,,,,0.8203125,-11.162109375,0,0,1,2.56211495399,,,,,2015_Nov_01_1250,A,facesParametric,14,59.490129666,
./stim/MorphF4_08_orig.jpg,15,,,,,0,15,15,15,,,,,,,,,,,,,,,,,,,0.8203125,-11.162109375,1,0,0,2.83126306534,,,,,2015_Nov_01_1250,A,facesParametric,14,59.490129666,
./stim/MorphF2_09_orig.jpg,16,,,,,0,16,16,16,,,,,,,,,,,,,,,,,,,0.8203125,-11.162109375,1,0,0,0.786690950394,,,,,2015_Nov_01_1250,A,facesParametric,14,59.490129666,
./stim/MorphM6_08_orig.jpg,17,,,,,0,17,17,17,,,,,,,,,,,,,,,,,,,0.8203125,-11.162109375,1,0,0,1.15495204926,,,,,2015_Nov_01_1250,A,facesParametric,14,59.490129666,
./stim/MorphM7_01_orig.jpg,18,,,,,0,18,18,18,,,,,,,,,,,,,,,,,,,0.8203125,-11.162109375,0,0,1,1.08817386627,,,,,2015_Nov_01_1250,A,facesParametric,14,59.490129666,
./stim/MorphM8_08_orig.jpg,19,,,,,0,19,19,19,,,,,,,,,,,,,,,,,,,0.8203125,-11.162109375,1,0,0,1.28899598122,,,,,2015_Nov_01_1250,A,facesParametric,14,59.490129666,
./stim/MorphF10_07_orig.jpg,20,,,,,0,20,20,20,,,,,,,,,,,,,,,,,,,0.8203125,-11.162109375,1,0,0,1.07142615318,,,,,2015_Nov_01_1250,A,facesParametric,14,59.490129666,
./stim/MorphM1_08_orig.jpg,21,,,,,0,21,21,21,,,,,,,,,,,,,,,,,,,0.8203125,-11.162109375,1,0,0,3.16641998291,,,,,2015_Nov_01_1250,A,facesParametric,14,59.490129666,
./stim/MorphM2_08_orig.jpg,22,,,,,0,22,22,22,,,,,,,,,,,,,,,,,,,0.8203125,-11.162109375,1,0,0,0.920513868332,,,,,2015_Nov_01_1250,A,facesParametric,14,59.490129666,
./stim/MorphF6_09_orig.jpg,23,,,,,0,23,23,23,,,,,,,,,,,,,,,,,,,0.8203125,-11.162109375,1,0,0,2.728703022,,,,,2015_Nov_01_1250,A,facesParametric,14,59.490129666,
./stim/MorphF9_04_orig.jpg,24,,,,,0,24,24,24,,,,,,,,,,,,,,,,,,,0.8203125,-11.162109375,0,0,1,1.02018809319,,,,,2015_Nov_01_1250,A,facesParametric,14,59.490129666,
./stim/MorphM10_02_orig.jpg,25,,,,,0,25,25,25,,,,,,,,,,,,,,,,,,,0.8203125,-11.162109375,1,0,0,0.987858772278,,,,,2015_Nov_01_1250,A,facesParametric,14,59.490129666,
./stim/MorphM2_03_orig.jpg,26,,,,,0,26,26,26,,,,,,,,,,,,,,,,,,,0.8203125,-11.162109375,0,0,1,1.00438189507,,,,,2015_Nov_01_1250,A,facesParametric,14,59.490129666,
./stim/MorphF1_07_orig.jpg,27,,,,,0,27,27,27,,,,,,,,,,,,,,,,,,,0.8203125,-11.162109375,0,0,1,1.06869006157,,,,,2015_Nov_01_1250,A,facesParametric,14,59.490129666,
./stim/MorphF7_07_orig.jpg,28,,,,,0,28,28,28,,,,,,,,,,,,,,,,,,,0.8203125,-11.162109375,1,0,0,1.03798103333,,,,,2015_Nov_01_1250,A,facesParametric,14,59.490129666,
./stim/MorphF2_08_orig.jpg,29,,,,,0,29,29,29,,,,,,,,,,,,,,,,,,,0.8203125,-11.162109375,1,0,0,1.01944303513,,,,,2015_Nov_01_1250,A,facesParametric,14,59.490129666,
./stim/MorphM10_01_orig.jpg,30,,,,,0,30,30,30,,,,,,,,,,,,,,,,,,,0.8203125,-11.162109375,0,0,1,3.13286185265,,,,,2015_Nov_01_1250,A,facesParametric,14,59.490129666,
./stim/MorphM4_04_orig.jpg,31,,,,,0,31,31,31,,,,,,,,,,,,,,,,,,,0.8203125,-11.162109375,1,0,0,1.60739898682,,,,,2015_Nov_01_1250,A,facesParametric,14,59.490129666,
./stim/MorphF9_03_orig.jpg,32,,,,,0,32,32,32,,,,,,,,,,,,,,,,,,,0.8203125,-11.162109375,0,0,1,0.953753948212,,,,,2015_Nov_01_1250,A,facesParametric,14,59.490129666,
./stim/MorphF1_05_orig.jpg,33,,,,,0,33,33,33,,,,,,,,,,,,,,,,,,,0.8203125,-11.162109375,0,0,1,1.37420296669,,,,,2015_Nov_01_1250,A,facesParametric,14,59.490129666,
./stim/MorphM1_05_orig.jpg,34,,,,,0,34,34,34,,,,,,,,,,,,,,,,,,,0.8203125,-11.162109375,0,0,1,1.42076206207,,,,,2015_Nov_01_1250,A,facesParametric,14,59.490129666,
./stim/MorphF3_01_orig.jpg,35,,,,,0,35,35,35,,,,,,,,,,,,,,,,,,,0.8203125,-11.162109375,0,0,1,1.13778996468,,,,,2015_Nov_01_1250,A,facesParametric,14,59.490129666,
./stim/MorphF4_10_orig.jpg,36,,,,,0,36,36,36,,,,,,,,,,,,,,,,,,,0.8203125,-11.162109375,1,0,0,0.952963113785,,,,,2015_Nov_01_1250,A,facesParametric,14,59.490129666,
./stim/MorphM1_04_orig.jpg,37,,,,,0,37,37,37,,,,,,,,,,,,,,,,,,,0.8203125,-11.162109375,0,0,1,1.540984869,,,,,2015_Nov_01_1250,A,facesParametric,14,59.490129666,
./stim/MorphM4_00_orig.jpg,38,,,,,0,38,38,38,,,,,,,,,,,,,,,,,,,0.8203125,-11.162109375,0,0,1,1.52396917343,,,,,2015_Nov_01_1250,A,facesParametric,14,59.490129666,
./stim/MorphF9_05_orig.jpg,39,,,,,0,39,39,39,,,,,,,,,,,,,,,,,,,0.8203125,-11.162109375,0,0,1,1.80831313133,,,,,2015_Nov_01_1250,A,facesParametric,14,59.490129666,
./stim/MorphF2_07_orig.jpg,40,,,,,0,40,40,40,,,,,,,,,,,,,,,,,,,0.8203125,-11.162109375,1,0,0,0.902253866196,,,,,2015_Nov_01_1250,A,facesParametric,14,59.490129666,
./stim/MorphM3_10_orig.jpg,41,,,,,0,41,41,41,,,,,,,,,,,,,,,,,,,0.8203125,-11.162109375,1,0,0,1.07136178017,,,,,2015_Nov_01_1250,A,facesParametric,14,59.490129666,
./stim/MorphM1_00_orig.jpg,42,,,,,0,42,42,42,,,,,,,,,,,,,,,,,,,0.8203125,-11.162109375,0,0,1,0.920778989792,,,,,2015_Nov_01_1250,A,facesParametric,14,59.490129666,
./stim/MorphF10_10_orig.jpg,43,,,,,0,43,43,43,,,,,,,,,,,,,,,,,,,0.8203125,-11.162109375,1,0,0,0.936684131622,,,,,2015_Nov_01_1250,A,facesParametric,14,59.490129666,
./stim/MorphF9_00_orig.jpg,44,,,,,0,44,44,44,,,,,,,,,,,,,,,,,,,0.8203125,-11.162109375,0,0,1,1.1055829525,,,,,2015_Nov_01_1250,A,facesParametric,14,59.490129666,
./stim/MorphM9_09_orig.jpg,45,,,,,0,45,45,45,,,,,,,,,,,,,,,,,,,0.8203125,-11.162109375,1,0,0,0.919632911682,,,,,2015_Nov_01_1250,A,facesParametric,14,59.490129666,
./stim/MorphM10_08_orig.jpg,46,,,,,0,46,46,46,,,,,,,,,,,,,,,,,,,0.8203125,-11.162109375,1,0,0,0.970741987228,,,,,2015_Nov_01_1250,A,facesParametric,14,59.490129666,
./stim/MorphF8_02_orig.jpg,47,,,,,0,47,47,47,,,,,,,,,,,,,,,,,,,0.8203125,-11.162109375,0,0,1,2.09391283989,,,,,2015_Nov_01_1250,A,facesParametric,14,59.490129666,
./stim/MorphM9_00_orig.jpg,48,,,,,0,48,48,48,,,,,,,,,,,,,,,,,,,0.8203125,-11.162109375,0,0,1,1.1045191288,,,,,2015_Nov_01_1250,A,facesParametric,14,59.490129666,
./stim/MorphF4_09_orig.jpg,49,,,,,0,49,49,49,,,,,,,,,,,,,,,,,,,0.8203125,-11.162109375,1,0,0,0.887212991714,,,,,2015_Nov_01_1250,A,facesParametric,14,59.490129666,
./stim/MorphF9_07_orig.jpg,50,,,,,0,50,50,50,,,,,,,,,,,,,,,,,,,0.8203125,-11.162109375,0,0,1,1.59105801582,,,,,2015_Nov_01_1250,A,facesParametric,14,59.490129666,
./stim/MorphM9_07_orig.jpg,51,,,,,0,51,51,51,,,,,,,,,,,,,,,,,,,0.8203125,-11.162109375,1,0,0,1.03787207603,,,,,2015_Nov_01_1250,A,facesParametric,14,59.490129666,
./stim/MorphM3_04_orig.jpg,52,,,,,0,52,52,52,,,,,,,,,,,,,,,,,,,0.8203125,-11.162109375,1,0,0,2.26164603233,,,,,2015_Nov_01_1250,A,facesParametric,14,59.490129666,
./stim/MorphM9_08_orig.jpg,53,,,,,0,53,53,53,,,,,,,,,,,,,,,,,,,0.8203125,-11.162109375,1,0,0,1.7579908371,,,,,2015_Nov_01_1250,A,facesParametric,14,59.490129666,
./stim/MorphM6_09_orig.jpg,54,,,,,0,54,54,54,,,,,,,,,,,,,,,,,,,0.8203125,-11.162109375,1,0,0,1.33774089813,,,,,2015_Nov_01_1250,A,facesParametric,14,59.490129666,
./stim/MorphF2_04_orig.jpg,55,,,,,0,55,55,55,,,,,,,,,,,,,,,,,,,0.8203125,-11.162109375,1,0,0,1.30546712875,,,,,2015_Nov_01_1250,A,facesParametric,14,59.490129666,
./stim/MorphF8_04_orig.jpg,56,,,,,0,56,56,56,,,,,,,,,,,,,,,,,,,0.8203125,-11.162109375,0,0,1,1.40489983559,,,,,2015_Nov_01_1250,A,facesParametric,14,59.490129666,
./stim/MorphM5_07_orig.jpg,57,,,,,0,57,57,57,,,,,,,,,,,,,,,,,,,0.8203125,-11.162109375,1,0,0,3.24984288216,,,,,2015_Nov_01_1250,A,facesParametric,14,59.490129666,
./stim/MorphF5_10_orig.jpg,58,,,,,0,58,58,58,,,,,,,,,,,,,,,,,,,0.8203125,-11.162109375,1,0,0,0.969421863556,,,,,2015_Nov_01_1250,A,facesParametric,14,59.490129666,
./stim/MorphF1_00_orig.jpg,59,,,,,0,59,59,59,,,,,,,,,,,,,,,,,,,0.8203125,-11.162109375,0,0,1,0.935984134674,,,,,2015_Nov_01_1250,A,facesParametric,14,59.490129666,
./stim/MorphM10_10_orig.jpg,60,,,,,0,60,60,60,,,,,,,,,,,,,,,,,,,0.8203125,-11.162109375,1,0,0,0.802994012833,,,,,2015_Nov_01_1250,A,facesParametric,14,59.490129666,
./stim/MorphF3_05_orig.jpg,61,,,,,0,61,61,61,,,,,,,,,,,,,,,,,,,0.8203125,-11.162109375,0,0,1,1.30555891991,,,,,2015_Nov_01_1250,A,facesParametric,14,59.490129666,
./stim/MorphF4_02_orig.jpg,62,,,,,0,62,62,62,,,,,,,,,,,,,,,,,,,0.8203125,-11.162109375,0,0,1,1.50720906258,,,,,2015_Nov_01_1250,A,facesParametric,14,59.490129666,
./stim/MorphM5_03_orig.jpg,63,,,,,0,63,63,63,,,,,,,,,,,,,,,,,,,0.8203125,-11.162109375,0,0,1,2.12696290016,,,,,2015_Nov_01_1250,A,facesParametric,14,59.490129666,
./stim/MorphF8_08_orig.jpg,64,,,,,0,64,64,64,,,,,,,,,,,,,,,,,,,0.8203125,-11.162109375,1,0,0,0.853365898132,,,,,2015_Nov_01_1250,A,facesParametric,14,59.490129666,
./stim/MorphM2_02_orig.jpg,65,,,,,0,65,65,65,,,,,,,,,,,,,,,,,,,0.8203125,-11.162109375,1,0,0,0.753104925156,,,,,2015_Nov_01_1250,A,facesParametric,14,59.490129666,
./stim/MorphF2_02_orig.jpg,66,,,,,0,66,66,66,,,,,,,,,,,,,,,,,,,0.8203125,-11.162109375,1,0,0,1.85794019699,,,,,2015_Nov_01_1250,A,facesParametric,14,59.490129666,
./stim/MorphF4_04_orig.jpg,67,,,,,0,67,67,67,,,,,,,,,,,,,,,,,,,0.8203125,-11.162109375,0,0,1,1.01879000664,,,,,2015_Nov_01_1250,A,facesParametric,14,59.490129666,
./stim/MorphF1_03_orig.jpg,68,,,,,0,68,68,68,,,,,,,,,,,,,,,,,,,0.8203125,-11.162109375,0,0,1,1.07141900063,,,,,2015_Nov_01_1250,A,facesParametric,14,59.490129666,
./stim/MorphF9_10_orig.jpg,69,,,,,0,69,69,69,,,,,,,,,,,,,,,,,,,0.8203125,-11.162109375,1,0,0,0.921403169632,,,,,2015_Nov_01_1250,A,facesParametric,14,59.490129666,
./stim/MorphM8_04_orig.jpg,70,,,,,0,70,70,70,,,,,,,,,,,,,,,,,,,0.8203125,-11.162109375,1,0,0,3.13224387169,,,,,2015_Nov_01_1250,A,facesParametric,14,59.490129666,
./stim/MorphF6_08_orig.jpg,71,,,,,0,71,71,71,,,,,,,,,,,,,,,,,,,0.8203125,-11.162109375,1,0,0,1.20520186424,,,,,2015_Nov_01_1250,A,facesParametric,14,59.490129666,
./stim/MorphF8_10_orig.jpg,72,,,,,0,72,72,72,,,,,,,,,,,,,,,,,,,0.8203125,-11.162109375,1,0,0,0.786288022995,,,,,2015_Nov_01_1250,A,facesParametric,14,59.490129666,
./stim/MorphF2_10_orig.jpg,73,,,,,0,73,73,73,,,,,,,,,,,,,,,,,,,0.8203125,-11.162109375,1,0,0,0.752989053726,,,,,2015_Nov_01_1250,A,facesParametric,14,59.490129666,
./stim/MorphM3_06_orig.jpg,74,,,,,0,74,74,74,,,,,,,,,,,,,,,,,,,0.8203125,-11.162109375,1,0,0,3.53438186646,,,,,2015_Nov_01_1250,A,facesParametric,14,59.490129666,
./stim/MorphM9_03_orig.jpg,75,,,,,0,75,75,75,,,,,,,,,,,,,,,,,,,0.8203125,-11.162109375,0,0,1,2.27573299408,,,,,2015_Nov_01_1250,A,facesParametric,14,59.490129666,
./stim/MorphM5_04_orig.jpg,76,,,,,0,76,76,76,,,,,,,,,,,,,,,,,,,0.8203125,-11.162109375,1,0,0,1.64161896706,,,,,2015_Nov_01_1250,A,facesParametric,14,59.490129666,
./stim/MorphF8_01_orig.jpg,77,,,,,0,77,77,77,,,,,,,,,,,,,,,,,,,0.8203125,-11.162109375,0,0,1,0.953271865845,,,,,2015_Nov_01_1250,A,facesParametric,14,59.490129666,
./stim/MorphF7_03_orig.jpg,78,,,,,0,78,78,78,,,,,,,,,,,,,,,,,,,0.8203125,-11.162109375,0,0,1,1.7922949791,,,,,2015_Nov_01_1250,A,facesParametric,14,59.490129666,
./stim/MorphM8_07_orig.jpg,79,,,,,0,79,79,79,,,,,,,,,,,,,,,,,,,0.8203125,-11.162109375,1,0,0,0.870038986206,,,,,2015_Nov_01_1250,A,facesParametric,14,59.490129666,
./stim/MorphF2_03_orig.jpg,80,,,,,0,80,80,80,,,,,,,,,,,,,,,,,,,0.8203125,-11.162109375,0,0,1,0.904607057571,,,,,2015_Nov_01_1250,A,facesParametric,14,59.490129666,
./stim/MorphM9_06_orig.jpg,81,,,,,0,81,81,81,,,,,,,,,,,,,,,,,,,0.8203125,-11.162109375,0,0,1,1.05236196518,,,,,2015_Nov_01_1250,A,facesParametric,14,59.490129666,
./stim/MorphM2_06_orig.jpg,82,,,,,0,82,82,82,,,,,,,,,,,,,,,,,,,0.8203125,-11.162109375,0,0,1,0.870640993118,,,,,2015_Nov_01_1250,A,facesParametric,14,59.490129666,
./stim/MorphM6_04_orig.jpg,83,,,,,0,83,83,83,,,,,,,,,,,,,,,,,,,0.8203125,-11.162109375,0,0,1,0.852880954742,,,,,2015_Nov_01_1250,A,facesParametric,14,59.490129666,
./stim/MorphM9_05_orig.jpg,84,,,,,0,84,84,84,,,,,,,,,,,,,,,,,,,0.8203125,-11.162109375,0,0,1,1.65861296654,,,,,2015_Nov_01_1250,A,facesParametric,14,59.490129666,
./stim/MorphM7_09_orig.jpg,85,,,,,0,85,85,85,,,,,,,,,,,,,,,,,,,0.8203125,-11.162109375,1,0,0,1.11953306198,,,,,2015_Nov_01_1250,A,facesParametric,14,59.490129666,
./stim/MorphM5_05_orig.jpg,86,,,,,0,86,86,86,,,,,,,,,,,,,,,,,,,0.8203125,-11.162109375,0,0,1,1.48908185959,,,,,2015_Nov_01_1250,A,facesParametric,14,59.490129666,
./stim/MorphF5_02_orig.jpg,87,,,,,0,87,87,87,,,,,,,,,,,,,,,,,,,0.8203125,-11.162109375,0,0,1,1.10511612892,,,,,2015_Nov_01_1250,A,facesParametric,14,59.490129666,
./stim/MorphM4_07_orig.jpg,88,,,,,0,88,88,88,,,,,,,,,,,,,,,,,,,0.8203125,-11.162109375,1,0,0,1.40652918816,,,,,2015_Nov_01_1250,A,facesParametric,14,59.490129666,
./stim/MorphM9_10_orig.jpg,89,,,,,0,89,89,89,,,,,,,,,,,,,,,,,,,0.8203125,-11.162109375,1,0,0,0.736246824265,,,,,2015_Nov_01_1250,A,facesParametric,14,59.490129666,
./stim/MorphM3_01_orig.jpg,90,,,,,0,90,90,90,,,,,,,,,,,,,,,,,,,0.8203125,-11.162109375,0,0,1,1.00411987305,,,,,2015_Nov_01_1250,A,facesParametric,14,59.490129666,
./stim/MorphF8_07_orig.jpg,91,,,,,0,91,91,91,,,,,,,,,,,,,,,,,,,0.8203125,-11.162109375,1,0,0,3.92017817497,,,,,2015_Nov_01_1250,A,facesParametric,14,59.490129666,
./stim/MorphF5_01_orig.jpg,92,,,,,0,92,92,92,,,,,,,,,,,,,,,,,,,0.8203125,-11.162109375,0,0,1,0.869138002396,,,,,2015_Nov_01_1250,A,facesParametric,14,59.490129666,
./stim/MorphM4_05_orig.jpg,93,,,,,0,93,93,93,,,,,,,,,,,,,,,,,,,0.8203125,-11.162109375,1,0,0,1.37297296524,,,,,2015_Nov_01_1250,A,facesParametric,14,59.490129666,
./stim/MorphM6_07_orig.jpg,94,,,,,0,94,94,94,,,,,,,,,,,,,,,,,,,0.8203125,-11.162109375,1,0,0,2.27790999413,,,,,2015_Nov_01_1250,A,facesParametric,14,59.490129666,
./stim/MorphM4_09_orig.jpg,95,,,,,0,95,95,95,,,,,,,,,,,,,,,,,,,0.8203125,-11.162109375,1,0,0,0.820349931717,,,,,2015_Nov_01_1250,A,facesParametric,14,59.490129666,
./stim/MorphM7_10_orig.jpg,96,,,,,0,96,96,96,,,,,,,,,,,,,,,,,,,0.8203125,-11.162109375,1,0,0,0.770008087158,,,,,2015_Nov_01_1250,A,facesParametric,14,59.490129666,
./stim/MorphF2_00_orig.jpg,97,,,,,0,97,97,97,,,,,,,,,,,,,,,,,,,0.8203125,-11.162109375,0,0,1,1.02199816704,,,,,2015_Nov_01_1250,A,facesParametric,14,59.490129666,
./stim/MorphM3_03_orig.jpg,98,,,,,0,98,98,98,,,,,,,,,,,,,,,,,,,0.8203125,-11.162109375,0,0,1,1.42265200615,,,,,2015_Nov_01_1250,A,facesParametric,14,59.490129666,
./stim/MorphF5_07_orig.jpg,99,,,,,0,99,99,99,,,,,,,,,,,,,,,,,,,0.8203125,-11.162109375,1,0,0,1.12233805656,,,,,2015_Nov_01_1250,A,facesParametric,14,59.490129666,
./stim/MorphF7_06_orig.jpg,100,,,,,0,100,100,100,,,,,,,,,,,,,,,,,,,0.8203125,-11.162109375,1,0,0,1.55761408806,,,,,2015_Nov_01_1250,A,facesParametric,14,59.490129666,
./stim/MorphF1_10_orig.jpg,101,,,,,0,101,101,101,,,,,,,,,,,,,,,,,,,0.8203125,-11.162109375,1,0,0,1.85837483406,,,,,2015_Nov_01_1250,A,facesParametric,14,59.490129666,
./stim/MorphM10_04_orig.jpg,102,,,,,0,102,102,102,,,,,,,,,,,,,,,,,,,0.8203125,-11.162109375,1,0,0,0.718664169312,,,,,2015_Nov_01_1250,A,facesParametric,14,59.490129666,
./stim/MorphF10_05_orig.jpg,103,,,,,0,103,103,103,,,,,,,,,,,,,,,,,,,0.8203125,-11.162109375,1,0,0,0.801781892776,,,,,2015_Nov_01_1250,A,facesParametric,14,59.490129666,
./stim/MorphF5_09_orig.jpg,104,,,,,0,104,104,104,,,,,,,,,,,,,,,,,,,0.8203125,-11.162109375,1,0,0,0.718966960907,,,,,2015_Nov_01_1250,A,facesParametric,14,59.490129666,
./stim/MorphM2_05_orig.jpg,105,,,,,0,105,105,105,,,,,,,,,,,,,,,,,,,0.8203125,-11.162109375,0,0,1,1.64152216911,,,,,2015_Nov_01_1250,A,facesParametric,14,59.490129666,
./stim/MorphM8_06_orig.jpg,106,,,,,0,106,106,106,,,,,,,,,,,,,,,,,,,0.8203125,-11.162109375,1,0,0,2.1108520031,,,,,2015_Nov_01_1250,A,facesParametric,14,59.490129666,
./stim/MorphF9_09_orig.jpg,107,,,,,0,107,107,107,,,,,,,,,,,,,,,,,,,0.8203125,-11.162109375,1,0,0,2.84828615189,,,,,2015_Nov_01_1250,A,facesParametric,14,59.490129666,
./stim/MorphM1_10_orig.jpg,108,,,,,0,108,108,108,,,,,,,,,,,,,,,,,,,0.8203125,-11.162109375,1,0,0,0.853877067566,,,,,2015_Nov_01_1250,A,facesParametric,14,59.490129666,
./stim/MorphF3_07_orig.jpg,109,,,,,0,109,109,109,,,,,,,,,,,,,,,,,,,0.8203125,-11.162109375,1,0,0,0.937772989273,,,,,2015_Nov_01_1250,A,facesParametric,14,59.490129666,
./stim/MorphM1_01_orig.jpg,110,,,,,0,110,110,110,,,,,,,,,,,,,,,,,,,0.8203125,-11.162109375,1,0,0,1.7758231163,,,,,2015_Nov_01_1250,A,facesParametric,14,59.490129666,
./stim/MorphM2_04_orig.jpg,111,,,,,0,111,111,111,,,,,,,,,,,,,,,,,,,0.8203125,-11.162109375,0,0,1,9.55125999451,,,,,2015_Nov_01_1250,A,facesParametric,14,59.490129666,
./stim/MorphF5_03_orig.jpg,112,,,,,0,112,112,112,,,,,,,,,,,,,,,,,,,0.8203125,-11.162109375,0,0,1,1.07177710533,,,,,2015_Nov_01_1250,A,facesParametric,14,59.490129666,
./stim/MorphF1_09_orig.jpg,113,,,,,0,113,113,113,,,,,,,,,,,,,,,,,,,0.8203125,-11.162109375,0,0,1,0.767205953598,,,,,2015_Nov_01_1250,A,facesParametric,14,59.490129666,
./stim/MorphM4_03_orig.jpg,114,,,,,0,114,114,114,,,,,,,,,,,,,,,,,,,0.8203125,-11.162109375,0,0,1,0.75254201889,,,,,2015_Nov_01_1250,A,facesParametric,14,59.490129666,
./stim/MorphM1_07_orig.jpg,115,,,,,0,115,115,115,,,,,,,,,,,,,,,,,,,0.8203125,-11.162109375,1,0,0,1.39109897614,,,,,2015_Nov_01_1250,A,facesParametric,14,59.490129666,
./stim/MorphM8_01_orig.jpg,116,,,,,0,116,116,116,,,,,,,,,,,,,,,,,,,0.8203125,-11.162109375,0,0,1,1.67346382141,,,,,2015_Nov_01_1250,A,facesParametric,14,59.490129666,
./stim/MorphM4_02_orig.jpg,117,,,,,0,117,117,117,,,,,,,,,,,,,,,,,,,0.8203125,-11.162109375,0,0,1,1.48882818222,,,,,2015_Nov_01_1250,A,facesParametric,14,59.490129666,
./stim/MorphF5_06_orig.jpg,118,,,,,0,118,118,118,,,,,,,,,,,,,,,,,,,0.8203125,-11.162109375,1,0,0,1.48935389519,,,,,2015_Nov_01_1250,A,facesParametric,14,59.490129666,
./stim/MorphF9_02_orig.jpg,119,,,,,0,119,119,119,,,,,,,,,,,,,,,,,,,0.8203125,-11.162109375,0,0,1,1.07083296776,,,,,2015_Nov_01_1250,A,facesParametric,14,59.490129666,
./stim/MorphM1_09_orig.jpg,120,,,,,0,120,120,120,,,,,,,,,,,,,,,,,,,3.193359375,-10.6640625,1,0,0,10.924530983,,,,,2015_Nov_01_1250,A,facesParametric,14,59.490129666,
./stim/MorphF1_06_orig.jpg,121,,,,,0,121,121,121,,,,,,,,,,,,,,,,,,,5.126953125,-13.154296875,0,0,1,2.88078093529,,,,,2015_Nov_01_1250,A,facesParametric,14,59.490129666,
./stim/MorphM5_08_orig.jpg,122,,,,,0,122,122,122,,,,,,,,,,,,,,,,,,,5.126953125,-13.154296875,0,0,1,1.37386918068,,,,,2015_Nov_01_1250,A,facesParametric,14,59.490129666,
./stim/MorphF9_01_orig.jpg,123,,,,,0,123,123,123,,,,,,,,,,,,,,,,,,,5.126953125,-13.154296875,0,0,1,1.07023191452,,,,,2015_Nov_01_1250,A,facesParametric,14,59.490129666,
./stim/MorphM6_00_orig.jpg,124,,,,,0,124,124,124,,,,,,,,,,,,,,,,,,,5.126953125,-13.154296875,0,0,1,1.00477409363,,,,,2015_Nov_01_1250,A,facesParametric,14,59.490129666,
./stim/MorphM1_03_orig.jpg,125,,,,,0,125,125,125,,,,,,,,,,,,,,,,,,,5.126953125,-13.154296875,0,0,1,1.25580906868,,,,,2015_Nov_01_1250,A,facesParametric,14,59.490129666,
./stim/MorphM7_02_orig.jpg,126,,,,,0,126,126,126,,,,,,,,,,,,,,,,,,,5.126953125,-13.154296875,1,0,0,1.48889994621,,,,,2015_Nov_01_1250,A,facesParametric,14,59.490129666,
./stim/MorphM8_05_orig.jpg,127,,,,,0,127,127,127,,,,,,,,,,,,,,,,,,,5.126953125,-13.154296875,1,0,0,1.49038791656,,,,,2015_Nov_01_1250,A,facesParametric,14,59.490129666,
./stim/MorphF3_02_orig.jpg,128,,,,,0,128,128,128,,,,,,,,,,,,,,,,,,,5.126953125,-13.154296875,0,0,1,1.37361907959,,,,,2015_Nov_01_1250,A,facesParametric,14,59.490129666,
./stim/MorphF7_09_orig.jpg,129,,,,,0,129,129,129,,,,,,,,,,,,,,,,,,,5.126953125,-13.154296875,1,0,0,1.07045602798,,,,,2015_Nov_01_1250,A,facesParametric,14,59.490129666,
./stim/MorphM4_08_orig.jpg,130,,,,,0,130,130,130,,,,,,,,,,,,,,,,,,,5.126953125,-13.154296875,1,0,0,0.837574005127,,,,,2015_Nov_01_1250,A,facesParametric,14,59.490129666,
./stim/MorphM5_10_orig.jpg,131,,,,,0,131,131,131,,,,,,,,,,,,,,,,,,,5.126953125,-13.154296875,1,0,0,0.919079065323,,,,,2015_Nov_01_1250,A,facesParametric,14,59.490129666,
./stim/MorphF8_00_orig.jpg,132,,,,,0,132,132,132,,,,,,,,,,,,,,,,,,,5.126953125,-13.154296875,0,0,1,0.870214939117,,,,,2015_Nov_01_1250,A,facesParametric,14,59.490129666,
./stim/MorphF4_03_orig.jpg,133,,,,,0,133,133,133,,,,,,,,,,,,,,,,,,,5.126953125,-13.154296875,0,0,1,1.00469088554,,,,,2015_Nov_01_1250,A,facesParametric,14,59.490129666,
./stim/MorphF5_00_orig.jpg,134,,,,,0,134,134,134,,,,,,,,,,,,,,,,,,,5.126953125,-13.154296875,0,0,1,1.08826899529,,,,,2015_Nov_01_1250,A,facesParametric,14,59.490129666,
./stim/MorphF10_04_orig.jpg,135,,,,,0,135,135,135,,,,,,,,,,,,,,,,,,,5.126953125,-13.154296875,1,0,0,1.18681812286,,,,,2015_Nov_01_1250,A,facesParametric,14,59.490129666,
./stim/MorphF6_01_orig.jpg,136,,,,,0,136,136,136,,,,,,,,,,,,,,,,,,,5.126953125,-13.154296875,0,0,1,1.18833398819,,,,,2015_Nov_01_1250,A,facesParametric,14,59.490129666,
./stim/MorphM8_00_orig.jpg,137,,,,,0,137,137,137,,,,,,,,,,,,,,,,,,,5.126953125,-13.154296875,0,0,1,1.15407204628,,,,,2015_Nov_01_1250,A,facesParametric,14,59.490129666,
./stim/MorphM7_03_orig.jpg,138,,,,,0,138,138,138,,,,,,,,,,,,,,,,,,,5.126953125,-13.154296875,1,0,0,1.59006404877,,,,,2015_Nov_01_1250,A,facesParametric,14,59.490129666,
./stim/MorphM6_05_orig.jpg,139,,,,,0,139,139,139,,,,,,,,,,,,,,,,,,,5.126953125,-13.154296875,0,0,1,1.30490088463,,,,,2015_Nov_01_1250,A,facesParametric,14,59.490129666,
./stim/MorphF4_07_orig.jpg,140,,,,,0,140,140,140,,,,,,,,,,,,,,,,,,,5.126953125,-13.154296875,0,0,1,2.31082391739,,,,,2015_Nov_01_1250,A,facesParametric,14,59.490129666,
./stim/MorphM8_03_orig.jpg,141,,,,,0,141,141,141,,,,,,,,,,,,,,,,,,,5.126953125,-13.154296875,0,0,1,1.75641083717,,,,,2015_Nov_01_1250,A,facesParametric,14,59.490129666,
./stim/MorphM10_06_orig.jpg,142,,,,,0,142,142,142,,,,,,,,,,,,,,,,,,,5.126953125,-13.154296875,1,0,0,0.885241031647,,,,,2015_Nov_01_1250,A,facesParametric,14,59.490129666,
./stim/MorphF3_00_orig.jpg,143,,,,,0,143,143,143,,,,,,,,,,,,,,,,,,,5.126953125,-13.154296875,0,0,1,0.90180683136,,,,,2015_Nov_01_1250,A,facesParametric,14,59.490129666,
./stim/MorphM2_09_orig.jpg,144,,,,,0,144,144,144,,,,,,,,,,,,,,,,,,,5.126953125,-13.154296875,1,0,0,0.953971862793,,,,,2015_Nov_01_1250,A,facesParametric,14,59.490129666,
./stim/MorphF8_09_orig.jpg,145,,,,,0,145,145,145,,,,,,,,,,,,,,,,,,,5.126953125,-13.154296875,1,0,0,1.72533512115,,,,,2015_Nov_01_1250,A,facesParametric,14,59.490129666,
./stim/MorphM7_00_orig.jpg,146,,,,,0,146,146,146,,,,,,,,,,,,,,,,,,,5.126953125,-13.154296875,0,0,1,0.852182865143,,,,,2015_Nov_01_1250,A,facesParametric,14,59.490129666,
./stim/MorphF7_05_orig.jpg,147,,,,,0,147,147,147,,,,,,,,,,,,,,,,,,,5.126953125,-13.154296875,0,0,1,2.02674412727,,,,,2015_Nov_01_1250,A,facesParametric,14,59.490129666,
./stim/MorphF3_10_orig.jpg,148,,,,,0,148,148,148,,,,,,,,,,,,,,,,,,,5.126953125,-13.154296875,0,0,1,0.954326868057,,,,,2015_Nov_01_1250,A,facesParametric,14,59.490129666,
./stim/MorphF10_06_orig.jpg,149,,,,,0,149,149,149,,,,,,,,,,,,,,,,,,,5.126953125,-13.154296875,1,0,0,0.90331196785,,,,,2015_Nov_01_1250,A,facesParametric,14,59.490129666,
./stim/MorphF2_01_orig.jpg,150,,,,,0,150,150,150,,,,,,,,,,,,,,,,,,,5.126953125,-13.154296875,0,0,1,0.888267993927,,,,,2015_Nov_01_1250,A,facesParametric,14,59.490129666,
./stim/MorphM2_07_orig.jpg,151,,,,,0,151,151,151,,,,,,,,,,,,,,,,,,,5.126953125,-13.154296875,0,0,1,0.934942960739,,,,,2015_Nov_01_1250,A,facesParametric,14,59.490129666,
./stim/MorphF7_00_orig.jpg,152,,,,,0,152,152,152,,,,,,,,,,,,,,,,,,,5.126953125,-13.154296875,0,0,1,1.03793406487,,,,,2015_Nov_01_1250,A,facesParametric,14,59.490129666,
./stim/MorphM7_05_orig.jpg,153,,,,,0,153,153,153,,,,,,,,,,,,,,,,,,,5.126953125,-13.154296875,1,0,0,0.817692041397,,,,,2015_Nov_01_1250,A,facesParametric,14,59.490129666,
./stim/MorphF3_06_orig.jpg,154,,,,,0,154,154,154,,,,,,,,,,,,,,,,,,,5.126953125,-13.154296875,0,0,1,1.05461621284,,,,,2015_Nov_01_1250,A,facesParametric,14,59.490129666,
./stim/MorphM3_09_orig.jpg,155,,,,,0,155,155,155,,,,,,,,,,,,,,,,,,,5.126953125,-13.154296875,1,0,0,0.97110915184,,,,,2015_Nov_01_1250,A,facesParametric,14,59.490129666,
./stim/MorphF2_06_orig.jpg,156,,,,,0,156,156,156,,,,,,,,,,,,,,,,,,,5.126953125,-13.154296875,1,0,0,1.27207899094,,,,,2015_Nov_01_1250,A,facesParametric,14,59.490129666,
./stim/MorphF1_01_orig.jpg,157,,,,,0,157,157,157,,,,,,,,,,,,,,,,,,,5.126953125,-13.154296875,0,0,1,1.33962917328,,,,,2015_Nov_01_1250,A,facesParametric,14,59.490129666,
./stim/MorphF10_09_orig.jpg,158,,,,,0,158,158,158,,,,,,,,,,,,,,,,,,,5.126953125,-13.154296875,1,0,0,0.835826158524,,,,,2015_Nov_01_1250,A,facesParametric,14,59.490129666,
./stim/MorphM5_02_orig.jpg,159,,,,,0,159,159,159,,,,,,,,,,,,,,,,,,,5.126953125,-13.154296875,0,0,1,0.83660697937,,,,,2015_Nov_01_1250,A,facesParametric,14,59.490129666,
./stim/MorphF7_08_orig.jpg,160,,,,,0,160,160,160,,,,,,,,,,,,,,,,,,,5.126953125,-13.154296875,1,0,0,1.20513296127,,,,,2015_Nov_01_1250,A,facesParametric,14,59.490129666,
./stim/MorphM7_07_orig.jpg,161,,,,,0,161,161,161,,,,,,,,,,,,,,,,,,,5.126953125,-13.154296875,1,0,0,0.870311975479,,,,,2015_Nov_01_1250,A,facesParametric,14,59.490129666,
./stim/MorphF1_04_orig.jpg,162,,,,,0,162,162,162,,,,,,,,,,,,,,,,,,,5.126953125,-13.154296875,0,0,1,1.07107281685,,,,,2015_Nov_01_1250,A,facesParametric,14,59.490129666,
./stim/MorphF7_10_orig.jpg,163,,,,,0,163,163,163,,,,,,,,,,,,,,,,,,,5.126953125,-13.154296875,1,0,0,0.75377702713,,,,,2015_Nov_01_1250,A,facesParametric,14,59.490129666,
./stim/MorphF4_05_orig.jpg,164,,,,,0,164,164,164,,,,,,,,,,,,,,,,,,,5.126953125,-13.154296875,0,0,1,0.852230072021,,,,,2015_Nov_01_1250,A,facesParametric,14,59.490129666,
./stim/MorphF1_02_orig.jpg,165,,,,,0,165,165,165,,,,,,,,,,,,,,,,,,,5.126953125,-13.154296875,0,0,1,0.97056889534,,,,,2015_Nov_01_1250,A,facesParametric,14,59.490129666,
./stim/MorphM8_02_orig.jpg,166,,,,,0,166,166,166,,,,,,,,,,,,,,,,,,,5.126953125,-13.154296875,0,0,1,1.00318789482,,,,,2015_Nov_01_1250,A,facesParametric,14,59.490129666,
./stim/MorphF7_01_orig.jpg,167,,,,,0,167,167,167,,,,,,,,,,,,,,,,,,,5.126953125,-13.154296875,0,0,1,0.953732013702,,,,,2015_Nov_01_1250,A,facesParametric,14,59.490129666,
./stim/MorphF10_01_orig.jpg,168,,,,,0,168,168,168,,,,,,,,,,,,,,,,,,,5.126953125,-13.154296875,0,0,1,1.65577507019,,,,,2015_Nov_01_1250,A,facesParametric,14,59.490129666,
./stim/MorphM10_09_orig.jpg,169,,,,,0,169,169,169,,,,,,,,,,,,,,,,,,,5.126953125,-13.154296875,1,0,0,0.836020946503,,,,,2015_Nov_01_1250,A,facesParametric,14,59.490129666,
./stim/MorphM3_05_orig.jpg,170,,,,,0,170,170,170,,,,,,,,,,,,,,,,,,,5.126953125,-13.154296875,0,0,1,0.904495954514,,,,,2015_Nov_01_1250,A,facesParametric,14,59.490129666,
./stim/MorphM7_08_orig.jpg,171,,,,,0,171,171,171,,,,,,,,,,,,,,,,,,,5.126953125,-13.154296875,1,0,0,0.93629693985,,,,,2015_Nov_01_1250,A,facesParametric,14,59.490129666,
./stim/MorphM6_02_orig.jpg,172,,,,,0,172,172,172,,,,,,,,,,,,,,,,,,,5.126953125,-13.154296875,0,0,1,0.954536914825,,,,,2015_Nov_01_1250,A,facesParametric,14,59.490129666,
./stim/MorphM3_07_orig.jpg,173,,,,,0,173,173,173,,,,,,,,,,,,,,,,,,,5.126953125,-13.154296875,1,0,0,0.951190948486,,,,,2015_Nov_01_1250,A,facesParametric,14,59.490129666,
./stim/MorphM6_10_orig.jpg,174,,,,,0,174,174,174,,,,,,,,,,,,,,,,,,,5.126953125,-13.154296875,1,0,0,1.49043107033,,,,,2015_Nov_01_1250,A,facesParametric,14,59.490129666,
./stim/MorphM10_03_orig.jpg,175,,,,,0,175,175,175,,,,,,,,,,,,,,,,,,,5.126953125,-13.154296875,0,0,1,3.06530499458,,,,,2015_Nov_01_1250,A,facesParametric,14,59.490129666,
./stim/MorphF3_03_orig.jpg,176,,,,,0,176,176,176,,,,,,,,,,,,,,,,,,,5.126953125,-13.154296875,0,0,1,0.719134092331,,,,,2015_Nov_01_1250,A,facesParametric,14,59.490129666,
./stim/MorphF6_02_orig.jpg,177,,,,,0,177,177,177,,,,,,,,,,,,,,,,,,,5.126953125,-13.154296875,0,0,1,0.920807123184,,,,,2015_Nov_01_1250,A,facesParametric,14,59.490129666,
./stim/MorphF7_02_orig.jpg,178,,,,,0,178,178,178,,,,,,,,,,,,,,,,,,,5.126953125,-13.154296875,0,0,1,0.836210012436,,,,,2015_Nov_01_1250,A,facesParametric,14,59.490129666,
./stim/MorphM10_07_orig.jpg,179,,,,,0,179,179,179,,,,,,,,,,,,,,,,,,,5.126953125,-13.154296875,1,0,0,0.82035112381,,,,,2015_Nov_01_1250,A,facesParametric,14,59.490129666,
./stim/MorphM7_04_orig.jpg,180,,,,,0,180,180,180,,,,,,,,,,,,,,,,,,,5.126953125,-13.154296875,1,0,0,0.734372854233,,,,,2015_Nov_01_1250,A,facesParametric,14,59.490129666,
./stim/MorphF6_04_orig.jpg,181,,,,,0,181,181,181,,,,,,,,,,,,,,,,,,,5.126953125,-13.154296875,0,0,1,0.819971084595,,,,,2015_Nov_01_1250,A,facesParametric,14,59.490129666,
./stim/MorphM6_06_orig.jpg,182,,,,,0,182,182,182,,,,,,,,,,,,,,,,,,,5.126953125,-13.154296875,0,0,1,1.15499401093,,,,,2015_Nov_01_1250,A,facesParametric,14,59.490129666,
./stim/MorphF3_04_orig.jpg,183,,,,,0,183,183,183,,,,,,,,,,,,,,,,,,,5.126953125,-13.154296875,0,0,1,1.52438306808,,,,,2015_Nov_01_1250,A,facesParametric,14,59.490129666,
./stim/MorphF2_05_orig.jpg,184,,,,,0,184,184,184,,,,,,,,,,,,,,,,,,,5.126953125,-13.154296875,0,0,1,0.970947980881,,,,,2015_Nov_01_1250,A,facesParametric,14,59.490129666,
./stim/MorphF6_07_orig.jpg,185,,,,,0,185,185,185,,,,,,,,,,,,,,,,,,,5.126953125,-13.154296875,1,0,0,1.67216897011,,,,,2015_Nov_01_1250,A,facesParametric,14,59.490129666,
./stim/MorphM6_03_orig.jpg,186,,,,,0,186,186,186,,,,,,,,,,,,,,,,,,,5.126953125,-13.154296875,0,0,1,1.12014102936,,,,,2015_Nov_01_1250,A,facesParametric,14,59.490129666,
./stim/MorphM7_06_orig.jpg,187,,,,,0,187,187,187,,,,,,,,,,,,,,,,,,,5.126953125,-13.154296875,1,0,0,0.853243112564,,,,,2015_Nov_01_1250,A,facesParametric,14,59.490129666,
./stim/MorphF6_03_orig.jpg,188,,,,,0,188,188,188,,,,,,,,,,,,,,,,,,,5.126953125,-13.154296875,0,0,1,1.94315695763,,,,,2015_Nov_01_1250,A,facesParametric,14,59.490129666,
./stim/MorphF4_01_orig.jpg,189,,,,,0,189,189,189,,,,,,,,,,,,,,,,,,,5.126953125,-13.154296875,0,0,1,1.15509605408,,,,,2015_Nov_01_1250,A,facesParametric,14,59.490129666,
./stim/MorphF7_04_orig.jpg,190,,,,,0,190,190,190,,,,,,,,,,,,,,,,,,,5.126953125,-13.154296875,0,0,1,1.10500597954,,,,,2015_Nov_01_1250,A,facesParametric,14,59.490129666,
./stim/MorphM2_00_orig.jpg,191,,,,,0,191,191,191,,,,,,,,,,,,,,,,,,,5.126953125,-13.154296875,0,0,1,1.03791213036,,,,,2015_Nov_01_1250,A,facesParametric,14,59.490129666,
./stim/MorphM4_10_orig.jpg,192,,,,,0,192,192,192,,,,,,,,,,,,,,,,,,,5.126953125,-13.154296875,1,0,0,1.0196659565,,,,,2015_Nov_01_1250,A,facesParametric,14,59.490129666,
./stim/MorphM3_02_orig.jpg,193,,,,,0,193,193,193,,,,,,,,,,,,,,,,,,,5.126953125,-13.154296875,0,0,1,0.836516857147,,,,,2015_Nov_01_1250,A,facesParametric,14,59.490129666,
./stim/MorphM10_05_orig.jpg,194,,,,,0,194,194,194,,,,,,,,,,,,,,,,,,,5.126953125,-13.154296875,1,0,0,1.30454683304,,,,,2015_Nov_01_1250,A,facesParametric,14,59.490129666,
./stim/MorphM3_00_orig.jpg,195,,,,,0,195,195,195,,,,,,,,,,,,,,,,,,,5.126953125,-13.154296875,1,0,0,1.64027118683,,,,,2015_Nov_01_1250,A,facesParametric,14,59.490129666,
./stim/MorphM8_09_orig.jpg,196,,,,,0,196,196,196,,,,,,,,,,,,,,,,,,,5.126953125,-13.154296875,1,0,0,1.02110600471,,,,,2015_Nov_01_1250,A,facesParametric,14,59.490129666,
./stim/MorphF10_03_orig.jpg,197,,,,,0,197,197,197,,,,,,,,,,,,,,,,,,,5.126953125,-13.154296875,0,0,1,1.25409507751,,,,,2015_Nov_01_1250,A,facesParametric,14,59.490129666,
./stim/MorphM9_04_orig.jpg,198,,,,,0,198,198,198,,,,,,,,,,,,,,,,,,,5.126953125,-13.154296875,1,0,0,1.22214698792,,,,,2015_Nov_01_1250,A,facesParametric,14,59.490129666,
./stim/MorphM6_01_orig.jpg,199,,,,,0,199,199,199,,,,,,,,,,,,,,,,,,,5.126953125,-13.154296875,1,0,0,1.37086009979,,,,,2015_Nov_01_1250,A,facesParametric,14,59.490129666,
./stim/MorphM1_02_orig.jpg,200,,,,,0,200,200,200,,,,,,,,,,,,,,,,,,,5.126953125,-13.154296875,0,0,1,1.89284992218,,,,,2015_Nov_01_1250,A,facesParametric,14,59.490129666,
./stim/MorphF6_05_orig.jpg,201,,,,,0,201,201,201,,,,,,,,,,,,,,,,,,,5.126953125,-13.154296875,1,0,0,2.64669394493,,,,,2015_Nov_01_1250,A,facesParametric,14,59.490129666,
./stim/MorphM9_01_orig.jpg,202,,,,,0,202,202,202,,,,,,,,,,,,,,,,,,,5.126953125,-13.154296875,1,0,0,1.35626006126,,,,,2015_Nov_01_1250,A,facesParametric,14,59.490129666,
./stim/MorphM4_06_orig.jpg,203,,,,,0,203,203,203,,,,,,,,,,,,,,,,,,,5.126953125,-13.154296875,1,0,0,0.920569896698,,,,,2015_Nov_01_1250,A,facesParametric,14,59.490129666,
./stim/MorphF5_08_orig.jpg,204,,,,,0,204,204,204,,,,,,,,,,,,,,,,,,,5.126953125,-13.154296875,1,0,0,0.818390130997,,,,,2015_Nov_01_1250,A,facesParametric,14,59.490129666,
./stim/MorphF6_06_orig.jpg,205,,,,,0,205,205,205,,,,,,,,,,,,,,,,,,,5.126953125,-13.154296875,1,0,0,0.987712144852,,,,,2015_Nov_01_1250,A,facesParametric,14,59.490129666,
./stim/MorphF10_00_orig.jpg,206,,,,,0,206,206,206,,,,,,,,,,,,,,,,,,,5.126953125,-13.154296875,0,0,1,1.15503096581,,,,,2015_Nov_01_1250,A,facesParametric,14,59.490129666,
./stim/MorphF3_09_orig.jpg,207,,,,,0,207,207,207,,,,,,,,,,,,,,,,,,,5.126953125,-13.154296875,0,0,1,2.69714212418,,,,,2015_Nov_01_1250,A,facesParametric,14,59.490129666,
./stim/MorphF6_00_orig.jpg,208,,,,,0,208,208,208,,,,,,,,,,,,,,,,,,,5.126953125,-13.154296875,0,0,1,2.7789208889,,,,,2015_Nov_01_1250,A,facesParametric,14,59.490129666,
./stim/MorphF5_05_orig.jpg,209,,,,,0,209,209,209,,,,,,,,,,,,,,,,,,,5.126953125,-13.154296875,0,0,1,1.02220106125,,,,,2015_Nov_01_1250,A,facesParametric,14,59.490129666,
./stim/MorphF1_08_orig.jpg,210,,,,,0,210,210,210,,,,,,,,,,,,,,,,,,,5.126953125,-13.154296875,0,0,1,0.852852106094,,,,,2015_Nov_01_1250,A,facesParametric,14,59.490129666,
./stim/MorphF8_06_orig.jpg,211,,,,,0,211,211,211,,,,,,,,,,,,,,,,,,,5.126953125,-13.154296875,1,0,0,0.868376970291,,,,,2015_Nov_01_1250,A,facesParametric,14,59.490129666,
./stim/MorphF6_10_orig.jpg,212,,,,,0,212,212,212,,,,,,,,,,,,,,,,,,,5.126953125,-13.154296875,1,0,0,0.91907286644,,,,,2015_Nov_01_1250,A,facesParametric,14,59.490129666,
./stim/MorphF4_00_orig.jpg,213,,,,,0,213,213,213,,,,,,,,,,,,,,,,,,,5.126953125,-13.154296875,0,0,1,1.05481505394,,,,,2015_Nov_01_1250,A,facesParametric,14,59.490129666,
./stim/MorphM9_02_orig.jpg,214,,,,,0,214,214,214,,,,,,,,,,,,,,,,,,,5.126953125,-13.154296875,0,0,1,1.05524015427,,,,,2015_Nov_01_1250,A,facesParametric,14,59.490129666,
./stim/MorphF8_05_orig.jpg,215,,,,,0,215,215,215,,,,,,,,,,,,,,,,,,,5.126953125,-13.154296875,0,0,1,2.54594898224,,,,,2015_Nov_01_1250,A,facesParametric,14,59.490129666,
./stim/MorphM2_10_orig.jpg,216,,,,,0,216,216,216,,,,,,,,,,,,,,,,,,,5.126953125,-13.154296875,1,0,0,1.30552482605,,,,,2015_Nov_01_1250,A,facesParametric,14,59.490129666,
./stim/MorphM4_01_orig.jpg,217,,,,,0,217,217,217,,,,,,,,,,,,,,,,,,,5.126953125,-13.154296875,1,0,0,0.819319963455,,,,,2015_Nov_01_1250,A,facesParametric,14,59.490129666,
./stim/MorphM2_01_orig.jpg,218,,,,,0,218,218,218,,,,,,,,,,,,,,,,,,,5.126953125,-13.154296875,0,0,1,1.59145879745,,,,,2015_Nov_01_1250,A,facesParametric,14,59.490129666,
./stim/MorphF10_02_orig.jpg,219,,,,,0,219,219,219,,,,,,,,,,,,,,,,,,,5.126953125,-13.154296875,0,0,1,1.72448396683,,,,,2015_Nov_01_1250,A,facesParametric,14,59.490129666,
,,,,,,,,,,,,,,,,,,,,,,,,,,,,,,,,,,return,207.702909946,,,2015_Nov_01_1250,A,facesParametric,14,59.490129666,
./stim/MorphF3_09_orig.jpg,0,,,,,,,,,0,0,0,0,,,,,,,,,,,,,,,-17.34375,-13.154296875,0,0,1,3.38044595718,,,,,2015_Nov_01_1250,A,facesParametric,14,59.490129666,
./stim/MorphM8_02_orig.jpg,1,,,,,,,,,0,1,1,1,,,,,,,,,,,,,,,-17.34375,-13.154296875,0,0,1,1.13434696198,,,,,2015_Nov_01_1250,A,facesParametric,14,59.490129666,
./stim/MorphM1_04_orig.jpg,2,,,,,,,,,0,2,2,2,,,,,,,,,,,,,,,-17.34375,-13.154296875,0,0,1,1.05311393738,,,,,2015_Nov_01_1250,A,facesParametric,14,59.490129666,
./stim/MorphF2_03_orig.jpg,3,,,,,,,,,0,3,3,3,,,,,,,,,,,,,,,-17.34375,-13.154296875,0,0,1,1.01967191696,,,,,2015_Nov_01_1250,A,facesParametric,14,59.490129666,
./stim/MorphM7_08_orig.jpg,4,,,,,,,,,0,4,4,4,,,,,,,,,,,,,,,-17.34375,-13.154296875,1,0,0,0.836890935898,,,,,2015_Nov_01_1250,A,facesParametric,14,59.490129666,
./stim/MorphF5_05_orig.jpg,5,,,,,,,,,0,5,5,5,,,,,,,,,,,,,,,-17.34375,-13.154296875,0,0,1,2.27566099167,,,,,2015_Nov_01_1250,A,facesParametric,14,59.490129666,
./stim/MorphM8_01_orig.jpg,6,,,,,,,,,0,6,6,6,,,,,,,,,,,,,,,-17.34375,-13.154296875,0,0,1,2.0932059288,,,,,2015_Nov_01_1250,A,facesParametric,14,59.490129666,
./stim/MorphF1_01_orig.jpg,7,,,,,,,,,0,7,7,7,,,,,,,,,,,,,,,-17.34375,-13.154296875,0,0,1,0.685617923737,,,,,2015_Nov_01_1250,A,facesParametric,14,59.490129666,
./stim/MorphM6_06_orig.jpg,8,,,,,,,,,0,8,8,8,,,,,,,,,,,,,,,-17.34375,-13.154296875,0,0,1,0.987953901291,,,,,2015_Nov_01_1250,A,facesParametric,14,59.490129666,
./stim/MorphM2_04_orig.jpg,9,,,,,,,,,0,9,9,9,,,,,,,,,,,,,,,-17.34375,-13.154296875,0,0,1,1.97617697716,,,,,2015_Nov_01_1250,A,facesParametric,14,59.490129666,
./stim/MorphF7_03_orig.jpg,10,,,,,,,,,0,10,10,10,,,,,,,,,,,,,,,-17.34375,-13.154296875,0,0,1,1.33766913414,,,,,2015_Nov_01_1250,A,facesParametric,14,59.490129666,
./stim/MorphM5_05_orig.jpg,11,,,,,,,,,0,11,11,11,,,,,,,,,,,,,,,-17.34375,-13.154296875,1,0,0,2.06136798859,,,,,2015_Nov_01_1250,A,facesParametric,14,59.490129666,
./stim/MorphF8_05_orig.jpg,12,,,,,,,,,0,12,12,12,,,,,,,,,,,,,,,-17.34375,-13.154296875,1,0,0,0.902697086334,,,,,2015_Nov_01_1250,A,facesParametric,14,59.490129666,
./stim/MorphF9_05_orig.jpg,13,,,,,,,,,0,13,13,13,,,,,,,,,,,,,,,-17.34375,-13.154296875,0,0,1,3.34976410866,,,,,2015_Nov_01_1250,A,facesParametric,14,59.490129666,
./stim/MorphM9_00_orig.jpg,14,,,,,,,,,0,14,14,14,,,,,,,,,,,,,,,-17.34375,-13.154296875,0,0,1,0.886744022369,,,,,2015_Nov_01_1250,A,facesParametric,14,59.490129666,
./stim/MorphM7_10_orig.jpg,15,,,,,,,,,0,15,15,15,,,,,,,,,,,,,,,-17.34375,-13.154296875,1,0,0,1.05338191986,,,,,2015_Nov_01_1250,A,facesParametric,14,59.490129666,
./stim/MorphF3_00_orig.jpg,16,,,,,,,,,0,16,16,16,,,,,,,,,,,,,,,-17.34375,-13.154296875,0,0,1,0.952316045761,,,,,2015_Nov_01_1250,A,facesParametric,14,59.490129666,
./stim/MorphM2_08_orig.jpg,17,,,,,,,,,0,17,17,17,,,,,,,,,,,,,,,-17.34375,-13.154296875,1,0,0,2.42872309685,,,,,2015_Nov_01_1250,A,facesParametric,14,59.490129666,
./stim/MorphM5_08_orig.jpg,18,,,,,,,,,0,18,18,18,,,,,,,,,,,,,,,-17.34375,-13.154296875,1,0,0,0.853645086288,,,,,2015_Nov_01_1250,A,facesParametric,14,59.490129666,
./stim/MorphF7_06_orig.jpg,19,,,,,,,,,0,19,19,19,,,,,,,,,,,,,,,-17.34375,-13.154296875,0,0,1,2.15955209732,,,,,2015_Nov_01_1250,A,facesParametric,14,59.490129666,
./stim/MorphF8_08_orig.jpg,20,,,,,,,,,0,20,20,20,,,,,,,,,,,,,,,-17.34375,-13.154296875,1,0,0,3.2665271759,,,,,2015_Nov_01_1250,A,facesParametric,14,59.490129666,
./stim/MorphM10_08_orig.jpg,21,,,,,,,,,0,21,21,21,,,,,,,,,,,,,,,-17.34375,-13.154296875,1,0,0,0.752852201462,,,,,2015_Nov_01_1250,A,facesParametric,14,59.490129666,
./stim/MorphM5_03_orig.jpg,22,,,,,,,,,0,22,22,22,,,,,,,,,,,,,,,-17.34375,-13.154296875,0,0,1,0.953261852264,,,,,2015_Nov_01_1250,A,facesParametric,14,59.490129666,
./stim/MorphM1_09_orig.jpg,23,,,,,,,,,0,23,23,23,,,,,,,,,,,,,,,-17.34375,-13.154296875,0,0,1,1.12097811699,,,,,2015_Nov_01_1250,A,facesParametric,14,59.490129666,
./stim/MorphF4_05_orig.jpg,24,,,,,,,,,0,24,24,24,,,,,,,,,,,,,,,-17.34375,-13.154296875,0,0,1,1.07115602493,,,,,2015_Nov_01_1250,A,facesParametric,14,59.490129666,
./stim/MorphM7_06_orig.jpg,25,,,,,,,,,0,25,25,25,,,,,,,,,,,,,,,-17.34375,-13.154296875,1,0,0,1.10536909103,,,,,2015_Nov_01_1250,A,facesParametric,14,59.490129666,
./stim/MorphF6_06_orig.jpg,26,,,,,,,,,0,26,26,26,,,,,,,,,,,,,,,-17.34375,-13.154296875,0,0,1,1.02082896233,,,,,2015_Nov_01_1250,A,facesParametric,14,59.490129666,
./stim/MorphF5_04_orig.jpg,27,,,,,,,,,0,27,27,27,,,,,,,,,,,,,,,-17.34375,-13.154296875,0,0,1,1.00402498245,,,,,2015_Nov_01_1250,A,facesParametric,14,59.490129666,
./stim/MorphM4_01_orig.jpg,28,,,,,,,,,0,28,28,28,,,,,,,,,,,,,,,-17.34375,-13.154296875,0,0,1,1.60815811157,,,,,2015_Nov_01_1250,A,facesParametric,14,59.490129666,
./stim/MorphF6_01_orig.jpg,29,,,,,,,,,0,29,29,29,,,,,,,,,,,,,,,-17.34375,-13.154296875,1,0,0,0.987515926361,,,,,2015_Nov_01_1250,A,facesParametric,14,59.490129666,
./stim/MorphM9_08_orig.jpg,30,,,,,,,,,0,30,30,30,,,,,,,,,,,,,,,-17.34375,-13.154296875,1,0,0,2.39557003975,,,,,2015_Nov_01_1250,A,facesParametric,14,59.490129666,
./stim/MorphM2_02_orig.jpg,31,,,,,,,,,0,31,31,31,,,,,,,,,,,,,,,-17.34375,-13.154296875,0,0,1,3.95253801346,,,,,2015_Nov_01_1250,A,facesParametric,14,59.490129666,
./stim/MorphF3_04_orig.jpg,32,,,,,,,,,0,32,32,32,,,,,,,,,,,,,,,-17.34375,-13.154296875,0,0,1,1.02098703384,,,,,2015_Nov_01_1250,A,facesParametric,14,59.490129666,
./stim/MorphF10_10_orig.jpg,33,,,,,,,,,0,33,33,33,,,,,,,,,,,,,,,-17.34375,-13.154296875,1,0,0,2.27820801735,,,,,2015_Nov_01_1250,A,facesParametric,14,59.490129666,
./stim/MorphF8_09_orig.jpg,34,,,,,,,,,0,34,34,34,,,,,,,,,,,,,,,-17.34375,-13.154296875,1,0,0,2.7622089386,,,,,2015_Nov_01_1250,A,facesParametric,14,59.490129666,
./stim/MorphF1_03_orig.jpg,35,,,,,,,,,0,35,35,35,,,,,,,,,,,,,,,-17.34375,-13.154296875,0,0,1,0.937507867813,,,,,2015_Nov_01_1250,A,facesParametric,14,59.490129666,
./stim/MorphM5_10_orig.jpg,36,,,,,,,,,0,36,36,36,,,,,,,,,,,,,,,-17.34375,-13.154296875,1,0,0,1.17033886909,,,,,2015_Nov_01_1250,A,facesParametric,14,59.490129666,
./stim/MorphF7_04_orig.jpg,37,,,,,,,,,0,37,37,37,,,,,,,,,,,,,,,-17.34375,-13.154296875,0,0,1,1.38960599899,,,,,2015_Nov_01_1250,A,facesParametric,14,59.490129666,
./stim/MorphF10_04_orig.jpg,38,,,,,,,,,0,38,38,38,,,,,,,,,,,,,,,-17.34375,-13.154296875,1,0,0,1.25431394577,,,,,2015_Nov_01_1250,A,facesParametric,14,59.490129666,
./stim/MorphF3_02_orig.jpg,39,,,,,,,,,0,39,39,39,,,,,,,,,,,,,,,-17.34375,-13.154296875,0,0,1,0.870550870895,,,,,2015_Nov_01_1250,A,facesParametric,14,59.490129666,
./stim/MorphM3_00_orig.jpg,40,,,,,,,,,0,40,40,40,,,,,,,,,,,,,,,-17.34375,-13.154296875,0,0,1,1.18864989281,,,,,2015_Nov_01_1250,A,facesParametric,14,59.490129666,
./stim/MorphM8_09_orig.jpg,41,,,,,,,,,0,41,41,41,,,,,,,,,,,,,,,-17.34375,-13.154296875,1,0,0,1.32304286957,,,,,2015_Nov_01_1250,A,facesParametric,14,59.490129666,
./stim/MorphM1_00_orig.jpg,42,,,,,,,,,0,42,42,42,,,,,,,,,,,,,,,-17.34375,-13.154296875,0,0,1,0.937386035919,,,,,2015_Nov_01_1250,A,facesParametric,14,59.490129666,
./stim/MorphF7_00_orig.jpg,43,,,,,,,,,0,43,43,43,,,,,,,,,,,,,,,-17.34375,-13.154296875,1,0,0,0.769191980362,,,,,2015_Nov_01_1250,A,facesParametric,14,59.490129666,
./stim/MorphF3_01_orig.jpg,44,,,,,,,,,0,44,44,44,,,,,,,,,,,,,,,-17.34375,-13.154296875,0,0,1,1.32140302658,,,,,2015_Nov_01_1250,A,facesParametric,14,59.490129666,
./stim/MorphF8_02_orig.jpg,45,,,,,,,,,0,45,45,45,,,,,,,,,,,,,,,-17.34375,-13.154296875,0,0,1,1.03592514992,,,,,2015_Nov_01_1250,A,facesParametric,14,59.490129666,
./stim/MorphF3_07_orig.jpg,46,,,,,,,,,0,46,46,46,,,,,,,,,,,,,,,-17.34375,-13.154296875,0,0,1,2.00898385048,,,,,2015_Nov_01_1250,A,facesParametric,14,59.490129666,
./stim/MorphF4_02_orig.jpg,47,,,,,,,,,0,47,47,47,,,,,,,,,,,,,,,-17.34375,-13.154296875,0,0,1,0.853266000748,,,,,2015_Nov_01_1250,A,facesParametric,14,59.490129666,
./stim/MorphF6_08_orig.jpg,48,,,,,,,,,0,48,48,48,,,,,,,,,,,,,,,-17.34375,-13.154296875,0,0,1,1.65844702721,,,,,2015_Nov_01_1250,A,facesParametric,14,59.490129666,
./stim/MorphF2_04_orig.jpg,49,,,,,,,,,0,49,49,49,,,,,,,,,,,,,,,-17.34375,-13.154296875,0,0,1,2.24443984032,,,,,2015_Nov_01_1250,A,facesParametric,14,59.490129666,
./stim/MorphF10_09_orig.jpg,50,,,,,,,,,0,50,50,50,,,,,,,,,,,,,,,-17.34375,-13.154296875,1,0,0,0.870563983917,,,,,2015_Nov_01_1250,A,facesParametric,14,59.490129666,
./stim/MorphM4_04_orig.jpg,51,,,,,,,,,0,51,51,51,,,,,,,,,,,,,,,-17.34375,-13.154296875,0,0,1,2.14502096176,,,,,2015_Nov_01_1250,A,facesParametric,14,59.490129666,
./stim/MorphM8_04_orig.jpg,52,,,,,,,,,0,52,52,52,,,,,,,,,,,,,,,-17.34375,-13.154296875,0,0,1,0.933908224106,,,,,2015_Nov_01_1250,A,facesParametric,14,59.490129666,
./stim/MorphF4_08_orig.jpg,53,,,,,,,,,0,53,53,53,,,,,,,,,,,,,,,-17.34375,-13.154296875,0,0,1,1.03793287277,,,,,2015_Nov_01_1250,A,facesParametric,14,59.490129666,
./stim/MorphF8_04_orig.jpg,54,,,,,,,,,0,54,54,54,,,,,,,,,,,,,,,-17.34375,-13.154296875,0,0,1,1.54035806656,,,,,2015_Nov_01_1250,A,facesParametric,14,59.490129666,
./stim/MorphF9_06_orig.jpg,55,,,,,,,,,0,55,55,55,,,,,,,,,,,,,,,-17.34375,-13.154296875,0,0,1,0.719785928726,,,,,2015_Nov_01_1250,A,facesParametric,14,59.490129666,
./stim/MorphM4_02_orig.jpg,56,,,,,,,,,0,56,56,56,,,,,,,,,,,,,,,-17.34375,-13.154296875,0,0,1,1.10415410995,,,,,2015_Nov_01_1250,A,facesParametric,14,59.490129666,
./stim/MorphF2_01_orig.jpg,57,,,,,,,,,0,57,57,57,,,,,,,,,,,,,,,-17.34375,-13.154296875,0,0,1,1.18903112411,,,,,2015_Nov_01_1250,A,facesParametric,14,59.490129666,
./stim/MorphM5_00_orig.jpg,58,,,,,,,,,0,58,58,58,,,,,,,,,,,,,,,-17.34375,-13.154296875,0,0,1,1.10430288315,,,,,2015_Nov_01_1250,A,facesParametric,14,59.490129666,
./stim/MorphF8_06_orig.jpg,59,,,,,,,,,0,59,59,59,,,,,,,,,,,,,,,-17.34375,-13.154296875,1,0,0,0.937858104706,,,,,2015_Nov_01_1250,A,facesParametric,14,59.490129666,
./stim/MorphF7_08_orig.jpg,60,,,,,,,,,0,60,60,60,,,,,,,,,,,,,,,-17.34375,-13.154296875,1,0,0,1.18687486649,,,,,2015_Nov_01_1250,A,facesParametric,14,59.490129666,
./stim/MorphF8_03_orig.jpg,61,,,,,,,,,0,61,61,61,,,,,,,,,,,,,,,-17.34375,-13.154296875,1,0,0,2.54619479179,,,,,2015_Nov_01_1250,A,facesParametric,14,59.490129666,
./stim/MorphM6_03_orig.jpg,62,,,,,,,,,0,62,62,62,,,,,,,,,,,,,,,-17.34375,-13.154296875,0,0,1,1.40667700768,,,,,2015_Nov_01_1250,A,facesParametric,14,59.490129666,
./stim/MorphF1_04_orig.jpg,63,,,,,,,,,0,63,63,63,,,,,,,,,,,,,,,-17.34375,-13.154296875,0,0,1,1.77542591095,,,,,2015_Nov_01_1250,A,facesParametric,14,59.490129666,
./stim/MorphF4_04_orig.jpg,64,,,,,,,,,0,64,64,64,,,,,,,,,,,,,,,-17.34375,-13.154296875,0,0,1,1.23891496658,,,,,2015_Nov_01_1250,A,facesParametric,14,59.490129666,
./stim/MorphF5_00_orig.jpg,65,,,,,,,,,0,65,65,65,,,,,,,,,,,,,,,-17.34375,-13.154296875,0,0,1,0.870182991028,,,,,2015_Nov_01_1250,A,facesParametric,14,59.490129666,
./stim/MorphF6_04_orig.jpg,66,,,,,,,,,0,66,66,66,,,,,,,,,,,,,,,-17.34375,-13.154296875,0,0,1,1.55747079849,,,,,2015_Nov_01_1250,A,facesParametric,14,59.490129666,
./stim/MorphF5_09_orig.jpg,67,,,,,,,,,0,67,67,67,,,,,,,,,,,,,,,-17.34375,-13.154296875,1,0,0,0.919037103653,,,,,2015_Nov_01_1250,A,facesParametric,14,59.490129666,
./stim/MorphF9_02_orig.jpg,68,,,,,,,,,0,68,68,68,,,,,,,,,,,,,,,-17.34375,-13.154296875,0,0,1,1.35566592216,,,,,2015_Nov_01_1250,A,facesParametric,14,59.490129666,
./stim/MorphF7_01_orig.jpg,69,,,,,,,,,0,69,69,69,,,,,,,,,,,,,,,-17.34375,-13.154296875,0,0,1,1.07111001015,,,,,2015_Nov_01_1250,A,facesParametric,14,59.490129666,
./stim/MorphF3_03_orig.jpg,70,,,,,,,,,0,70,70,70,,,,,,,,,,,,,,,-17.34375,-13.154296875,0,0,1,1.20441198349,,,,,2015_Nov_01_1250,A,facesParametric,14,59.490129666,
./stim/MorphM1_05_orig.jpg,71,,,,,,,,,0,71,71,71,,,,,,,,,,,,,,,-17.34375,-13.154296875,0,0,1,1.12173986435,,,,,2015_Nov_01_1250,A,facesParametric,14,59.490129666,
./stim/MorphM2_01_orig.jpg,72,,,,,,,,,0,72,72,72,,,,,,,,,,,,,,,-17.34375,-13.154296875,0,0,1,0.85299706459,,,,,2015_Nov_01_1250,A,facesParametric,14,59.490129666,
./stim/MorphF9_03_orig.jpg,73,,,,,,,,,0,73,73,73,,,,,,,,,,,,,,,-17.34375,-13.154296875,0,0,1,1.13613414764,,,,,2015_Nov_01_1250,A,facesParametric,14,59.490129666,
./stim/MorphM6_02_orig.jpg,74,,,,,,,,,0,74,74,74,,,,,,,,,,,,,,,-17.34375,-13.154296875,0,0,1,1.72382807732,,,,,2015_Nov_01_1250,A,facesParametric,14,59.490129666,
./stim/MorphF6_02_orig.jpg,75,,,,,,,,,0,75,75,75,,,,,,,,,,,,,,,-17.34375,-13.154296875,0,0,1,7.02079296112,,,,,2015_Nov_01_1250,A,facesParametric,14,59.490129666,
./stim/MorphM3_02_orig.jpg,76,,,,,,,,,0,76,76,76,,,,,,,,,,,,,,,-17.34375,-13.154296875,0,0,1,1.8428850174,,,,,2015_Nov_01_1250,A,facesParametric,14,59.490129666,
./stim/MorphF5_02_orig.jpg,77,,,,,,,,,0,77,77,77,,,,,,,,,,,,,,,-17.34375,-13.154296875,0,0,1,0.719214916229,,,,,2015_Nov_01_1250,A,facesParametric,14,59.490129666,
./stim/MorphM3_03_orig.jpg,78,,,,,,,,,0,78,78,78,,,,,,,,,,,,,,,-17.34375,-13.154296875,0,0,1,0.618800878525,,,,,2015_Nov_01_1250,A,facesParametric,14,59.490129666,
./stim/MorphM1_08_orig.jpg,79,,,,,,,,,0,79,79,79,,,,,,,,,,,,,,,-17.34375,-13.154296875,1,0,0,0.954417943954,,,,,2015_Nov_01_1250,A,facesParametric,14,59.490129666,
./stim/MorphM7_07_orig.jpg,80,,,,,,,,,0,80,80,80,,,,,,,,,,,,,,,-17.34375,-13.154296875,1,0,0,0.649947881699,,,,,2015_Nov_01_1250,A,facesParametric,14,59.490129666,
./stim/MorphM3_09_orig.jpg,81,,,,,,,,,0,81,81,81,,,,,,,,,,,,,,,-17.34375,-13.154296875,0,0,1,0.903692007065,,,,,2015_Nov_01_1250,A,facesParametric,14,59.490129666,
./stim/MorphF1_02_orig.jpg,82,,,,,,,,,0,82,82,82,,,,,,,,,,,,,,,-17.34375,-13.154296875,0,0,1,0.852474212646,,,,,2015_Nov_01_1250,A,facesParametric,14,59.490129666,
./stim/MorphM5_06_orig.jpg,83,,,,,,,,,0,83,83,83,,,,,,,,,,,,,,,-17.34375,-13.154296875,1,0,0,0.870391845703,,,,,2015_Nov_01_1250,A,facesParametric,14,59.490129666,
./stim/MorphF1_08_orig.jpg,84,,,,,,,,,0,84,84,84,,,,,,,,,,,,,,,-17.34375,-13.154296875,1,0,0,1.37404084206,,,,,2015_Nov_01_1250,A,facesParametric,14,59.490129666,
./stim/MorphM9_01_orig.jpg,85,,,,,,,,,0,85,85,85,,,,,,,,,,,,,,,-17.34375,-13.154296875,0,0,1,1.43891501427,,,,,2015_Nov_01_1250,A,facesParametric,14,59.490129666,
./stim/MorphF2_10_orig.jpg,86,,,,,,,,,0,86,86,86,,,,,,,,,,,,,,,-17.34375,-13.154296875,1,0,0,1.00431108475,,,,,2015_Nov_01_1250,A,facesParametric,14,59.490129666,
./stim/MorphF1_07_orig.jpg,87,,,,,,,,,0,87,87,87,,,,,,,,,,,,,,,-17.34375,-13.154296875,1,0,0,1.03806805611,,,,,2015_Nov_01_1250,A,facesParametric,14,59.490129666,
./stim/MorphF2_05_orig.jpg,88,,,,,,,,,0,88,88,88,,,,,,,,,,,,,,,-17.34375,-13.154296875,1,0,0,0.853919029236,,,,,2015_Nov_01_1250,A,facesParametric,14,59.490129666,
./stim/MorphF9_00_orig.jpg,89,,,,,,,,,0,89,89,89,,,,,,,,,,,,,,,-17.34375,-13.154296875,0,0,1,0.917974948883,,,,,2015_Nov_01_1250,A,facesParametric,14,59.490129666,
./stim/MorphM9_07_orig.jpg,90,,,,,,,,,0,90,90,90,,,,,,,,,,,,,,,-17.34375,-13.154296875,1,0,0,2.12735509872,,,,,2015_Nov_01_1250,A,facesParametric,14,59.490129666,
./stim/MorphF2_07_orig.jpg,91,,,,,,,,,0,91,91,91,,,,,,,,,,,,,,,-17.34375,-13.154296875,1,0,0,0.752414226532,,,,,2015_Nov_01_1250,A,facesParametric,14,59.490129666,
./stim/MorphF1_06_orig.jpg,92,,,,,,,,,0,92,92,92,,,,,,,,,,,,,,,-17.34375,-13.154296875,0,0,1,0.870320081711,,,,,2015_Nov_01_1250,A,facesParametric,14,59.490129666,
./stim/MorphF10_08_orig.jpg,93,,,,,,,,,0,93,93,93,,,,,,,,,,,,,,,-17.34375,-13.154296875,1,0,0,0.902101039886,,,,,2015_Nov_01_1250,A,facesParametric,14,59.490129666,
./stim/MorphF4_07_orig.jpg,94,,,,,,,,,0,94,94,94,,,,,,,,,,,,,,,-17.34375,-13.154296875,1,0,0,0.837182998657,,,,,2015_Nov_01_1250,A,facesParametric,14,59.490129666,
./stim/MorphF5_01_orig.jpg,95,,,,,,,,,0,95,95,95,,,,,,,,,,,,,,,-17.34375,-13.154296875,0,0,1,0.886014938354,,,,,2015_Nov_01_1250,A,facesParametric,14,59.490129666,
./stim/MorphF10_02_orig.jpg,96,,,,,,,,,0,96,96,96,,,,,,,,,,,,,,,-17.34375,-13.154296875,1,0,0,2.27780103683,,,,,2015_Nov_01_1250,A,facesParametric,14,59.490129666,
./stim/MorphM6_10_orig.jpg,97,,,,,,,,,0,97,97,97,,,,,,,,,,,,,,,-17.34375,-13.154296875,1,0,0,1.07115292549,,,,,2015_Nov_01_1250,A,facesParametric,14,59.490129666,
./stim/MorphM8_03_orig.jpg,98,,,,,,,,,0,98,98,98,,,,,,,,,,,,,,,-17.34375,-13.154296875,1,0,0,0.919251918793,,,,,2015_Nov_01_1250,A,facesParametric,14,59.490129666,
./stim/MorphM10_09_orig.jpg,99,,,,,,,,,0,99,99,99,,,,,,,,,,,,,,,-17.34375,-13.154296875,1,0,0,0.770170927048,,,,,2015_Nov_01_1250,A,facesParametric,14,59.490129666,
./stim/MorphM5_09_orig.jpg,100,,,,,,,,,0,100,100,100,,,,,,,,,,,,,,,-17.34375,-13.154296875,1,0,0,0.93458199501,,,,,2015_Nov_01_1250,A,facesParametric,14,59.490129666,
./stim/MorphM7_04_orig.jpg,101,,,,,,,,,0,101,101,101,,,,,,,,,,,,,,,-17.34375,-13.154296875,1,0,0,2.07720303535,,,,,2015_Nov_01_1250,A,facesParametric,14,59.490129666,
./stim/MorphM2_00_orig.jpg,102,,,,,,,,,0,102,102,102,,,,,,,,,,,,,,,-17.34375,-13.154296875,0,0,1,1.4906308651,,,,,2015_Nov_01_1250,A,facesParametric,14,59.490129666,
./stim/MorphF10_06_orig.jpg,103,,,,,,,,,0,103,103,103,,,,,,,,,,,,,,,-17.34375,-13.154296875,1,0,0,0.920591115952,,,,,2015_Nov_01_1250,A,facesParametric,14,59.490129666,
./stim/MorphM5_01_orig.jpg,104,,,,,,,,,0,104,104,104,,,,,,,,,,,,,,,-17.34375,-13.154296875,0,0,1,0.95513010025,,,,,2015_Nov_01_1250,A,facesParametric,14,59.490129666,
./stim/MorphM4_09_orig.jpg,105,,,,,,,,,0,105,105,105,,,,,,,,,,,,,,,-17.34375,-13.154296875,1,0,0,1.82383680344,,,,,2015_Nov_01_1250,A,facesParametric,14,59.490129666,
./stim/MorphM10_10_orig.jpg,106,,,,,,,,,0,106,106,106,,,,,,,,,,,,,,,-17.34375,-13.154296875,1,0,0,0.769497156143,,,,,2015_Nov_01_1250,A,facesParametric,14,59.490129666,
./stim/MorphM5_04_orig.jpg,107,,,,,,,,,0,107,107,107,,,,,,,,,,,,,,,-17.34375,-13.154296875,1,0,0,0.986315011978,,,,,2015_Nov_01_1250,A,facesParametric,14,59.490129666,
./stim/MorphM10_02_orig.jpg,108,,,,,,,,,0,108,108,108,,,,,,,,,,,,,,,-17.34375,-13.154296875,1,0,0,0.952795028687,,,,,2015_Nov_01_1250,A,facesParametric,14,59.490129666,
./stim/MorphF2_00_orig.jpg,109,,,,,,,,,0,109,109,109,,,,,,,,,,,,,,,-17.34375,-13.154296875,0,0,1,4.57314991951,,,,,2015_Nov_01_1250,A,facesParametric,14,59.490129666,
./stim/MorphF5_08_orig.jpg,110,,,,,,,,,0,110,110,110,,,,,,,,,,,,,,,-17.34375,-13.154296875,1,0,0,1.64092898369,,,,,2015_Nov_01_1250,A,facesParametric,14,59.490129666,
./stim/MorphF7_05_orig.jpg,111,,,,,,,,,0,111,111,111,,,,,,,,,,,,,,,-17.34375,-13.154296875,1,0,0,1.55735301971,,,,,2015_Nov_01_1250,A,facesParametric,14,59.490129666,
./stim/MorphM6_07_orig.jpg,112,,,,,,,,,0,112,112,112,,,,,,,,,,,,,,,-17.34375,-13.154296875,1,0,0,0.886246919632,,,,,2015_Nov_01_1250,A,facesParametric,14,59.490129666,
./stim/MorphM10_05_orig.jpg,113,,,,,,,,,0,113,113,113,,,,,,,,,,,,,,,-17.34375,-13.154296875,1,0,0,0.817641973495,,,,,2015_Nov_01_1250,A,facesParametric,14,59.490129666,
./stim/MorphF4_09_orig.jpg,114,,,,,,,,,0,114,114,114,,,,,,,,,,,,,,,-17.34375,-13.154296875,1,0,0,0.803349971771,,,,,2015_Nov_01_1250,A,facesParametric,14,59.490129666,
./stim/MorphM10_01_orig.jpg,115,,,,,,,,,0,115,115,115,,,,,,,,,,,,,,,-17.34375,-13.154296875,1,0,0,1.57402420044,,,,,2015_Nov_01_1250,A,facesParametric,14,59.490129666,
./stim/MorphF8_07_orig.jpg,116,,,,,,,,,0,116,116,116,,,,,,,,,,,,,,,-17.34375,-13.154296875,1,0,0,1.62440800667,,,,,2015_Nov_01_1250,A,facesParametric,14,59.490129666,
./stim/MorphM10_03_orig.jpg,117,,,,,,,,,0,117,117,117,,,,,,,,,,,,,,,-17.34375,-13.154296875,1,0,0,1.17160081863,,,,,2015_Nov_01_1250,A,facesParametric,14,59.490129666,
./stim/MorphF7_07_orig.jpg,118,,,,,,,,,0,118,118,118,,,,,,,,,,,,,,,-17.34375,-13.154296875,1,0,0,0.95178103447,,,,,2015_Nov_01_1250,A,facesParametric,14,59.490129666,
./stim/MorphF5_03_orig.jpg,119,,,,,,,,,0,119,119,119,,,,,,,,,,,,,,,-17.34375,-13.154296875,0,0,1,0.83615899086,,,,,2015_Nov_01_1250,A,facesParametric,14,59.490129666,
./stim/MorphF3_08_orig.jpg,120,,,,,,,,,0,120,120,120,,,,,,,,,,,,,,,-17.34375,-13.154296875,0,0,1,0.78639292717,,,,,2015_Nov_01_1250,A,facesParametric,14,59.490129666,
./stim/MorphF10_00_orig.jpg,121,,,,,,,,,0,121,121,121,,,,,,,,,,,,,,,-17.34375,-13.154296875,0,0,1,1.65791296959,,,,,2015_Nov_01_1250,A,facesParametric,14,59.490129666,
./stim/MorphM6_00_orig.jpg,122,,,,,,,,,0,122,122,122,,,,,,,,,,,,,,,-17.34375,-13.154296875,0,0,1,0.851538181305,,,,,2015_Nov_01_1250,A,facesParametric,14,59.490129666,
./stim/MorphF10_01_orig.jpg,123,,,,,,,,,0,123,123,123,,,,,,,,,,,,,,,-17.34375,-13.154296875,0,0,1,1.27187085152,,,,,2015_Nov_01_1250,A,facesParametric,14,59.490129666,
./stim/MorphF1_10_orig.jpg,124,,,,,,,,,0,124,124,124,,,,,,,,,,,,,,,-17.34375,-13.154296875,0,0,1,0.802921056747,,,,,2015_Nov_01_1250,A,facesParametric,14,59.490129666,
./stim/MorphF9_04_orig.jpg,125,,,,,,,,,0,125,125,125,,,,,,,,,,,,,,,-17.34375,-13.154296875,0,0,1,0.937402963638,,,,,2015_Nov_01_1250,A,facesParametric,14,59.490129666,
./stim/MorphF2_06_orig.jpg,126,,,,,,,,,0,126,126,126,,,,,,,,,,,,,,,-17.34375,-13.154296875,1,0,0,1.17119503021,,,,,2015_Nov_01_1250,A,facesParametric,14,59.490129666,
./stim/MorphM1_10_orig.jpg,127,,,,,,,,,0,127,127,127,,,,,,,,,,,,,,,-17.34375,-13.154296875,1,0,0,0.701854944229,,,,,2015_Nov_01_1250,A,facesParametric,14,59.490129666,
./stim/MorphF10_07_orig.jpg,128,,,,,,,,,0,128,128,128,,,,,,,,,,,,,,,-17.34375,-13.154296875,1,0,0,0.753458023071,,,,,2015_Nov_01_1250,A,facesParametric,14,59.490129666,
./stim/MorphM8_07_orig.jpg,129,,,,,,,,,0,129,129,129,,,,,,,,,,,,,,,-17.34375,-13.154296875,1,0,0,2.0931968689,,,,,2015_Nov_01_1250,A,facesParametric,14,59.490129666,
./stim/MorphM6_09_orig.jpg,130,,,,,,,,,0,130,130,130,,,,,,,,,,,,,,,-17.34375,-13.154296875,1,0,0,14.4454038143,,,,,2015_Nov_01_1250,A,facesParametric,14,59.490129666,
./stim/MorphM7_01_orig.jpg,131,,,,,,,,,0,131,131,131,,,,,,,,,,,,,,,-17.34375,-13.154296875,0,0,1,1.17200613022,,,,,2015_Nov_01_1250,A,facesParametric,14,59.490129666,
./stim/MorphM9_05_orig.jpg,132,,,,,,,,,0,132,132,132,,,,,,,,,,,,,,,-17.34375,-13.154296875,0,0,1,1.52361488342,,,,,2015_Nov_01_1250,A,facesParametric,14,59.490129666,
./stim/MorphM4_08_orig.jpg,133,,,,,,,,,0,133,133,133,,,,,,,,,,,,,,,-17.34375,-13.154296875,1,0,0,1.22235512733,,,,,2015_Nov_01_1250,A,facesParametric,14,59.490129666,
./stim/MorphF6_10_orig.jpg,134,,,,,,,,,0,134,134,134,,,,,,,,,,,,,,,-17.34375,-13.154296875,1,0,0,0.920633077621,,,,,2015_Nov_01_1250,A,facesParametric,14,59.490129666,
./stim/MorphF8_00_orig.jpg,135,,,,,,,,,0,135,135,135,,,,,,,,,,,,,,,-17.34375,-13.154296875,0,0,1,0.970830917358,,,,,2015_Nov_01_1250,A,facesParametric,14,59.490129666,
./stim/MorphM1_07_orig.jpg,136,,,,,,,,,0,136,136,136,,,,,,,,,,,,,,,-17.34375,-13.154296875,0,0,1,11.8984091282,,,,,2015_Nov_01_1250,A,facesParametric,14,59.490129666,
./stim/MorphF1_00_orig.jpg,137,,,,,,,,,0,137,137,137,,,,,,,,,,,,,,,-17.34375,-13.154296875,0,0,1,0.969279050827,,,,,2015_Nov_01_1250,A,facesParametric,14,59.490129666,
./stim/MorphM3_07_orig.jpg,138,,,,,,,,,0,138,138,138,,,,,,,,,,,,,,,-17.34375,-13.154296875,0,0,1,0.969043970108,,,,,2015_Nov_01_1250,A,facesParametric,14,59.490129666,
./stim/MorphF9_08_orig.jpg,139,,,,,,,,,0,139,139,139,,,,,,,,,,,,,,,-17.34375,-13.154296875,0,0,1,0.968431949615,,,,,2015_Nov_01_1250,A,facesParametric,14,59.490129666,
./stim/MorphF7_09_orig.jpg,140,,,,,,,,,0,140,140,140,,,,,,,,,,,,,,,-17.34375,-13.154296875,1,0,0,1.22007894516,,,,,2015_Nov_01_1250,A,facesParametric,14,59.490129666,
./stim/MorphF4_10_orig.jpg,141,,,,,,,,,0,141,141,141,,,,,,,,,,,,,,,-17.34375,-13.154296875,0,0,1,1.13744401932,,,,,2015_Nov_01_1250,A,facesParametric,14,59.490129666,
./stim/MorphF5_06_orig.jpg,142,,,,,,,,,0,142,142,142,,,,,,,,,,,,,,,-17.34375,-13.154296875,1,0,0,1.17064905167,,,,,2015_Nov_01_1250,A,facesParametric,14,59.490129666,
./stim/MorphM6_04_orig.jpg,143,,,,,,,,,0,143,143,143,,,,,,,,,,,,,,,-17.34375,-13.154296875,1,0,0,0.985525846481,,,,,2015_Nov_01_1250,A,facesParametric,14,59.490129666,
./stim/MorphF7_02_orig.jpg,144,,,,,,,,,0,144,144,144,,,,,,,,,,,,,,,-17.34375,-13.154296875,0,0,1,1.00407195091,,,,,2015_Nov_01_1250,A,facesParametric,14,59.490129666,
./stim/MorphM2_03_orig.jpg,145,,,,,,,,,0,145,145,145,,,,,,,,,,,,,,,-17.34375,-13.154296875,0,0,1,1.0881049633,,,,,2015_Nov_01_1250,A,facesParametric,14,59.490129666,
./stim/MorphM4_05_orig.jpg,146,,,,,,,,,0,146,146,146,,,,,,,,,,,,,,,-17.34375,-13.154296875,1,0,0,0.902201890945,,,,,2015_Nov_01_1250,A,facesParametric,14,59.490129666,
./stim/MorphF9_09_orig.jpg,147,,,,,,,,,0,147,147,147,,,,,,,,,,,,,,,-17.34375,-13.154296875,1,0,0,0.97105383873,,,,,2015_Nov_01_1250,A,facesParametric,14,59.490129666,
./stim/MorphM8_08_orig.jpg,148,,,,,,,,,0,148,148,148,,,,,,,,,,,,,,,-17.34375,-13.154296875,1,0,0,0.651987075806,,,,,2015_Nov_01_1250,A,facesParametric,14,59.490129666,
./stim/MorphF1_05_orig.jpg,149,,,,,,,,,0,149,149,149,,,,,,,,,,,,,,,-17.34375,-13.154296875,0,0,1,0.886780023575,,,,,2015_Nov_01_1250,A,facesParametric,14,59.490129666,
./stim/MorphM10_00_orig.jpg,150,,,,,,,,,0,150,150,150,,,,,,,,,,,,,,,-17.34375,-13.154296875,1,0,0,1.94379997253,,,,,2015_Nov_01_1250,A,facesParametric,14,59.490129666,
./stim/MorphF4_06_orig.jpg,151,,,,,,,,,0,151,151,151,,,,,,,,,,,,,,,-17.34375,-13.154296875,0,0,1,1.2194211483,,,,,2015_Nov_01_1250,A,facesParametric,14,59.490129666,
./stim/MorphF5_10_orig.jpg,152,,,,,,,,,0,152,152,152,,,,,,,,,,,,,,,-17.34375,-13.154296875,1,0,0,0.836853027344,,,,,2015_Nov_01_1250,A,facesParametric,14,59.490129666,
./stim/MorphM10_06_orig.jpg,153,,,,,,,,,0,153,153,153,,,,,,,,,,,,,,,-17.34375,-13.154296875,1,0,0,0.685916900635,,,,,2015_Nov_01_1250,A,facesParametric,14,59.490129666,
./stim/MorphF7_10_orig.jpg,154,,,,,,,,,0,154,154,154,,,,,,,,,,,,,,,-17.34375,-13.154296875,1,0,0,0.768353939056,,,,,2015_Nov_01_1250,A,facesParametric,14,59.490129666,
./stim/MorphM9_09_orig.jpg,155,,,,,,,,,0,155,155,155,,,,,,,,,,,,,,,-17.34375,-13.154296875,1,0,0,1.55773997307,,,,,2015_Nov_01_1250,A,facesParametric,14,59.490129666,
./stim/MorphM7_02_orig.jpg,156,,,,,,,,,0,156,156,156,,,,,,,,,,,,,,,-17.34375,-13.154296875,0,0,1,1.7581589222,,,,,2015_Nov_01_1250,A,facesParametric,14,59.490129666,
./stim/MorphF4_00_orig.jpg,157,,,,,,,,,0,157,157,157,,,,,,,,,,,,,,,-17.34375,-13.154296875,0,0,1,1.17238402367,,,,,2015_Nov_01_1250,A,facesParametric,14,59.490129666,
./stim/MorphF8_10_orig.jpg,158,,,,,,,,,0,158,158,158,,,,,,,,,,,,,,,-17.34375,-13.154296875,1,0,0,0.920405864716,,,,,2015_Nov_01_1250,A,facesParametric,14,59.490129666,
./stim/MorphM5_02_orig.jpg,159,,,,,,,,,0,159,159,159,,,,,,,,,,,,,,,-17.34375,-13.154296875,1,0,0,1.01864409447,,,,,2015_Nov_01_1250,A,facesParametric,14,59.490129666,
./stim/MorphM1_03_orig.jpg,160,,,,,,,,,0,160,160,160,,,,,,,,,,,,,,,-17.34375,-13.154296875,0,0,1,1.05482292175,,,,,2015_Nov_01_1250,A,facesParametric,14,59.490129666,
./stim/MorphM6_08_orig.jpg,161,,,,,,,,,0,161,161,161,,,,,,,,,,,,,,,-17.34375,-13.154296875,1,0,0,3.19928193092,,,,,2015_Nov_01_1250,A,facesParametric,14,59.490129666,
./stim/MorphM2_05_orig.jpg,162,,,,,,,,,0,162,162,162,,,,,,,,,,,,,,,-17.34375,-13.154296875,0,0,1,0.970622062683,,,,,2015_Nov_01_1250,A,facesParametric,14,59.490129666,
./stim/MorphF9_07_orig.jpg,163,,,,,,,,,0,163,163,163,,,,,,,,,,,,,,,-17.34375,-13.154296875,1,0,0,1.70706892014,,,,,2015_Nov_01_1250,A,facesParametric,14,59.490129666,
./stim/MorphM4_00_orig.jpg,164,,,,,,,,,0,164,164,164,,,,,,,,,,,,,,,-17.34375,-13.154296875,0,0,1,1.25577688217,,,,,2015_Nov_01_1250,A,facesParametric,14,59.490129666,
./stim/MorphF6_03_orig.jpg,165,,,,,,,,,0,165,165,165,,,,,,,,,,,,,,,-17.34375,-13.154296875,0,0,1,0.953943014145,,,,,2015_Nov_01_1250,A,facesParametric,14,59.490129666,
./stim/MorphF10_05_orig.jpg,166,,,,,,,,,0,166,166,166,,,,,,,,,,,,,,,-17.34375,-13.154296875,1,0,0,0.987766027451,,,,,2015_Nov_01_1250,A,facesParametric,14,59.490129666,
./stim/MorphM3_05_orig.jpg,167,,,,,,,,,0,167,167,167,,,,,,,,,,,,,,,-17.34375,-13.154296875,1,0,0,0.920694112778,,,,,2015_Nov_01_1250,A,facesParametric,14,59.490129666,
./stim/MorphM10_04_orig.jpg,168,,,,,,,,,0,168,168,168,,,,,,,,,,,,,,,-17.34375,-13.154296875,1,0,0,0.701225996017,,,,,2015_Nov_01_1250,A,facesParametric,14,59.490129666,
./stim/MorphM2_07_orig.jpg,169,,,,,,,,,0,169,169,169,,,,,,,,,,,,,,,-17.34375,-13.154296875,1,0,0,0.868731975555,,,,,2015_Nov_01_1250,A,facesParametric,14,59.490129666,
./stim/MorphM8_06_orig.jpg,170,,,,,,,,,0,170,170,170,,,,,,,,,,,,,,,-17.34375,-13.154296875,1,0,0,0.817556142807,,,,,2015_Nov_01_1250,A,facesParametric,14,59.490129666,
./stim/MorphM6_05_orig.jpg,171,,,,,,,,,0,171,171,171,,,,,,,,,,,,,,,-17.34375,-13.154296875,0,0,1,1.50761389732,,,,,2015_Nov_01_1250,A,facesParametric,14,59.490129666,
./stim/MorphM7_09_orig.jpg,172,,,,,,,,,0,172,172,172,,,,,,,,,,,,,,,-17.34375,-13.154296875,1,0,0,0.853543996811,,,,,2015_Nov_01_1250,A,facesParametric,14,59.490129666,
./stim/MorphM3_08_orig.jpg,173,,,,,,,,,0,173,173,173,,,,,,,,,,,,,,,-17.34375,-13.154296875,0,0,1,1.10321807861,,,,,2015_Nov_01_1250,A,facesParametric,14,59.490129666,
./stim/MorphF4_03_orig.jpg,174,,,,,,,,,0,174,174,174,,,,,,,,,,,,,,,-17.34375,-13.154296875,0,0,1,2.47919201851,,,,,2015_Nov_01_1250,A,facesParametric,14,59.490129666,
./stim/MorphM3_10_orig.jpg,175,,,,,,,,,0,175,175,175,,,,,,,,,,,,,,,-17.34375,-13.154296875,1,0,0,0.887034893036,,,,,2015_Nov_01_1250,A,facesParametric,14,59.490129666,
./stim/MorphF9_10_orig.jpg,176,,,,,,,,,0,176,176,176,,,,,,,,,,,,,,,-17.34375,-13.154296875,1,0,0,0.819821119308,,,,,2015_Nov_01_1250,A,facesParametric,14,59.490129666,
./stim/MorphM2_06_orig.jpg,177,,,,,,,,,0,177,177,177,,,,,,,,,,,,,,,-17.34375,-13.154296875,0,0,1,0.969992876053,,,,,2015_Nov_01_1250,A,facesParametric,14,59.490129666,
./stim/MorphM1_01_orig.jpg,178,,,,,,,,,0,178,178,178,,,,,,,,,,,,,,,-17.34375,-13.154296875,0,0,1,0.93586397171,,,,,2015_Nov_01_1250,A,facesParametric,14,59.490129666,
./stim/MorphM3_01_orig.jpg,179,,,,,,,,,0,179,179,179,,,,,,,,,,,,,,,-17.34375,-13.154296875,0,0,1,1.12077689171,,,,,2015_Nov_01_1250,A,facesParametric,14,59.490129666,
./stim/MorphM10_07_orig.jpg,180,,,,,,,,,0,180,180,180,,,,,,,,,,,,,,,-17.34375,-13.154296875,1,0,0,0.836711168289,,,,,2015_Nov_01_1250,A,facesParametric,14,59.490129666,
./stim/MorphM2_09_orig.jpg,181,,,,,,,,,0,181,181,181,,,,,,,,,,,,,,,-17.34375,-13.154296875,1,0,0,0.634073972702,,,,,2015_Nov_01_1250,A,facesParametric,14,59.490129666,
./stim/MorphF2_09_orig.jpg,182,,,,,,,,,0,182,182,182,,,,,,,,,,,,,,,-17.34375,-13.154296875,1,0,0,0.66735291481,,,,,2015_Nov_01_1250,A,facesParametric,14,59.490129666,
./stim/MorphF5_07_orig.jpg,183,,,,,,,,,0,183,183,183,,,,,,,,,,,,,,,-17.34375,-13.154296875,1,0,0,0.853316068649,,,,,2015_Nov_01_1250,A,facesParametric,14,59.490129666,
./stim/MorphM9_04_orig.jpg,184,,,,,,,,,0,184,184,184,,,,,,,,,,,,,,,-17.34375,-13.154296875,0,0,1,3.33411693573,,,,,2015_Nov_01_1250,A,facesParametric,14,59.490129666,
./stim/MorphM4_06_orig.jpg,185,,,,,,,,,0,185,185,185,,,,,,,,,,,,,,,-17.34375,-13.154296875,1,0,0,0.903902053833,,,,,2015_Nov_01_1250,A,facesParametric,14,59.490129666,
./stim/MorphF3_05_orig.jpg,186,,,,,,,,,0,186,186,186,,,,,,,,,,,,,,,-17.34375,-13.154296875,0,0,1,2.17746210098,,,,,2015_Nov_01_1250,A,facesParametric,14,59.490129666,
./stim/MorphM5_07_orig.jpg,187,,,,,,,,,0,187,187,187,,,,,,,,,,,,,,,-17.34375,-13.154296875,1,0,0,1.42133116722,,,,,2015_Nov_01_1250,A,facesParametric,14,59.490129666,
./stim/MorphF8_01_orig.jpg,188,,,,,,,,,0,188,188,188,,,,,,,,,,,,,,,-17.34375,-13.154296875,0,0,1,0.970533132553,,,,,2015_Nov_01_1250,A,facesParametric,14,59.490129666,
./stim/MorphF9_01_orig.jpg,189,,,,,,,,,0,189,189,189,,,,,,,,,,,,,,,-17.34375,-13.154296875,0,0,1,1.50726294518,,,,,2015_Nov_01_1250,A,facesParametric,14,59.490129666,
./stim/MorphF10_03_orig.jpg,190,,,,,,,,,0,190,190,190,,,,,,,,,,,,,,,-17.34375,-13.154296875,1,0,0,0.836655855179,,,,,2015_Nov_01_1250,A,facesParametric,14,59.490129666,
./stim/MorphM1_06_orig.jpg,191,,,,,,,,,0,191,191,191,,,,,,,,,,,,,,,-17.34375,-13.154296875,0,0,1,0.919729948044,,,,,2015_Nov_01_1250,A,facesParametric,14,59.490129666,
./stim/MorphF1_09_orig.jpg,192,,,,,,,,,0,192,192,192,,,,,,,,,,,,,,,-17.34375,-13.154296875,1,0,0,1.22185993195,,,,,2015_Nov_01_1250,A,facesParametric,14,59.490129666,
./stim/MorphM3_04_orig.jpg,193,,,,,,,,,0,193,193,193,,,,,,,,,,,,,,,-17.34375,-13.154296875,0,0,1,1.42307591438,,,,,2015_Nov_01_1250,A,facesParametric,14,59.490129666,
./stim/MorphF2_08_orig.jpg,194,,,,,,,,,0,194,194,194,,,,,,,,,,,,,,,-17.34375,-13.154296875,1,0,0,0.853266000748,,,,,2015_Nov_01_1250,A,facesParametric,14,59.490129666,
./stim/MorphM8_05_orig.jpg,195,,,,,,,,,0,195,195,195,,,,,,,,,,,,,,,-17.34375,-13.154296875,1,0,0,0.735076189041,,,,,2015_Nov_01_1250,A,facesParametric,14,59.490129666,
./stim/MorphM6_01_orig.jpg,196,,,,,,,,,0,196,196,196,,,,,,,,,,,,,,,-17.34375,-13.154296875,0,0,1,0.853600978851,,,,,2015_Nov_01_1250,A,facesParametric,14,59.490129666,
./stim/MorphM4_10_orig.jpg,197,,,,,,,,,0,197,197,197,,,,,,,,,,,,,,,-17.34375,-13.154296875,1,0,0,0.834538221359,,,,,2015_Nov_01_1250,A,facesParametric,14,59.490129666,
./stim/MorphF6_07_orig.jpg,198,,,,,,,,,0,198,198,198,,,,,,,,,,,,,,,-17.34375,-13.154296875,0,0,1,0.887181997299,,,,,2015_Nov_01_1250,A,facesParametric,14,59.490129666,
./stim/MorphM8_10_orig.jpg,199,,,,,,,,,0,199,199,199,,,,,,,,,,,,,,,-17.34375,-13.154296875,1,0,0,0.736097097397,,,,,2015_Nov_01_1250,A,facesParametric,14,59.490129666,
./stim/MorphM4_07_orig.jpg,200,,,,,,,,,0,200,200,200,,,,,,,,,,,,,,,-17.34375,-13.154296875,1,0,0,1.06955003738,,,,,2015_Nov_01_1250,A,facesParametric,14,59.490129666,
./stim/MorphM9_06_orig.jpg,201,,,,,,,,,0,201,201,201,,,,,,,,,,,,,,,-17.34375,-13.154296875,0,0,1,1.00228214264,,,,,2015_Nov_01_1250,A,facesParametric,14,59.490129666,
./stim/MorphM7_05_orig.jpg,202,,,,,,,,,0,202,202,202,,,,,,,,,,,,,,,-17.34375,-13.154296875,0,0,1,1.15507793427,,,,,2015_Nov_01_1250,A,facesParametric,14,59.490129666,
./stim/MorphM1_02_orig.jpg,203,,,,,,,,,0,203,203,203,,,,,,,,,,,,,,,-17.34375,-13.154296875,0,0,1,0.888273954391,,,,,2015_Nov_01_1250,A,facesParametric,14,59.490129666,
./stim/MorphM7_00_orig.jpg,204,,,,,,,,,0,204,204,204,,,,,,,,,,,,,,,-17.34375,-13.154296875,1,0,0,0.868256092072,,,,,2015_Nov_01_1250,A,facesParametric,14,59.490129666,
./stim/MorphF6_05_orig.jpg,205,,,,,,,,,0,205,205,205,,,,,,,,,,,,,,,-17.34375,-13.154296875,1,0,0,1.23876285553,,,,,2015_Nov_01_1250,A,facesParametric,14,59.490129666,
./stim/MorphM9_10_orig.jpg,206,,,,,,,,,0,206,206,206,,,,,,,,,,,,,,,-17.34375,-13.154296875,1,0,0,0.7532351017,,,,,2015_Nov_01_1250,A,facesParametric,14,59.490129666,
./stim/MorphM7_03_orig.jpg,207,,,,,,,,,0,207,207,207,,,,,,,,,,,,,,,-17.34375,-13.154296875,1,0,0,1.23697090149,,,,,2015_Nov_01_1250,A,facesParametric,14,59.490129666,
./stim/MorphM2_10_orig.jpg,208,,,,,,,,,0,208,208,208,,,,,,,,,,,,,,,-17.34375,-13.154296875,1,0,0,0.752878904343,,,,,2015_Nov_01_1250,A,facesParametric,14,59.490129666,
./stim/MorphF3_06_orig.jpg,209,,,,,,,,,0,209,209,209,,,,,,,,,,,,,,,-17.34375,-13.154296875,0,0,1,0.886371135712,,,,,2015_Nov_01_1250,A,facesParametric,14,59.490129666,
./stim/MorphM9_02_orig.jpg,210,,,,,,,,,0,210,210,210,,,,,,,,,,,,,,,-17.34375,-13.154296875,0,0,1,4.37256193161,,,,,2015_Nov_01_1250,A,facesParametric,14,59.490129666,
./stim/MorphF2_02_orig.jpg,211,,,,,,,,,0,211,211,211,,,,,,,,,,,,,,,-17.34375,-13.154296875,0,0,1,0.903800010681,,,,,2015_Nov_01_1250,A,facesParametric,14,59.490129666,
./stim/MorphF4_01_orig.jpg,212,,,,,,,,,0,212,212,212,,,,,,,,,,,,,,,-17.34375,-13.154296875,0,0,1,0.920998811722,,,,,2015_Nov_01_1250,A,facesParametric,14,59.490129666,
./stim/MorphM8_00_orig.jpg,213,,,,,,,,,0,213,213,213,,,,,,,,,,,,,,,-17.34375,-13.154296875,0,0,1,1.03620100021,,,,,2015_Nov_01_1250,A,facesParametric,14,59.490129666,
./stim/MorphM3_06_orig.jpg,214,,,,,,,,,0,214,214,214,,,,,,,,,,,,,,,-17.34375,-13.154296875,1,0,0,1.05227017403,,,,,2015_Nov_01_1250,A,facesParametric,14,59.490129666,
./stim/MorphF6_09_orig.jpg,215,,,,,,,,,0,215,215,215,,,,,,,,,,,,,,,-17.34375,-13.154296875,1,0,0,0.753241062164,,,,,2015_Nov_01_1250,A,facesParametric,14,59.490129666,
./stim/MorphM9_03_orig.jpg,216,,,,,,,,,0,216,216,216,,,,,,,,,,,,,,,-17.34375,-13.154296875,0,0,1,0.90297293663,,,,,2015_Nov_01_1250,A,facesParametric,14,59.490129666,
./stim/MorphF6_00_orig.jpg,217,,,,,,,,,0,217,217,217,,,,,,,,,,,,,,,-17.34375,-13.154296875,0,0,1,0.937562942505,,,,,2015_Nov_01_1250,A,facesParametric,14,59.490129666,
./stim/MorphM4_03_orig.jpg,218,,,,,,,,,0,218,218,218,,,,,,,,,,,,,,,-17.34375,-13.154296875,0,0,1,1.17214393616,,,,,2015_Nov_01_1250,A,facesParametric,14,59.490129666,
./stim/MorphF3_10_orig.jpg,219,,,,,,,,,0,219,219,219,,,,,,,,,,,,,,,-17.34375,-13.154296875,0,0,1,0.887006998062,,,,,2015_Nov_01_1250,A,facesParametric,14,59.490129666,
,,,,,,,,,,,,,,,,,,,,,,,,,,,,,,,,,,,,return,1.63541603088,2015_Nov_01_1250,A,facesParametric,14,59.490129666,
