img,num,basicLoop.thisRepN,basicLoop.thisTrialN,basicLoop.thisN,basicLoop.thisIndex,trials.thisRepN,trials.thisTrialN,trials.thisN,trials.thisIndex,trials2.thisRepN,trials2.thisTrialN,trials2.thisN,trials2.thisIndex,key_resp_2.keys,key_resp_2.rt,basicRating1.response,basicRating1.rt,basicRating2.response,basicRating2.rt,basicRating3.response,basicRating3.rt,basicRating4.response,basicRating4.rt,key_resp_3.keys,key_resp_3.rt,key_resp_4.keys,key_resp_4.rt,mouseResp.x,mouseResp.y,mouseResp.leftButton,mouseResp.midButton,mouseResp.rightButton,mouseResp.time,key_resp_5.keys,key_resp_5.rt,key_resp_7.keys,key_resp_7.rt,date,group,expName,participant,frameRate,
,,,,,,,,,,,,,,return,16.917211771,,,,,,,,,,,,,,,,,,,,,,,2015_Nov_02_1800,A,facesParametric,15,59.5986688606,
./basicStim/23M_NE_C.jpg,,0,0,0,55,,,,,,,,,,,SAD,5.922,None,None,None,None,None,None,,,,,,,,,,,,,,,2015_Nov_02_1800,A,facesParametric,15,59.5986688606,
./basicStim/03F_DI_O.jpg,,0,1,1,15,,,,,,,,,,,None,None,None,None,DIS,4.51,None,None,,,,,,,,,,,,,,,2015_Nov_02_1800,A,facesParametric,15,59.5986688606,
./basicStim/01F_HA_O.jpg,,0,2,2,3,,,,,,,,,,,HAP,2.325,None,None,None,None,None,None,,,,,,,,,,,,,,,2015_Nov_02_1800,A,facesParametric,15,59.5986688606,
./basicStim/28M_SP_O.jpg,,0,3,3,68,,,,,,,,,,,None,None,None,None,SUP,2.168,None,None,,,,,,,,,,,,,,,2015_Nov_02_1800,A,facesParametric,15,59.5986688606,
./basicStim/09F_SA_C.jpg,,0,4,4,39,,,,,,,,,,,None,None,ANG,4.376,None,None,None,None,,,,,,,,,,,,,,,2015_Nov_02_1800,A,facesParametric,15,59.5986688606,
./basicStim/36M_FE_O.jpg,,0,5,5,79,,,,,,,,,,,None,None,None,None,SUP,3.877,None,None,,,,,,,,,,,,,,,2015_Nov_02_1800,A,facesParametric,15,59.5986688606,
./basicStim/21M_HA_O.jpg,,0,6,6,45,,,,,,,,,,,HAP,3.19,None,None,None,None,None,None,,,,,,,,,,,,,,,2015_Nov_02_1800,A,facesParametric,15,59.5986688606,
./basicStim/02F_DI_O.jpg,,0,7,7,8,,,,,,,,,,,None,None,None,None,DIS,1.342,None,None,,,,,,,,,,,,,,,2015_Nov_02_1800,A,facesParametric,15,59.5986688606,
./basicStim/24M_FE_O.jpg,,0,8,8,58,,,,,,,,,,,None,None,None,None,SUP,2.808,None,None,,,,,,,,,,,,,,,2015_Nov_02_1800,A,facesParametric,15,59.5986688606,
./basicStim/28M_SA_C.jpg,,0,9,9,67,,,,,,,,,,,None,None,None,None,None,None,NTR,3.408,,,,,,,,,,,,,,,2015_Nov_02_1800,A,facesParametric,15,59.5986688606,
./basicStim/06F_SA_C.jpg,,0,10,10,25,,,,,,,,,,,None,None,ANG,4.158,None,None,None,None,,,,,,,,,,,,,,,2015_Nov_02_1800,A,facesParametric,15,59.5986688606,
./basicStim/28M_DI_O.jpg,,0,11,11,64,,,,,,,,,,,None,None,None,None,DIS,3.03,None,None,,,,,,,,,,,,,,,2015_Nov_02_1800,A,facesParametric,15,59.5986688606,
./basicStim/23M_FE_O.jpg,,0,12,12,51,,,,,,,,,,,None,None,None,None,SUP,1.878,None,None,,,,,,,,,,,,,,,2015_Nov_02_1800,A,facesParametric,15,59.5986688606,
./basicStim/01F_FE_O.jpg,,0,13,13,2,,,,,,,,,,,None,None,None,None,SUP,1.147,None,None,,,,,,,,,,,,,,,2015_Nov_02_1800,A,facesParametric,15,59.5986688606,
./basicStim/28M_NE_C.jpg,,0,14,14,69,,,,,,,,,,,None,None,None,None,None,None,NTR,1.073,,,,,,,,,,,,,,,2015_Nov_02_1800,A,facesParametric,15,59.5986688606,
./basicStim/03F_HA_O.jpg,,0,15,15,17,,,,,,,,,,,HAP,1.383,None,None,None,None,None,None,,,,,,,,,,,,,,,2015_Nov_02_1800,A,facesParametric,15,59.5986688606,
./basicStim/02F_AN_O.jpg,,0,16,16,7,,,,,,,,,,,None,None,ANG,3.263,None,None,None,None,,,,,,,,,,,,,,,2015_Nov_02_1800,A,facesParametric,15,59.5986688606,
./basicStim/34M_NE_C.jpg,,0,17,17,76,,,,,,,,,,,None,None,None,None,None,None,NTR,2.065,,,,,,,,,,,,,,,2015_Nov_02_1800,A,facesParametric,15,59.5986688606,
./basicStim/21M_AN_O.jpg,,0,18,18,42,,,,,,,,,,,None,None,ANG,1.33,None,None,None,None,,,,,,,,,,,,,,,2015_Nov_02_1800,A,facesParametric,15,59.5986688606,
./basicStim/34M_SP_O.jpg,,0,19,19,75,,,,,,,,,,,None,None,None,None,SUP,1.63,None,None,,,,,,,,,,,,,,,2015_Nov_02_1800,A,facesParametric,15,59.5986688606,
./basicStim/34M_FE_O.jpg,,0,20,20,72,,,,,,,,,,,None,None,None,None,DIS,3.388,None,None,,,,,,,,,,,,,,,2015_Nov_02_1800,A,facesParametric,15,59.5986688606,
./basicStim/07F_HA_O.jpg,,0,21,21,31,,,,,,,,,,,HAP,1.564,None,None,None,None,None,None,,,,,,,,,,,,,,,2015_Nov_02_1800,A,facesParametric,15,59.5986688606,
./basicStim/24M_DI_O.jpg,,0,22,22,57,,,,,,,,,,,None,None,FEA,3.528,None,None,None,None,,,,,,,,,,,,,,,2015_Nov_02_1800,A,facesParametric,15,59.5986688606,
./basicStim/07F_FE_O.jpg,,0,23,23,30,,,,,,,,,,,None,None,None,None,DIS,1.849,None,None,,,,,,,,,,,,,,,2015_Nov_02_1800,A,facesParametric,15,59.5986688606,
./basicStim/07F_NE_C.jpg,,0,24,24,34,,,,,,,,,,,None,None,None,None,None,None,NTR,0.709,,,,,,,,,,,,,,,2015_Nov_02_1800,A,facesParametric,15,59.5986688606,
./basicStim/23M_AN_O.jpg,,0,25,25,49,,,,,,,,,,,None,None,ANG,2.737,None,None,None,None,,,,,,,,,,,,,,,2015_Nov_02_1800,A,facesParametric,15,59.5986688606,
./basicStim/36M_NE_C.jpg,,0,26,26,83,,,,,,,,,,,None,None,None,None,None,None,NTR,1.177,,,,,,,,,,,,,,,2015_Nov_02_1800,A,facesParametric,15,59.5986688606,
./basicStim/09F_SP_O.jpg,,0,27,27,40,,,,,,,,,,,None,None,None,None,SUP,2.841,None,None,,,,,,,,,,,,,,,2015_Nov_02_1800,A,facesParametric,15,59.5986688606,
./basicStim/09F_NE_C.jpg,,0,28,28,41,,,,,,,,,,,None,None,None,None,None,None,NTR,0.939,,,,,,,,,,,,,,,2015_Nov_02_1800,A,facesParametric,15,59.5986688606,
./basicStim/24M_SA_C.jpg,,0,29,29,60,,,,,,,,,,,None,None,None,None,SUP,2.721,None,None,,,,,,,,,,,,,,,2015_Nov_02_1800,A,facesParametric,15,59.5986688606,
./basicStim/06F_NE_C.jpg,,0,30,30,27,,,,,,,,,,,None,None,None,None,None,None,NTR,0.824,,,,,,,,,,,,,,,2015_Nov_02_1800,A,facesParametric,15,59.5986688606,
./basicStim/21M_NE_C.jpg,,0,31,31,48,,,,,,,,,,,None,None,None,None,None,None,NTR,0.794,,,,,,,,,,,,,,,2015_Nov_02_1800,A,facesParametric,15,59.5986688606,
./basicStim/02F_FE_O.jpg,,0,32,32,9,,,,,,,,,,,None,None,FEA,1.865,None,None,None,None,,,,,,,,,,,,,,,2015_Nov_02_1800,A,facesParametric,15,59.5986688606,
./basicStim/34M_DI_O.jpg,,0,33,33,71,,,,,,,,,,,None,None,None,None,DIS,1.945,None,None,,,,,,,,,,,,,,,2015_Nov_02_1800,A,facesParametric,15,59.5986688606,
./basicStim/03F_NE_C.jpg,,0,34,34,20,,,,,,,,,,,None,None,None,None,None,None,NTR,2.498,,,,,,,,,,,,,,,2015_Nov_02_1800,A,facesParametric,15,59.5986688606,
./basicStim/06F_DI_O.jpg,,0,35,35,22,,,,,,,,,,,None,None,FEA,2.35,None,None,None,None,,,,,,,,,,,,,,,2015_Nov_02_1800,A,facesParametric,15,59.5986688606,
./basicStim/36M_HA_O.jpg,,0,36,36,80,,,,,,,,,,,HAP,3.325,None,None,None,None,None,None,,,,,,,,,,,,,,,2015_Nov_02_1800,A,facesParametric,15,59.5986688606,
./basicStim/01F_DI_O.jpg,,0,37,37,1,,,,,,,,,,,None,None,None,None,DIS,2.581,None,None,,,,,,,,,,,,,,,2015_Nov_02_1800,A,facesParametric,15,59.5986688606,
./basicStim/06F_FE_O.jpg,,0,38,38,23,,,,,,,,,,,None,None,None,None,None,None,NTR,1.031,,,,,,,,,,,,,,,2015_Nov_02_1800,A,facesParametric,15,59.5986688606,
./basicStim/28M_HA_O.jpg,,0,39,39,66,,,,,,,,,,,HAP,1.413,None,None,None,None,None,None,,,,,,,,,,,,,,,2015_Nov_02_1800,A,facesParametric,15,59.5986688606,
./basicStim/21M_SP_O.jpg,,0,40,40,47,,,,,,,,,,,None,None,None,None,SUP,5.714,None,None,,,,,,,,,,,,,,,2015_Nov_02_1800,A,facesParametric,15,59.5986688606,
./basicStim/23M_HA_O.jpg,,0,41,41,52,,,,,,,,,,,HAP,1.901,None,None,None,None,None,None,,,,,,,,,,,,,,,2015_Nov_02_1800,A,facesParametric,15,59.5986688606,
./basicStim/01F_AN_O.jpg,,0,42,42,0,,,,,,,,,,,None,None,ANG,1.949,None,None,None,None,,,,,,,,,,,,,,,2015_Nov_02_1800,A,facesParametric,15,59.5986688606,
./basicStim/07F_SA_C.jpg,,0,43,43,32,,,,,,,,,,,SAD,0.596,None,None,None,None,None,None,,,,,,,,,,,,,,,2015_Nov_02_1800,A,facesParametric,15,59.5986688606,
./basicStim/03F_SA_C.jpg,,0,44,44,18,,,,,,,,,,,SAD,0.46,None,None,None,None,None,None,,,,,,,,,,,,,,,2015_Nov_02_1800,A,facesParametric,15,59.5986688606,
./basicStim/02F_SP_O.jpg,,0,45,45,12,,,,,,,,,,,None,None,None,None,SUP,2.316,None,None,,,,,,,,,,,,,,,2015_Nov_02_1800,A,facesParametric,15,59.5986688606,
./basicStim/02F_SA_C.jpg,,0,46,46,11,,,,,,,,,,,SAD,3.51,None,None,None,None,None,None,,,,,,,,,,,,,,,2015_Nov_02_1800,A,facesParametric,15,59.5986688606,
./basicStim/03F_AN_O.jpg,,0,47,47,14,,,,,,,,,,,None,None,ANG,3.475,None,None,None,None,,,,,,,,,,,,,,,2015_Nov_02_1800,A,facesParametric,15,59.5986688606,
./basicStim/09F_HA_O.jpg,,0,48,48,38,,,,,,,,,,,HAP,1.766,None,None,None,None,None,None,,,,,,,,,,,,,,,2015_Nov_02_1800,A,facesParametric,15,59.5986688606,
./basicStim/24M_AN_O.jpg,,0,49,49,56,,,,,,,,,,,None,None,ANG,2.641,None,None,None,None,,,,,,,,,,,,,,,2015_Nov_02_1800,A,facesParametric,15,59.5986688606,
./basicStim/01F_SP_O.jpg,,0,50,50,5,,,,,,,,,,,None,None,None,None,SUP,1.661,None,None,,,,,,,,,,,,,,,2015_Nov_02_1800,A,facesParametric,15,59.5986688606,
./basicStim/23M_SP_O.jpg,,0,51,51,54,,,,,,,,,,,None,None,FEA,3.751,None,None,None,None,,,,,,,,,,,,,,,2015_Nov_02_1800,A,facesParametric,15,59.5986688606,
./basicStim/34M_HA_O.jpg,,0,52,52,73,,,,,,,,,,,HAP,1.111,None,None,None,None,None,None,,,,,,,,,,,,,,,2015_Nov_02_1800,A,facesParametric,15,59.5986688606,
./basicStim/36M_SA_C.jpg,,0,53,53,81,,,,,,,,,,,SAD,2.336,None,None,None,None,None,None,,,,,,,,,,,,,,,2015_Nov_02_1800,A,facesParametric,15,59.5986688606,
./basicStim/21M_SA_C.jpg,,0,54,54,46,,,,,,,,,,,SAD,0.675,None,None,None,None,None,None,,,,,,,,,,,,,,,2015_Nov_02_1800,A,facesParametric,15,59.5986688606,
./basicStim/24M_HA_O.jpg,,0,55,55,59,,,,,,,,,,,HAP,1.483,None,None,None,None,None,None,,,,,,,,,,,,,,,2015_Nov_02_1800,A,facesParametric,15,59.5986688606,
./basicStim/36M_AN_O.jpg,,0,56,56,77,,,,,,,,,,,None,None,None,None,SUP,3.805,None,None,,,,,,,,,,,,,,,2015_Nov_02_1800,A,facesParametric,15,59.5986688606,
./basicStim/06F_AN_O.jpg,,0,57,57,21,,,,,,,,,,,None,None,None,None,DIS,1.228,None,None,,,,,,,,,,,,,,,2015_Nov_02_1800,A,facesParametric,15,59.5986688606,
./basicStim/36M_SP_O.jpg,,0,58,58,82,,,,,,,,,,,None,None,None,None,SUP,3.603,None,None,,,,,,,,,,,,,,,2015_Nov_02_1800,A,facesParametric,15,59.5986688606,
./basicStim/28M_FE_O.jpg,,0,59,59,65,,,,,,,,,,,None,None,FEA,3.994,None,None,None,None,,,,,,,,,,,,,,,2015_Nov_02_1800,A,facesParametric,15,59.5986688606,
./basicStim/09F_DI_O.jpg,,0,60,60,36,,,,,,,,,,,None,None,None,None,DIS,1.764,None,None,,,,,,,,,,,,,,,2015_Nov_02_1800,A,facesParametric,15,59.5986688606,
./basicStim/34M_AN_O.jpg,,0,61,61,70,,,,,,,,,,,None,None,ANG,2.557,None,None,None,None,,,,,,,,,,,,,,,2015_Nov_02_1800,A,facesParametric,15,59.5986688606,
./basicStim/07F_AN_O.jpg,,0,62,62,28,,,,,,,,,,,None,None,ANG,2.249,None,None,None,None,,,,,,,,,,,,,,,2015_Nov_02_1800,A,facesParametric,15,59.5986688606,
./basicStim/34M_SA_C.jpg,,0,63,63,74,,,,,,,,,,,SAD,6.526,None,None,None,None,None,None,,,,,,,,,,,,,,,2015_Nov_02_1800,A,facesParametric,15,59.5986688606,
./basicStim/28M_AN_O.jpg,,0,64,64,63,,,,,,,,,,,None,None,None,None,DIS,5.316,None,None,,,,,,,,,,,,,,,2015_Nov_02_1800,A,facesParametric,15,59.5986688606,
./basicStim/01F_SA_C.jpg,,0,65,65,4,,,,,,,,,,,SAD,2.032,None,None,None,None,None,None,,,,,,,,,,,,,,,2015_Nov_02_1800,A,facesParametric,15,59.5986688606,
./basicStim/36M_DI_O.jpg,,0,66,66,78,,,,,,,,,,,None,None,None,None,DIS,2.083,None,None,,,,,,,,,,,,,,,2015_Nov_02_1800,A,facesParametric,15,59.5986688606,
./basicStim/02F_HA_O.jpg,,0,67,67,10,,,,,,,,,,,HAP,3.324,None,None,None,None,None,None,,,,,,,,,,,,,,,2015_Nov_02_1800,A,facesParametric,15,59.5986688606,
./basicStim/21M_DI_O.jpg,,0,68,68,43,,,,,,,,,,,None,None,None,None,DIS,2.891,None,None,,,,,,,,,,,,,,,2015_Nov_02_1800,A,facesParametric,15,59.5986688606,
./basicStim/24M_NE_C.jpg,,0,69,69,62,,,,,,,,,,,None,None,None,None,None,None,NTR,2.952,,,,,,,,,,,,,,,2015_Nov_02_1800,A,facesParametric,15,59.5986688606,
./basicStim/09F_FE_O.jpg,,0,70,70,37,,,,,,,,,,,None,None,None,None,DIS,1.275,None,None,,,,,,,,,,,,,,,2015_Nov_02_1800,A,facesParametric,15,59.5986688606,
./basicStim/23M_DI_O.jpg,,0,71,71,50,,,,,,,,,,,None,None,ANG,3.646,None,None,None,None,,,,,,,,,,,,,,,2015_Nov_02_1800,A,facesParametric,15,59.5986688606,
./basicStim/21M_FE_O.jpg,,0,72,72,44,,,,,,,,,,,None,None,None,None,SUP,1.529,None,None,,,,,,,,,,,,,,,2015_Nov_02_1800,A,facesParametric,15,59.5986688606,
./basicStim/03F_SP_O.jpg,,0,73,73,19,,,,,,,,,,,HAP,1.957,None,None,None,None,None,None,,,,,,,,,,,,,,,2015_Nov_02_1800,A,facesParametric,15,59.5986688606,
./basicStim/09F_AN_O.jpg,,0,74,74,35,,,,,,,,,,,None,None,ANG,1.895,None,None,None,None,,,,,,,,,,,,,,,2015_Nov_02_1800,A,facesParametric,15,59.5986688606,
./basicStim/07F_SP_O.jpg,,0,75,75,33,,,,,,,,,,,None,None,FEA,2.859,None,None,None,None,,,,,,,,,,,,,,,2015_Nov_02_1800,A,facesParametric,15,59.5986688606,
./basicStim/01F_NE_C.jpg,,0,76,76,6,,,,,,,,,,,None,None,None,None,None,None,NTR,1.609,,,,,,,,,,,,,,,2015_Nov_02_1800,A,facesParametric,15,59.5986688606,
./basicStim/07F_DI_O.jpg,,0,77,77,29,,,,,,,,,,,None,None,None,None,DIS,1.198,None,None,,,,,,,,,,,,,,,2015_Nov_02_1800,A,facesParametric,15,59.5986688606,
./basicStim/06F_HA_O.jpg,,0,78,78,24,,,,,,,,,,,HAP,0.967,None,None,None,None,None,None,,,,,,,,,,,,,,,2015_Nov_02_1800,A,facesParametric,15,59.5986688606,
./basicStim/02F_NE_C.jpg,,0,79,79,13,,,,,,,,,,,None,None,None,None,None,None,NTR,1.225,,,,,,,,,,,,,,,2015_Nov_02_1800,A,facesParametric,15,59.5986688606,
./basicStim/06F_SP_O.jpg,,0,80,80,26,,,,,,,,,,,None,None,None,None,SUP,5.416,None,None,,,,,,,,,,,,,,,2015_Nov_02_1800,A,facesParametric,15,59.5986688606,
./basicStim/23M_SA_C.jpg,,0,81,81,53,,,,,,,,,,,None,None,None,None,SUP,5.875,None,None,,,,,,,,,,,,,,,2015_Nov_02_1800,A,facesParametric,15,59.5986688606,
./basicStim/24M_SP_O.jpg,,0,82,82,61,,,,,,,,,,,None,None,None,None,SUP,1.348,None,None,,,,,,,,,,,,,,,2015_Nov_02_1800,A,facesParametric,15,59.5986688606,
./basicStim/03F_FE_O.jpg,,0,83,83,16,,,,,,,,,,,None,None,None,None,DIS,1.082,None,None,,,,,,,,,,,,,,,2015_Nov_02_1800,A,facesParametric,15,59.5986688606,
,,,,,,,,,,,,,,,,,,,,,,,,return,3.49827694893,,,,,,,,,,,,,2015_Nov_02_1800,A,facesParametric,15,59.5986688606,
,,,,,,,,,,,,,,return,12.0162670612,,,,,,,,,,,,,,,,,,,,,,,2015_Nov_02_1800,A,facesParametric,15,59.5986688606,
,,,,,,,,,,,,,,,,,,,,,,,,return,4.35751199722,,,,,,,,,,,,,2015_Nov_02_1800,A,facesParametric,15,59.5986688606,
,,,,,,,,,,,,,,,,,,,,,,,,,,return,4.30726408958,,,,,,,,,,,2015_Nov_02_1800,A,facesParametric,15,59.5986688606,
./stim/MorphM10_06_orig.jpg,0,,,,,0,0,0,0,,,,,,,,,,,,,,,,,,,-10.576171875,-13.154296875,0,0,1,3.59977293015,,,,,2015_Nov_02_1800,A,facesParametric,15,59.5986688606,
./stim/MorphF9_03_orig.jpg,1,,,,,0,1,1,1,,,,,,,,,,,,,,,,,,,-10.810546875,-13.037109375,1,0,0,1.02078104019,,,,,2015_Nov_02_1800,A,facesParametric,15,59.5986688606,
./stim/MorphM4_05_orig.jpg,2,,,,,0,2,2,2,,,,,,,,,,,,,,,,,,,-10.83984375,-12.919921875,0,0,1,4.77530789375,,,,,2015_Nov_02_1800,A,facesParametric,15,59.5986688606,
./stim/MorphF3_04_orig.jpg,3,,,,,0,3,3,3,,,,,,,,,,,,,,,,,,,-10.8984375,-13.06640625,0,0,1,2.61301898956,,,,,2015_Nov_02_1800,A,facesParametric,15,59.5986688606,
./stim/MorphM6_04_orig.jpg,4,,,,,0,4,4,4,,,,,,,,,,,,,,,,,,,-10.8984375,-13.06640625,1,0,0,1.25496602058,,,,,2015_Nov_02_1800,A,facesParametric,15,59.5986688606,
./stim/MorphM10_03_orig.jpg,5,,,,,0,5,5,5,,,,,,,,,,,,,,,,,,,-10.869140625,-13.037109375,1,0,0,1.05459094048,,,,,2015_Nov_02_1800,A,facesParametric,15,59.5986688606,
./stim/MorphF4_05_orig.jpg,6,,,,,0,6,6,6,,,,,,,,,,,,,,,,,,,-10.869140625,-13.037109375,1,0,0,1.10474801064,,,,,2015_Nov_02_1800,A,facesParametric,15,59.5986688606,
./stim/MorphF1_06_orig.jpg,7,,,,,0,7,7,7,,,,,,,,,,,,,,,,,,,-10.8984375,-12.919921875,1,0,0,2.78123998642,,,,,2015_Nov_02_1800,A,facesParametric,15,59.5986688606,
./stim/MorphF10_08_orig.jpg,8,,,,,0,8,8,8,,,,,,,,,,,,,,,,,,,-10.8984375,-12.919921875,0,0,1,0.652168989182,,,,,2015_Nov_02_1800,A,facesParametric,15,59.5986688606,
./stim/MorphF6_00_orig.jpg,9,,,,,0,9,9,9,,,,,,,,,,,,,,,,,,,-10.869140625,-12.890625,1,0,0,2.2279510498,,,,,2015_Nov_02_1800,A,facesParametric,15,59.5986688606,
./stim/MorphM4_06_orig.jpg,10,,,,,0,10,10,10,,,,,,,,,,,,,,,,,,,-10.869140625,-12.890625,0,0,1,1.18740415573,,,,,2015_Nov_02_1800,A,facesParametric,15,59.5986688606,
./stim/MorphM7_06_orig.jpg,11,,,,,0,11,11,11,,,,,,,,,,,,,,,,,,,-10.869140625,-12.890625,0,0,1,1.50696492195,,,,,2015_Nov_02_1800,A,facesParametric,15,59.5986688606,
./stim/MorphM1_02_orig.jpg,12,,,,,0,12,12,12,,,,,,,,,,,,,,,,,,,-10.8984375,-12.890625,1,0,0,1.23952007294,,,,,2015_Nov_02_1800,A,facesParametric,15,59.5986688606,
./stim/MorphM9_04_orig.jpg,13,,,,,0,13,13,13,,,,,,,,,,,,,,,,,,,-10.927734375,-12.861328125,1,0,0,1.17168593407,,,,,2015_Nov_02_1800,A,facesParametric,15,59.5986688606,
./stim/MorphM1_06_orig.jpg,14,,,,,0,14,14,14,,,,,,,,,,,,,,,,,,,-10.95703125,-12.890625,1,0,0,2.36110687256,,,,,2015_Nov_02_1800,A,facesParametric,15,59.5986688606,
./stim/MorphF1_09_orig.jpg,15,,,,,0,15,15,15,,,,,,,,,,,,,,,,,,,-10.986328125,-12.919921875,1,0,0,2.02647185326,,,,,2015_Nov_02_1800,A,facesParametric,15,59.5986688606,
./stim/MorphM8_07_orig.jpg,16,,,,,0,16,16,16,,,,,,,,,,,,,,,,,,,-10.986328125,-12.919921875,0,0,1,1.37338614464,,,,,2015_Nov_02_1800,A,facesParametric,15,59.5986688606,
./stim/MorphF10_03_orig.jpg,17,,,,,0,17,17,17,,,,,,,,,,,,,,,,,,,-11.1328125,-12.978515625,1,0,0,2.14499497414,,,,,2015_Nov_02_1800,A,facesParametric,15,59.5986688606,
./stim/MorphM10_04_orig.jpg,18,,,,,0,18,18,18,,,,,,,,,,,,,,,,,,,-11.162109375,-13.0078125,0,0,1,3.06578803062,,,,,2015_Nov_02_1800,A,facesParametric,15,59.5986688606,
./stim/MorphF8_03_orig.jpg,19,,,,,0,19,19,19,,,,,,,,,,,,,,,,,,,-11.19140625,-13.037109375,1,0,0,1.25510191917,,,,,2015_Nov_02_1800,A,facesParametric,15,59.5986688606,
./stim/MorphM1_04_orig.jpg,20,,,,,0,20,20,20,,,,,,,,,,,,,,,,,,,-11.19140625,-13.037109375,1,0,0,3.0660469532,,,,,2015_Nov_02_1800,A,facesParametric,15,59.5986688606,
./stim/MorphM10_05_orig.jpg,21,,,,,0,21,21,21,,,,,,,,,,,,,,,,,,,-11.1328125,-13.037109375,0,0,1,0.953727006912,,,,,2015_Nov_02_1800,A,facesParametric,15,59.5986688606,
./stim/MorphF10_09_orig.jpg,22,,,,,0,22,22,22,,,,,,,,,,,,,,,,,,,-11.1328125,-13.037109375,0,0,1,1.94316792488,,,,,2015_Nov_02_1800,A,facesParametric,15,59.5986688606,
./stim/MorphF9_02_orig.jpg,23,,,,,0,23,23,23,,,,,,,,,,,,,,,,,,,-11.1328125,-13.06640625,1,0,0,2.32659006119,,,,,2015_Nov_02_1800,A,facesParametric,15,59.5986688606,
./stim/MorphM5_04_orig.jpg,24,,,,,0,24,24,24,,,,,,,,,,,,,,,,,,,-11.162109375,-13.037109375,0,0,1,2.71425700188,,,,,2015_Nov_02_1800,A,facesParametric,15,59.5986688606,
./stim/MorphM2_02_orig.jpg,25,,,,,0,25,25,25,,,,,,,,,,,,,,,,,,,-11.25,-13.06640625,1,0,0,2.56360697746,,,,,2015_Nov_02_1800,A,facesParametric,15,59.5986688606,
./stim/MorphF5_07_orig.jpg,26,,,,,0,26,26,26,,,,,,,,,,,,,,,,,,,-11.25,-13.06640625,0,0,1,2.76410293579,,,,,2015_Nov_02_1800,A,facesParametric,15,59.5986688606,
./stim/MorphM5_10_orig.jpg,27,,,,,0,27,27,27,,,,,,,,,,,,,,,,,,,-11.279296875,-13.06640625,0,0,1,0.786418914795,,,,,2015_Nov_02_1800,A,facesParametric,15,59.5986688606,
./stim/MorphM7_00_orig.jpg,28,,,,,0,28,28,28,,,,,,,,,,,,,,,,,,,-11.279296875,-13.0078125,1,0,0,1.13834905624,,,,,2015_Nov_02_1800,A,facesParametric,15,59.5986688606,
./stim/MorphM8_02_orig.jpg,29,,,,,0,29,29,29,,,,,,,,,,,,,,,,,,,-11.25,-13.037109375,0,0,1,1.77523899078,,,,,2015_Nov_02_1800,A,facesParametric,15,59.5986688606,
./stim/MorphF7_10_orig.jpg,30,,,,,0,30,30,30,,,,,,,,,,,,,,,,,,,-11.25,-13.037109375,0,0,1,0.88729095459,,,,,2015_Nov_02_1800,A,facesParametric,15,59.5986688606,
./stim/MorphF9_08_orig.jpg,31,,,,,0,31,31,31,,,,,,,,,,,,,,,,,,,-11.25,-13.037109375,0,0,1,2.00953102112,,,,,2015_Nov_02_1800,A,facesParametric,15,59.5986688606,
./stim/MorphM10_02_orig.jpg,32,,,,,0,32,32,32,,,,,,,,,,,,,,,,,,,-11.25,-13.037109375,1,0,0,1.10470890999,,,,,2015_Nov_02_1800,A,facesParametric,15,59.5986688606,
./stim/MorphF6_03_orig.jpg,33,,,,,0,33,33,33,,,,,,,,,,,,,,,,,,,-11.25,-13.0078125,1,0,0,1.539083004,,,,,2015_Nov_02_1800,A,facesParametric,15,59.5986688606,
./stim/MorphM5_07_orig.jpg,34,,,,,0,34,34,34,,,,,,,,,,,,,,,,,,,-11.337890625,-13.154296875,0,0,1,5.99842691422,,,,,2015_Nov_02_1800,A,facesParametric,15,59.5986688606,
./stim/MorphF6_01_orig.jpg,35,,,,,0,35,35,35,,,,,,,,,,,,,,,,,,,-11.279296875,-13.0078125,1,0,0,1.15525889397,,,,,2015_Nov_02_1800,A,facesParametric,15,59.5986688606,
./stim/MorphM10_01_orig.jpg,36,,,,,0,36,36,36,,,,,,,,,,,,,,,,,,,-11.337890625,-13.037109375,1,0,0,2.89824795723,,,,,2015_Nov_02_1800,A,facesParametric,15,59.5986688606,
./stim/MorphF3_03_orig.jpg,37,,,,,0,37,37,37,,,,,,,,,,,,,,,,,,,-11.30859375,-12.978515625,1,0,0,2.2110478878,,,,,2015_Nov_02_1800,A,facesParametric,15,59.5986688606,
./stim/MorphF7_02_orig.jpg,38,,,,,0,38,38,38,,,,,,,,,,,,,,,,,,,-11.3671875,-12.94921875,1,0,0,4.97670602798,,,,,2015_Nov_02_1800,A,facesParametric,15,59.5986688606,
./stim/MorphM5_08_orig.jpg,39,,,,,0,39,39,39,,,,,,,,,,,,,,,,,,,-11.3671875,-12.94921875,0,0,1,1.87425208092,,,,,2015_Nov_02_1800,A,facesParametric,15,59.5986688606,
./stim/MorphF8_00_orig.jpg,40,,,,,0,40,40,40,,,,,,,,,,,,,,,,,,,-11.3671875,-12.94921875,1,0,0,0.937293052673,,,,,2015_Nov_02_1800,A,facesParametric,15,59.5986688606,
./stim/MorphM9_10_orig.jpg,41,,,,,0,41,41,41,,,,,,,,,,,,,,,,,,,-11.3671875,-12.94921875,0,0,1,0.869342088699,,,,,2015_Nov_02_1800,A,facesParametric,15,59.5986688606,
./stim/MorphF5_01_orig.jpg,42,,,,,0,42,42,42,,,,,,,,,,,,,,,,,,,-11.3671875,-12.94921875,1,0,0,1.62387013435,,,,,2015_Nov_02_1800,A,facesParametric,15,59.5986688606,
./stim/MorphF2_00_orig.jpg,43,,,,,0,43,43,43,,,,,,,,,,,,,,,,,,,-11.3671875,-12.94921875,1,0,0,2.37699699402,,,,,2015_Nov_02_1800,A,facesParametric,15,59.5986688606,
./stim/MorphF10_02_orig.jpg,44,,,,,0,44,44,44,,,,,,,,,,,,,,,,,,,-11.396484375,-12.94921875,1,0,0,1.77293610573,,,,,2015_Nov_02_1800,A,facesParametric,15,59.5986688606,
./stim/MorphM7_02_orig.jpg,45,,,,,0,45,45,45,,,,,,,,,,,,,,,,,,,-11.3671875,-12.861328125,1,0,0,2.17744708061,,,,,2015_Nov_02_1800,A,facesParametric,15,59.5986688606,
./stim/MorphF6_07_orig.jpg,46,,,,,0,46,46,46,,,,,,,,,,,,,,,,,,,-11.337890625,-12.744140625,1,0,0,2.07528591156,,,,,2015_Nov_02_1800,A,facesParametric,15,59.5986688606,
./stim/MorphM4_09_orig.jpg,47,,,,,0,47,47,47,,,,,,,,,,,,,,,,,,,-11.337890625,-12.71484375,0,0,1,1.20553708076,,,,,2015_Nov_02_1800,A,facesParametric,15,59.5986688606,
./stim/MorphM8_04_orig.jpg,48,,,,,0,48,48,48,,,,,,,,,,,,,,,,,,,-11.3671875,-12.71484375,0,0,1,2.37865400314,,,,,2015_Nov_02_1800,A,facesParametric,15,59.5986688606,
./stim/MorphF8_05_orig.jpg,49,,,,,0,49,49,49,,,,,,,,,,,,,,,,,,,-10.576171875,-11.953125,1,0,0,6.51619100571,,,,,2015_Nov_02_1800,A,facesParametric,15,59.5986688606,
./stim/MorphF6_06_orig.jpg,50,,,,,0,50,50,50,,,,,,,,,,,,,,,,,,,-10.546875,-11.982421875,1,0,0,1.75727510452,,,,,2015_Nov_02_1800,A,facesParametric,15,59.5986688606,
./stim/MorphF2_03_orig.jpg,51,,,,,0,51,51,51,,,,,,,,,,,,,,,,,,,-10.458984375,-11.923828125,0,0,1,2.02486896515,,,,,2015_Nov_02_1800,A,facesParametric,15,59.5986688606,
./stim/MorphM2_10_orig.jpg,52,,,,,0,52,52,52,,,,,,,,,,,,,,,,,,,-10.458984375,-11.923828125,0,0,1,3.34976100922,,,,,2015_Nov_02_1800,A,facesParametric,15,59.5986688606,
./stim/MorphF9_07_orig.jpg,53,,,,,0,53,53,53,,,,,,,,,,,,,,,,,,,-10.517578125,-11.89453125,0,0,1,2.76381778717,,,,,2015_Nov_02_1800,A,facesParametric,15,59.5986688606,
./stim/MorphM3_07_orig.jpg,54,,,,,0,54,54,54,,,,,,,,,,,,,,,,,,,-10.576171875,-11.89453125,0,0,1,2.63019990921,,,,,2015_Nov_02_1800,A,facesParametric,15,59.5986688606,
./stim/MorphM4_01_orig.jpg,55,,,,,0,55,55,55,,,,,,,,,,,,,,,,,,,-10.576171875,-11.89453125,1,0,0,1.16989684105,,,,,2015_Nov_02_1800,A,facesParametric,15,59.5986688606,
./stim/MorphM9_08_orig.jpg,56,,,,,0,56,56,56,,,,,,,,,,,,,,,,,,,-10.634765625,-11.89453125,0,0,1,4.12142205238,,,,,2015_Nov_02_1800,A,facesParametric,15,59.5986688606,
./stim/MorphM7_04_orig.jpg,57,,,,,0,57,57,57,,,,,,,,,,,,,,,,,,,-10.634765625,-11.8359375,1,0,0,1.47205400467,,,,,2015_Nov_02_1800,A,facesParametric,15,59.5986688606,
./stim/MorphM6_08_orig.jpg,58,,,,,0,58,58,58,,,,,,,,,,,,,,,,,,,-10.60546875,-11.806640625,1,0,0,3.06407809258,,,,,2015_Nov_02_1800,A,facesParametric,15,59.5986688606,
./stim/MorphM7_08_orig.jpg,59,,,,,0,59,59,59,,,,,,,,,,,,,,,,,,,-10.634765625,-11.8359375,0,0,1,1.45702981949,,,,,2015_Nov_02_1800,A,facesParametric,15,59.5986688606,
./stim/MorphF9_09_orig.jpg,60,,,,,0,60,60,60,,,,,,,,,,,,,,,,,,,-10.576171875,-11.77734375,0,0,1,1.38771796227,,,,,2015_Nov_02_1800,A,facesParametric,15,59.5986688606,
./stim/MorphF10_06_orig.jpg,61,,,,,0,61,61,61,,,,,,,,,,,,,,,,,,,-10.576171875,-11.77734375,0,0,1,1.00431799889,,,,,2015_Nov_02_1800,A,facesParametric,15,59.5986688606,
./stim/MorphM4_03_orig.jpg,62,,,,,0,62,62,62,,,,,,,,,,,,,,,,,,,-10.48828125,-11.71875,1,0,0,0.953804969788,,,,,2015_Nov_02_1800,A,facesParametric,15,59.5986688606,
./stim/MorphM6_03_orig.jpg,63,,,,,0,63,63,63,,,,,,,,,,,,,,,,,,,-10.37109375,-11.66015625,0,0,1,6.38289093971,,,,,2015_Nov_02_1800,A,facesParametric,15,59.5986688606,
./stim/MorphM3_02_orig.jpg,64,,,,,0,64,64,64,,,,,,,,,,,,,,,,,,,-10.37109375,-11.66015625,0,0,1,3.33377408981,,,,,2015_Nov_02_1800,A,facesParametric,15,59.5986688606,
./stim/MorphF3_06_orig.jpg,65,,,,,0,65,65,65,,,,,,,,,,,,,,,,,,,-10.37109375,-11.66015625,1,0,0,1.44008398056,,,,,2015_Nov_02_1800,A,facesParametric,15,59.5986688606,
./stim/MorphM1_07_orig.jpg,66,,,,,0,66,66,66,,,,,,,,,,,,,,,,,,,-10.37109375,-11.66015625,1,0,0,1.65813302994,,,,,2015_Nov_02_1800,A,facesParametric,15,59.5986688606,
./stim/MorphF4_10_orig.jpg,67,,,,,0,67,67,67,,,,,,,,,,,,,,,,,,,-10.37109375,-11.66015625,0,0,1,1.1551129818,,,,,2015_Nov_02_1800,A,facesParametric,15,59.5986688606,
./stim/MorphF7_06_orig.jpg,68,,,,,0,68,68,68,,,,,,,,,,,,,,,,,,,-10.341796875,-11.6015625,1,0,0,2.81438016891,,,,,2015_Nov_02_1800,A,facesParametric,15,59.5986688606,
./stim/MorphM7_03_orig.jpg,69,,,,,0,69,69,69,,,,,,,,,,,,,,,,,,,-10.341796875,-11.6015625,0,0,1,1.27257990837,,,,,2015_Nov_02_1800,A,facesParametric,15,59.5986688606,
./stim/MorphM3_06_orig.jpg,70,,,,,0,70,70,70,,,,,,,,,,,,,,,,,,,-10.341796875,-11.6015625,0,0,1,1.54016399384,,,,,2015_Nov_02_1800,A,facesParametric,15,59.5986688606,
./stim/MorphF1_10_orig.jpg,71,,,,,0,71,71,71,,,,,,,,,,,,,,,,,,,-10.283203125,-11.513671875,0,0,1,4.02031588554,,,,,2015_Nov_02_1800,A,facesParametric,15,59.5986688606,
./stim/MorphF7_03_orig.jpg,72,,,,,0,72,72,72,,,,,,,,,,,,,,,,,,,-10.13671875,-11.455078125,1,0,0,1.23877000809,,,,,2015_Nov_02_1800,A,facesParametric,15,59.5986688606,
./stim/MorphF10_01_orig.jpg,73,,,,,0,73,73,73,,,,,,,,,,,,,,,,,,,-10.01953125,-11.396484375,1,0,0,5.83019995689,,,,,2015_Nov_02_1800,A,facesParametric,15,59.5986688606,
./stim/MorphF6_08_orig.jpg,74,,,,,0,74,74,74,,,,,,,,,,,,,,,,,,,-10.01953125,-11.396484375,0,0,1,1.0204179287,,,,,2015_Nov_02_1800,A,facesParametric,15,59.5986688606,
./stim/MorphM8_10_orig.jpg,75,,,,,0,75,75,75,,,,,,,,,,,,,,,,,,,-9.990234375,-11.42578125,0,0,1,1.52406191826,,,,,2015_Nov_02_1800,A,facesParametric,15,59.5986688606,
./stim/MorphM9_03_orig.jpg,76,,,,,0,76,76,76,,,,,,,,,,,,,,,,,,,-9.990234375,-11.42578125,1,0,0,1.23812103271,,,,,2015_Nov_02_1800,A,facesParametric,15,59.5986688606,
./stim/MorphM3_10_orig.jpg,77,,,,,0,77,77,77,,,,,,,,,,,,,,,,,,,-9.9609375,-11.396484375,0,0,1,0.868558883667,,,,,2015_Nov_02_1800,A,facesParametric,15,59.5986688606,
./stim/MorphM1_05_orig.jpg,78,,,,,0,78,78,78,,,,,,,,,,,,,,,,,,,-9.814453125,-11.279296875,1,0,0,2.59591507912,,,,,2015_Nov_02_1800,A,facesParametric,15,59.5986688606,
./stim/MorphM10_10_orig.jpg,79,,,,,0,79,79,79,,,,,,,,,,,,,,,,,,,-9.814453125,-11.25,0,0,1,1.02124619484,,,,,2015_Nov_02_1800,A,facesParametric,15,59.5986688606,
./stim/MorphM1_10_orig.jpg,80,,,,,0,80,80,80,,,,,,,,,,,,,,,,,,,-9.814453125,-11.25,0,0,1,1.50619292259,,,,,2015_Nov_02_1800,A,facesParametric,15,59.5986688606,
./stim/MorphF5_03_orig.jpg,81,,,,,0,81,81,81,,,,,,,,,,,,,,,,,,,-9.814453125,-11.25,1,0,0,2.04230189323,,,,,2015_Nov_02_1800,A,facesParametric,15,59.5986688606,
./stim/MorphM5_06_orig.jpg,82,,,,,0,82,82,82,,,,,,,,,,,,,,,,,,,-9.90234375,-11.220703125,1,0,0,3.34896802902,,,,,2015_Nov_02_1800,A,facesParametric,15,59.5986688606,
./stim/MorphM10_08_orig.jpg,83,,,,,0,83,83,83,,,,,,,,,,,,,,,,,,,-9.990234375,-11.220703125,0,0,1,1.89249420166,,,,,2015_Nov_02_1800,A,facesParametric,15,59.5986688606,
./stim/MorphM1_03_orig.jpg,84,,,,,0,84,84,84,,,,,,,,,,,,,,,,,,,-9.990234375,-11.220703125,1,0,0,1.94221401215,,,,,2015_Nov_02_1800,A,facesParametric,15,59.5986688606,
./stim/MorphF3_02_orig.jpg,85,,,,,0,85,85,85,,,,,,,,,,,,,,,,,,,-9.931640625,-11.19140625,1,0,0,1.32397890091,,,,,2015_Nov_02_1800,A,facesParametric,15,59.5986688606,
./stim/MorphM3_08_orig.jpg,86,,,,,0,86,86,86,,,,,,,,,,,,,,,,,,,-9.931640625,-11.19140625,1,0,0,1.35516905785,,,,,2015_Nov_02_1800,A,facesParametric,15,59.5986688606,
./stim/MorphM9_06_orig.jpg,87,,,,,0,87,87,87,,,,,,,,,,,,,,,,,,,-9.90234375,-11.220703125,1,0,0,2.31031298637,,,,,2015_Nov_02_1800,A,facesParametric,15,59.5986688606,
./stim/MorphM4_08_orig.jpg,88,,,,,0,88,88,88,,,,,,,,,,,,,,,,,,,-9.90234375,-11.220703125,0,0,1,0.884538888931,,,,,2015_Nov_02_1800,A,facesParametric,15,59.5986688606,
./stim/MorphM1_00_orig.jpg,89,,,,,0,89,89,89,,,,,,,,,,,,,,,,,,,-9.9609375,-11.19140625,1,0,0,3.7373239994,,,,,2015_Nov_02_1800,A,facesParametric,15,59.5986688606,
./stim/MorphF5_00_orig.jpg,90,,,,,0,90,90,90,,,,,,,,,,,,,,,,,,,-10.107421875,-11.015625,1,0,0,1.15342187881,,,,,2015_Nov_02_1800,A,facesParametric,15,59.5986688606,
./stim/MorphM3_00_orig.jpg,91,,,,,0,91,91,91,,,,,,,,,,,,,,,,,,,-9.990234375,-10.751953125,1,0,0,3.55227708817,,,,,2015_Nov_02_1800,A,facesParametric,15,59.5986688606,
./stim/MorphF6_10_orig.jpg,92,,,,,0,92,92,92,,,,,,,,,,,,,,,,,,,-9.990234375,-10.751953125,0,0,1,0.902075052261,,,,,2015_Nov_02_1800,A,facesParametric,15,59.5986688606,
./stim/MorphF9_01_orig.jpg,93,,,,,0,93,93,93,,,,,,,,,,,,,,,,,,,-9.990234375,-10.634765625,1,0,0,1.45692777634,,,,,2015_Nov_02_1800,A,facesParametric,15,59.5986688606,
./stim/MorphM9_05_orig.jpg,94,,,,,0,94,94,94,,,,,,,,,,,,,,,,,,,-9.873046875,-10.78125,1,0,0,2.8478269577,,,,,2015_Nov_02_1800,A,facesParametric,15,59.5986688606,
./stim/MorphF4_07_orig.jpg,95,,,,,0,95,95,95,,,,,,,,,,,,,,,,,,,-9.873046875,-10.78125,0,0,1,1.1533370018,,,,,2015_Nov_02_1800,A,facesParametric,15,59.5986688606,
./stim/MorphF2_05_orig.jpg,96,,,,,0,96,96,96,,,,,,,,,,,,,,,,,,,-9.873046875,-10.78125,0,0,1,1.15322804451,,,,,2015_Nov_02_1800,A,facesParametric,15,59.5986688606,
./stim/MorphF4_00_orig.jpg,97,,,,,0,97,97,97,,,,,,,,,,,,,,,,,,,-9.873046875,-10.78125,1,0,0,0.970602035522,,,,,2015_Nov_02_1800,A,facesParametric,15,59.5986688606,
./stim/MorphM4_02_orig.jpg,98,,,,,0,98,98,98,,,,,,,,,,,,,,,,,,,-9.84375,-10.810546875,1,0,0,1.23900699615,,,,,2015_Nov_02_1800,A,facesParametric,15,59.5986688606,
./stim/MorphM5_03_orig.jpg,99,,,,,0,99,99,99,,,,,,,,,,,,,,,,,,,-9.84375,-10.751953125,1,0,0,1.23923110962,,,,,2015_Nov_02_1800,A,facesParametric,15,59.5986688606,
./stim/MorphM7_07_orig.jpg,100,,,,,0,100,100,100,,,,,,,,,,,,,,,,,,,-9.873046875,-10.693359375,0,0,1,1.18871688843,,,,,2015_Nov_02_1800,A,facesParametric,15,59.5986688606,
./stim/MorphF9_06_orig.jpg,101,,,,,0,101,101,101,,,,,,,,,,,,,,,,,,,-9.873046875,-10.693359375,1,0,0,1.47343683243,,,,,2015_Nov_02_1800,A,facesParametric,15,59.5986688606,
./stim/MorphF4_09_orig.jpg,102,,,,,0,102,102,102,,,,,,,,,,,,,,,,,,,-9.931640625,-10.751953125,0,0,1,0.920744180679,,,,,2015_Nov_02_1800,A,facesParametric,15,59.5986688606,
./stim/MorphF2_02_orig.jpg,103,,,,,0,103,103,103,,,,,,,,,,,,,,,,,,,-9.9609375,-10.751953125,1,0,0,1.42114686966,,,,,2015_Nov_02_1800,A,facesParametric,15,59.5986688606,
./stim/MorphM5_02_orig.jpg,104,,,,,0,104,104,104,,,,,,,,,,,,,,,,,,,-10.01953125,-10.693359375,1,0,0,2.93124294281,,,,,2015_Nov_02_1800,A,facesParametric,15,59.5986688606,
./stim/MorphF10_07_orig.jpg,105,,,,,0,105,105,105,,,,,,,,,,,,,,,,,,,-10.078125,-10.72265625,0,0,1,2.88187909126,,,,,2015_Nov_02_1800,A,facesParametric,15,59.5986688606,
./stim/MorphM6_05_orig.jpg,106,,,,,0,106,106,106,,,,,,,,,,,,,,,,,,,-10.078125,-10.72265625,1,0,0,0.934890985489,,,,,2015_Nov_02_1800,A,facesParametric,15,59.5986688606,
./stim/MorphF6_09_orig.jpg,107,,,,,0,107,107,107,,,,,,,,,,,,,,,,,,,-10.107421875,-10.751953125,1,0,0,1.79204201698,,,,,2015_Nov_02_1800,A,facesParametric,15,59.5986688606,
./stim/MorphF2_01_orig.jpg,108,,,,,0,108,108,108,,,,,,,,,,,,,,,,,,,-10.13671875,-10.83984375,1,0,0,1.72326207161,,,,,2015_Nov_02_1800,A,facesParametric,15,59.5986688606,
./stim/MorphM4_07_orig.jpg,109,,,,,0,109,109,109,,,,,,,,,,,,,,,,,,,-10.3125,-10.810546875,0,0,1,0.970381975174,,,,,2015_Nov_02_1800,A,facesParametric,15,59.5986688606,
./stim/MorphF7_07_orig.jpg,110,,,,,0,110,110,110,,,,,,,,,,,,,,,,,,,-10.166015625,-10.72265625,1,0,0,3.16636300087,,,,,2015_Nov_02_1800,A,facesParametric,15,59.5986688606,
./stim/MorphM1_08_orig.jpg,111,,,,,0,111,111,111,,,,,,,,,,,,,,,,,,,-10.107421875,-10.72265625,1,0,0,1.28929185867,,,,,2015_Nov_02_1800,A,facesParametric,15,59.5986688606,
./stim/MorphF2_08_orig.jpg,112,,,,,0,112,112,112,,,,,,,,,,,,,,,,,,,-10.107421875,-10.693359375,0,0,1,0.952181816101,,,,,2015_Nov_02_1800,A,facesParametric,15,59.5986688606,
./stim/MorphF5_02_orig.jpg,113,,,,,0,113,113,113,,,,,,,,,,,,,,,,,,,-10.107421875,-10.634765625,1,0,0,1.020622015,,,,,2015_Nov_02_1800,A,facesParametric,15,59.5986688606,
./stim/MorphM7_01_orig.jpg,114,,,,,0,114,114,114,,,,,,,,,,,,,,,,,,,-10.166015625,-10.634765625,1,0,0,1.20497703552,,,,,2015_Nov_02_1800,A,facesParametric,15,59.5986688606,
./stim/MorphM2_04_orig.jpg,115,,,,,0,115,115,115,,,,,,,,,,,,,,,,,,,-10.283203125,-10.60546875,1,0,0,4.42187404633,,,,,2015_Nov_02_1800,A,facesParametric,15,59.5986688606,
./stim/MorphF9_04_orig.jpg,116,,,,,0,116,116,116,,,,,,,,,,,,,,,,,,,-10.283203125,-10.60546875,1,0,0,1.15500593185,,,,,2015_Nov_02_1800,A,facesParametric,15,59.5986688606,
./stim/MorphF2_09_orig.jpg,117,,,,,0,117,117,117,,,,,,,,,,,,,,,,,,,-10.283203125,-10.60546875,0,0,1,0.836691856384,,,,,2015_Nov_02_1800,A,facesParametric,15,59.5986688606,
./stim/MorphF4_06_orig.jpg,118,,,,,0,118,118,118,,,,,,,,,,,,,,,,,,,-10.25390625,-10.546875,0,0,1,0.634341001511,,,,,2015_Nov_02_1800,A,facesParametric,15,59.5986688606,
./stim/MorphM3_09_orig.jpg,119,,,,,0,119,119,119,,,,,,,,,,,,,,,,,,,-10.283203125,-10.48828125,0,0,1,0.769674062729,,,,,2015_Nov_02_1800,A,facesParametric,15,59.5986688606,
./stim/MorphM2_07_orig.jpg,120,,,,,0,120,120,120,,,,,,,,,,,,,,,,,,,-10.283203125,-10.517578125,1,0,0,1.50659108162,,,,,2015_Nov_02_1800,A,facesParametric,15,59.5986688606,
./stim/MorphF3_10_orig.jpg,121,,,,,0,121,121,121,,,,,,,,,,,,,,,,,,,-10.48828125,-10.72265625,0,0,1,2.29317903519,,,,,2015_Nov_02_1800,A,facesParametric,15,59.5986688606,
./stim/MorphF5_05_orig.jpg,122,,,,,0,122,122,122,,,,,,,,,,,,,,,,,,,-10.458984375,-10.6640625,1,0,0,1.48945188522,,,,,2015_Nov_02_1800,A,facesParametric,15,59.5986688606,
./stim/MorphF7_09_orig.jpg,123,,,,,0,123,123,123,,,,,,,,,,,,,,,,,,,-10.517578125,-10.6640625,0,0,1,0.935791015625,,,,,2015_Nov_02_1800,A,facesParametric,15,59.5986688606,
./stim/MorphF3_08_orig.jpg,124,,,,,0,124,124,124,,,,,,,,,,,,,,,,,,,-10.48828125,-10.6640625,1,0,0,1.23861098289,,,,,2015_Nov_02_1800,A,facesParametric,15,59.5986688606,
./stim/MorphM5_09_orig.jpg,125,,,,,0,125,125,125,,,,,,,,,,,,,,,,,,,-10.576171875,-10.634765625,1,0,0,2.63142108917,,,,,2015_Nov_02_1800,A,facesParametric,15,59.5986688606,
./stim/MorphF3_01_orig.jpg,126,,,,,0,126,126,126,,,,,,,,,,,,,,,,,,,-10.576171875,-10.634765625,1,0,0,1.30513191223,,,,,2015_Nov_02_1800,A,facesParametric,15,59.5986688606,
./stim/MorphM9_07_orig.jpg,127,,,,,0,127,127,127,,,,,,,,,,,,,,,,,,,-10.634765625,-10.634765625,0,0,1,1.1218059063,,,,,2015_Nov_02_1800,A,facesParametric,15,59.5986688606,
./stim/MorphF10_00_orig.jpg,128,,,,,0,128,128,128,,,,,,,,,,,,,,,,,,,-10.634765625,-10.576171875,1,0,0,2.10864186287,,,,,2015_Nov_02_1800,A,facesParametric,15,59.5986688606,
./stim/MorphM6_01_orig.jpg,129,,,,,0,129,129,129,,,,,,,,,,,,,,,,,,,-10.83984375,-10.6640625,1,0,0,3.92053103447,,,,,2015_Nov_02_1800,A,facesParametric,15,59.5986688606,
./stim/MorphF1_02_orig.jpg,130,,,,,0,130,130,130,,,,,,,,,,,,,,,,,,,-10.810546875,-10.634765625,1,0,0,1.20479798317,,,,,2015_Nov_02_1800,A,facesParametric,15,59.5986688606,
./stim/MorphF8_09_orig.jpg,131,,,,,0,131,131,131,,,,,,,,,,,,,,,,,,,-10.810546875,-10.634765625,0,0,1,1.07017993927,,,,,2015_Nov_02_1800,A,facesParametric,15,59.5986688606,
./stim/MorphM2_03_orig.jpg,132,,,,,0,132,132,132,,,,,,,,,,,,,,,,,,,-10.693359375,-10.751953125,1,0,0,1.23753404617,,,,,2015_Nov_02_1800,A,facesParametric,15,59.5986688606,
./stim/MorphF4_03_orig.jpg,133,,,,,0,133,133,133,,,,,,,,,,,,,,,,,,,-10.6640625,-10.6640625,1,0,0,1.33948278427,,,,,2015_Nov_02_1800,A,facesParametric,15,59.5986688606,
./stim/MorphM3_03_orig.jpg,134,,,,,0,134,134,134,,,,,,,,,,,,,,,,,,,-10.751953125,-10.60546875,1,0,0,1.49027204514,,,,,2015_Nov_02_1800,A,facesParametric,15,59.5986688606,
./stim/MorphM8_01_orig.jpg,135,,,,,0,135,135,135,,,,,,,,,,,,,,,,,,,-11.044921875,-10.60546875,1,0,0,2.39508104324,,,,,2015_Nov_02_1800,A,facesParametric,15,59.5986688606,
./stim/MorphF7_05_orig.jpg,136,,,,,0,136,136,136,,,,,,,,,,,,,,,,,,,-11.015625,-10.546875,1,0,0,2.34551882744,,,,,2015_Nov_02_1800,A,facesParametric,15,59.5986688606,
./stim/MorphF3_09_orig.jpg,137,,,,,0,137,137,137,,,,,,,,,,,,,,,,,,,-11.044921875,-10.60546875,1,0,0,1.20271897316,,,,,2015_Nov_02_1800,A,facesParametric,15,59.5986688606,
./stim/MorphM8_08_orig.jpg,138,,,,,0,138,138,138,,,,,,,,,,,,,,,,,,,-11.07421875,-10.634765625,0,0,1,1.171875,,,,,2015_Nov_02_1800,A,facesParametric,15,59.5986688606,
./stim/MorphF1_04_orig.jpg,139,,,,,0,139,139,139,,,,,,,,,,,,,,,,,,,-11.07421875,-10.8984375,1,0,0,12.5331008434,,,,,2015_Nov_02_1800,A,facesParametric,15,59.5986688606,
./stim/MorphM10_07_orig.jpg,140,,,,,0,140,140,140,,,,,,,,,,,,,,,,,,,-11.396484375,-11.1328125,0,0,1,8.99729990959,,,,,2015_Nov_02_1800,A,facesParametric,15,59.5986688606,
./stim/MorphF8_02_orig.jpg,141,,,,,0,141,141,141,,,,,,,,,,,,,,,,,,,-10.8984375,-10.869140625,1,0,0,2.84577202797,,,,,2015_Nov_02_1800,A,facesParametric,15,59.5986688606,
./stim/MorphM2_00_orig.jpg,142,,,,,0,142,142,142,,,,,,,,,,,,,,,,,,,-10.78125,-10.78125,1,0,0,1.92571401596,,,,,2015_Nov_02_1800,A,facesParametric,15,59.5986688606,
./stim/MorphF2_04_orig.jpg,143,,,,,0,143,143,143,,,,,,,,,,,,,,,,,,,-10.78125,-10.72265625,0,0,1,2.11005401611,,,,,2015_Nov_02_1800,A,facesParametric,15,59.5986688606,
./stim/MorphF10_05_orig.jpg,144,,,,,0,144,144,144,,,,,,,,,,,,,,,,,,,-10.83984375,-11.103515625,1,0,0,4.22046899796,,,,,2015_Nov_02_1800,A,facesParametric,15,59.5986688606,
./stim/MorphM6_02_orig.jpg,145,,,,,0,145,145,145,,,,,,,,,,,,,,,,,,,-10.810546875,-10.810546875,1,0,0,4.84003806114,,,,,2015_Nov_02_1800,A,facesParametric,15,59.5986688606,
./stim/MorphF5_08_orig.jpg,146,,,,,0,146,146,146,,,,,,,,,,,,,,,,,,,-10.810546875,-10.810546875,0,0,1,1.38958716393,,,,,2015_Nov_02_1800,A,facesParametric,15,59.5986688606,
./stim/MorphF10_10_orig.jpg,147,,,,,0,147,147,147,,,,,,,,,,,,,,,,,,,-10.8984375,-10.986328125,0,0,1,0.685194015503,,,,,2015_Nov_02_1800,A,facesParametric,15,59.5986688606,
./stim/MorphF4_01_orig.jpg,148,,,,,0,148,148,148,,,,,,,,,,,,,,,,,,,-10.927734375,-10.927734375,1,0,0,1.80920290947,,,,,2015_Nov_02_1800,A,facesParametric,15,59.5986688606,
./stim/MorphF6_02_orig.jpg,149,,,,,0,149,149,149,,,,,,,,,,,,,,,,,,,-11.015625,-10.810546875,1,0,0,1.07015395164,,,,,2015_Nov_02_1800,A,facesParametric,15,59.5986688606,
./stim/MorphF7_01_orig.jpg,150,,,,,0,150,150,150,,,,,,,,,,,,,,,,,,,-10.927734375,-10.72265625,1,0,0,2.52761292458,,,,,2015_Nov_02_1800,A,facesParametric,15,59.5986688606,
./stim/MorphF2_10_orig.jpg,151,,,,,0,151,151,151,,,,,,,,,,,,,,,,,,,-10.927734375,-10.72265625,0,0,1,0.703022003174,,,,,2015_Nov_02_1800,A,facesParametric,15,59.5986688606,
./stim/MorphF4_04_orig.jpg,152,,,,,0,152,152,152,,,,,,,,,,,,,,,,,,,-10.869140625,-10.576171875,1,0,0,1.03786802292,,,,,2015_Nov_02_1800,A,facesParametric,15,59.5986688606,
./stim/MorphF1_03_orig.jpg,153,,,,,0,153,153,153,,,,,,,,,,,,,,,,,,,-10.78125,-10.576171875,1,0,0,0.970668077469,,,,,2015_Nov_02_1800,A,facesParametric,15,59.5986688606,
./stim/MorphF9_10_orig.jpg,154,,,,,0,154,154,154,,,,,,,,,,,,,,,,,,,-10.60546875,-10.341796875,1,0,0,2.94849610329,,,,,2015_Nov_02_1800,A,facesParametric,15,59.5986688606,
./stim/MorphF8_06_orig.jpg,155,,,,,0,155,155,155,,,,,,,,,,,,,,,,,,,-10.634765625,-10.37109375,0,0,1,0.868985891342,,,,,2015_Nov_02_1800,A,facesParametric,15,59.5986688606,
./stim/MorphM6_06_orig.jpg,156,,,,,0,156,156,156,,,,,,,,,,,,,,,,,,,-10.576171875,-10.37109375,1,0,0,1.52315402031,,,,,2015_Nov_02_1800,A,facesParametric,15,59.5986688606,
./stim/MorphF1_05_orig.jpg,157,,,,,0,157,157,157,,,,,,,,,,,,,,,,,,,-10.546875,-10.341796875,1,0,0,0.903487920761,,,,,2015_Nov_02_1800,A,facesParametric,15,59.5986688606,
./stim/MorphM4_00_orig.jpg,158,,,,,0,158,158,158,,,,,,,,,,,,,,,,,,,-10.224609375,-9.521484375,1,0,0,1.22243404388,,,,,2015_Nov_02_1800,A,facesParametric,15,59.5986688606,
./stim/MorphF1_01_orig.jpg,159,,,,,0,159,159,159,,,,,,,,,,,,,,,,,,,-10.751953125,-10.400390625,1,0,0,0.786556959152,,,,,2015_Nov_02_1800,A,facesParametric,15,59.5986688606,
./stim/MorphF4_08_orig.jpg,160,,,,,0,160,160,160,,,,,,,,,,,,,,,,,,,-10.810546875,-10.341796875,0,0,1,1.0189871788,,,,,2015_Nov_02_1800,A,facesParametric,15,59.5986688606,
./stim/MorphM4_04_orig.jpg,161,,,,,0,161,161,161,,,,,,,,,,,,,,,,,,,-10.927734375,-10.283203125,1,0,0,2.5631070137,,,,,2015_Nov_02_1800,A,facesParametric,15,59.5986688606,
./stim/MorphF3_07_orig.jpg,162,,,,,0,162,162,162,,,,,,,,,,,,,,,,,,,-10.8984375,-10.25390625,0,0,1,1.05423212051,,,,,2015_Nov_02_1800,A,facesParametric,15,59.5986688606,
./stim/MorphF8_04_orig.jpg,163,,,,,0,163,163,163,,,,,,,,,,,,,,,,,,,-10.95703125,-10.37109375,1,0,0,1.94245290756,,,,,2015_Nov_02_1800,A,facesParametric,15,59.5986688606,
./stim/MorphM7_09_orig.jpg,164,,,,,0,164,164,164,,,,,,,,,,,,,,,,,,,-10.927734375,-10.341796875,0,0,1,0.954014062881,,,,,2015_Nov_02_1800,A,facesParametric,15,59.5986688606,
./stim/MorphF8_08_orig.jpg,165,,,,,0,165,165,165,,,,,,,,,,,,,,,,,,,-10.927734375,-10.341796875,0,0,1,0.903637886047,,,,,2015_Nov_02_1800,A,facesParametric,15,59.5986688606,
./stim/MorphF5_06_orig.jpg,166,,,,,0,166,166,166,,,,,,,,,,,,,,,,,,,-10.83984375,-10.283203125,1,0,0,1.70922088623,,,,,2015_Nov_02_1800,A,facesParametric,15,59.5986688606,
./stim/MorphF4_02_orig.jpg,167,,,,,0,167,167,167,,,,,,,,,,,,,,,,,,,-10.869140625,-10.1953125,1,0,0,2.84671115875,,,,,2015_Nov_02_1800,A,facesParametric,15,59.5986688606,
./stim/MorphM2_06_orig.jpg,168,,,,,0,168,168,168,,,,,,,,,,,,,,,,,,,-10.83984375,-10.224609375,1,0,0,1.15528082848,,,,,2015_Nov_02_1800,A,facesParametric,15,59.5986688606,
./stim/MorphM9_09_orig.jpg,169,,,,,0,169,169,169,,,,,,,,,,,,,,,,,,,-10.83984375,-10.224609375,0,0,1,1.30560803413,,,,,2015_Nov_02_1800,A,facesParametric,15,59.5986688606,
./stim/MorphF9_05_orig.jpg,170,,,,,0,170,170,170,,,,,,,,,,,,,,,,,,,-10.927734375,-10.224609375,1,0,0,2.09375,,,,,2015_Nov_02_1800,A,facesParametric,15,59.5986688606,
./stim/MorphF3_00_orig.jpg,171,,,,,0,171,171,171,,,,,,,,,,,,,,,,,,,-11.162109375,-10.107421875,1,0,0,2.51277518272,,,,,2015_Nov_02_1800,A,facesParametric,15,59.5986688606,
./stim/MorphM5_05_orig.jpg,172,,,,,0,172,172,172,,,,,,,,,,,,,,,,,,,-11.07421875,-10.107421875,1,0,0,1.47361087799,,,,,2015_Nov_02_1800,A,facesParametric,15,59.5986688606,
./stim/MorphM8_05_orig.jpg,173,,,,,0,173,173,173,,,,,,,,,,,,,,,,,,,-11.19140625,-10.166015625,0,0,1,2.29463005066,,,,,2015_Nov_02_1800,A,facesParametric,15,59.5986688606,
./stim/MorphF5_04_orig.jpg,174,,,,,0,174,174,174,,,,,,,,,,,,,,,,,,,-11.220703125,-10.107421875,0,0,1,1.5240650177,,,,,2015_Nov_02_1800,A,facesParametric,15,59.5986688606,
./stim/MorphF7_08_orig.jpg,175,,,,,0,175,175,175,,,,,,,,,,,,,,,,,,,-11.220703125,-10.107421875,0,0,1,1.15547990799,,,,,2015_Nov_02_1800,A,facesParametric,15,59.5986688606,
./stim/MorphM10_00_orig.jpg,176,,,,,0,176,176,176,,,,,,,,,,,,,,,,,,,-11.279296875,-10.078125,1,0,0,2.81334710121,,,,,2015_Nov_02_1800,A,facesParametric,15,59.5986688606,
./stim/MorphM1_01_orig.jpg,177,,,,,0,177,177,177,,,,,,,,,,,,,,,,,,,-11.25,-10.078125,1,0,0,0.92182302475,,,,,2015_Nov_02_1800,A,facesParametric,15,59.5986688606,
./stim/MorphF6_04_orig.jpg,178,,,,,0,178,178,178,,,,,,,,,,,,,,,,,,,-11.220703125,-10.107421875,1,0,0,0.986068964005,,,,,2015_Nov_02_1800,A,facesParametric,15,59.5986688606,
./stim/MorphM3_05_orig.jpg,179,,,,,0,179,179,179,,,,,,,,,,,,,,,,,,,-11.220703125,-10.107421875,1,0,0,1.1721200943,,,,,2015_Nov_02_1800,A,facesParametric,15,59.5986688606,
./stim/MorphM1_09_orig.jpg,180,,,,,0,180,180,180,,,,,,,,,,,,,,,,,,,-11.25,-10.107421875,0,0,1,0.970620155334,,,,,2015_Nov_02_1800,A,facesParametric,15,59.5986688606,
./stim/MorphF10_04_orig.jpg,181,,,,,0,181,181,181,,,,,,,,,,,,,,,,,,,-11.337890625,-10.107421875,0,0,1,1.03795790672,,,,,2015_Nov_02_1800,A,facesParametric,15,59.5986688606,
./stim/MorphM4_10_orig.jpg,182,,,,,0,182,182,182,,,,,,,,,,,,,,,,,,,-11.3671875,-10.107421875,0,0,1,1.07128000259,,,,,2015_Nov_02_1800,A,facesParametric,15,59.5986688606,
./stim/MorphF8_10_orig.jpg,183,,,,,0,183,183,183,,,,,,,,,,,,,,,,,,,-11.3671875,-10.107421875,0,0,1,0.819690942764,,,,,2015_Nov_02_1800,A,facesParametric,15,59.5986688606,
./stim/MorphM8_09_orig.jpg,184,,,,,0,184,184,184,,,,,,,,,,,,,,,,,,,-11.42578125,-10.107421875,0,0,1,0.835414171219,,,,,2015_Nov_02_1800,A,facesParametric,15,59.5986688606,
./stim/MorphF9_00_orig.jpg,185,,,,,0,185,185,185,,,,,,,,,,,,,,,,,,,-11.220703125,-10.078125,1,0,0,1.44077897072,,,,,2015_Nov_02_1800,A,facesParametric,15,59.5986688606,
./stim/MorphF1_00_orig.jpg,186,,,,,0,186,186,186,,,,,,,,,,,,,,,,,,,-11.279296875,-10.166015625,1,0,0,1.37302684784,,,,,2015_Nov_02_1800,A,facesParametric,15,59.5986688606,
./stim/MorphF7_00_orig.jpg,187,,,,,0,187,187,187,,,,,,,,,,,,,,,,,,,-11.30859375,-10.107421875,1,0,0,3.30019378662,,,,,2015_Nov_02_1800,A,facesParametric,15,59.5986688606,
./stim/MorphM7_05_orig.jpg,188,,,,,0,188,188,188,,,,,,,,,,,,,,,,,,,-11.3671875,-10.13671875,0,0,1,3.43438005447,,,,,2015_Nov_02_1800,A,facesParametric,15,59.5986688606,
./stim/MorphM5_00_orig.jpg,189,,,,,0,189,189,189,,,,,,,,,,,,,,,,,,,-11.3671875,-10.13671875,1,0,0,1.57423090935,,,,,2015_Nov_02_1800,A,facesParametric,15,59.5986688606,
./stim/MorphF1_07_orig.jpg,190,,,,,0,190,190,190,,,,,,,,,,,,,,,,,,,-11.30859375,-10.166015625,1,0,0,0.953217983246,,,,,2015_Nov_02_1800,A,facesParametric,15,59.5986688606,
./stim/MorphM10_09_orig.jpg,191,,,,,0,191,191,191,,,,,,,,,,,,,,,,,,,-11.220703125,-10.13671875,0,0,1,0.786937952042,,,,,2015_Nov_02_1800,A,facesParametric,15,59.5986688606,
./stim/MorphM9_01_orig.jpg,192,,,,,0,192,192,192,,,,,,,,,,,,,,,,,,,-11.19140625,-10.166015625,1,0,0,1.30587315559,,,,,2015_Nov_02_1800,A,facesParametric,15,59.5986688606,
./stim/MorphF5_10_orig.jpg,193,,,,,0,193,193,193,,,,,,,,,,,,,,,,,,,-11.19140625,-10.166015625,0,0,1,0.801614999771,,,,,2015_Nov_02_1800,A,facesParametric,15,59.5986688606,
./stim/MorphM6_09_orig.jpg,194,,,,,0,194,194,194,,,,,,,,,,,,,,,,,,,-11.162109375,-10.25390625,0,0,1,0.970414161682,,,,,2015_Nov_02_1800,A,facesParametric,15,59.5986688606,
./stim/MorphM9_02_orig.jpg,195,,,,,0,195,195,195,,,,,,,,,,,,,,,,,,,-11.162109375,-10.25390625,1,0,0,0.868230104446,,,,,2015_Nov_02_1800,A,facesParametric,15,59.5986688606,
./stim/MorphM2_08_orig.jpg,196,,,,,0,196,196,196,,,,,,,,,,,,,,,,,,,-11.162109375,-10.166015625,1,0,0,2.42718887329,,,,,2015_Nov_02_1800,A,facesParametric,15,59.5986688606,
./stim/MorphF2_07_orig.jpg,197,,,,,0,197,197,197,,,,,,,,,,,,,,,,,,,-11.162109375,-10.166015625,0,0,1,1.13844585419,,,,,2015_Nov_02_1800,A,facesParametric,15,59.5986688606,
./stim/MorphM6_07_orig.jpg,198,,,,,0,198,198,198,,,,,,,,,,,,,,,,,,,-11.162109375,-10.107421875,1,0,0,1.02062606812,,,,,2015_Nov_02_1800,A,facesParametric,15,59.5986688606,
./stim/MorphM8_00_orig.jpg,199,,,,,0,199,199,199,,,,,,,,,,,,,,,,,,,-11.19140625,-10.107421875,0,0,1,1.0523109436,,,,,2015_Nov_02_1800,A,facesParametric,15,59.5986688606,
./stim/MorphF5_09_orig.jpg,200,,,,,0,200,200,200,,,,,,,,,,,,,,,,,,,-11.162109375,-10.048828125,0,0,1,1.58996200562,,,,,2015_Nov_02_1800,A,facesParametric,15,59.5986688606,
./stim/MorphF7_04_orig.jpg,201,,,,,0,201,201,201,,,,,,,,,,,,,,,,,,,-11.337890625,-10.107421875,1,0,0,2.21113300323,,,,,2015_Nov_02_1800,A,facesParametric,15,59.5986688606,
./stim/MorphM9_00_orig.jpg,202,,,,,0,202,202,202,,,,,,,,,,,,,,,,,,,-11.396484375,-10.166015625,1,0,0,2.44567894936,,,,,2015_Nov_02_1800,A,facesParametric,15,59.5986688606,
./stim/MorphF3_05_orig.jpg,203,,,,,0,203,203,203,,,,,,,,,,,,,,,,,,,-11.279296875,-10.13671875,1,0,0,1.43865394592,,,,,2015_Nov_02_1800,A,facesParametric,15,59.5986688606,
./stim/MorphM5_01_orig.jpg,204,,,,,0,204,204,204,,,,,,,,,,,,,,,,,,,-11.279296875,-10.13671875,1,0,0,1.021048069,,,,,2015_Nov_02_1800,A,facesParametric,15,59.5986688606,
./stim/MorphM7_10_orig.jpg,205,,,,,0,205,205,205,,,,,,,,,,,,,,,,,,,-11.279296875,-10.078125,0,0,1,0.818769931793,,,,,2015_Nov_02_1800,A,facesParametric,15,59.5986688606,
./stim/MorphF8_01_orig.jpg,206,,,,,0,206,206,206,,,,,,,,,,,,,,,,,,,-11.279296875,-10.078125,0,0,1,1.53855013847,,,,,2015_Nov_02_1800,A,facesParametric,15,59.5986688606,
./stim/MorphM2_09_orig.jpg,207,,,,,0,207,207,207,,,,,,,,,,,,,,,,,,,-11.30859375,-10.13671875,1,0,0,4.02171492577,,,,,2015_Nov_02_1800,A,facesParametric,15,59.5986688606,
./stim/MorphM6_10_orig.jpg,208,,,,,0,208,208,208,,,,,,,,,,,,,,,,,,,-11.25,-10.107421875,1,0,0,1.02051997185,,,,,2015_Nov_02_1800,A,facesParametric,15,59.5986688606,
./stim/MorphM8_06_orig.jpg,209,,,,,0,209,209,209,,,,,,,,,,,,,,,,,,,-11.220703125,-10.078125,0,0,1,2.66313290596,,,,,2015_Nov_02_1800,A,facesParametric,15,59.5986688606,
./stim/MorphM2_01_orig.jpg,210,,,,,0,210,210,210,,,,,,,,,,,,,,,,,,,-11.220703125,-10.078125,1,0,0,1.27093887329,,,,,2015_Nov_02_1800,A,facesParametric,15,59.5986688606,
./stim/MorphF8_07_orig.jpg,211,,,,,0,211,211,211,,,,,,,,,,,,,,,,,,,-11.279296875,-10.107421875,0,0,1,1.00438284874,,,,,2015_Nov_02_1800,A,facesParametric,15,59.5986688606,
./stim/MorphF6_05_orig.jpg,212,,,,,0,212,212,212,,,,,,,,,,,,,,,,,,,-11.30859375,-10.13671875,1,0,0,1.96073293686,,,,,2015_Nov_02_1800,A,facesParametric,15,59.5986688606,
./stim/MorphF1_08_orig.jpg,213,,,,,0,213,213,213,,,,,,,,,,,,,,,,,,,-11.19140625,-10.078125,1,0,0,1.40474891663,,,,,2015_Nov_02_1800,A,facesParametric,15,59.5986688606,
./stim/MorphM2_05_orig.jpg,214,,,,,0,214,214,214,,,,,,,,,,,,,,,,,,,-11.19140625,-9.990234375,1,0,0,2.62975311279,,,,,2015_Nov_02_1800,A,facesParametric,15,59.5986688606,
./stim/MorphM6_00_orig.jpg,215,,,,,0,215,215,215,,,,,,,,,,,,,,,,,,,-11.25,-9.9609375,1,0,0,1.01938700676,,,,,2015_Nov_02_1800,A,facesParametric,15,59.5986688606,
./stim/MorphF2_06_orig.jpg,216,,,,,0,216,216,216,,,,,,,,,,,,,,,,,,,-11.30859375,-9.931640625,0,0,1,0.970468997955,,,,,2015_Nov_02_1800,A,facesParametric,15,59.5986688606,
./stim/MorphM3_04_orig.jpg,217,,,,,0,217,217,217,,,,,,,,,,,,,,,,,,,-11.30859375,-9.931640625,1,0,0,1.42358493805,,,,,2015_Nov_02_1800,A,facesParametric,15,59.5986688606,
./stim/MorphM8_03_orig.jpg,218,,,,,0,218,218,218,,,,,,,,,,,,,,,,,,,-11.1328125,-9.814453125,1,0,0,3.16579198837,,,,,2015_Nov_02_1800,A,facesParametric,15,59.5986688606,
./stim/MorphM3_01_orig.jpg,219,,,,,0,219,219,219,,,,,,,,,,,,,,,,,,,-11.279296875,-9.90234375,1,0,0,1.27257394791,,,,,2015_Nov_02_1800,A,facesParametric,15,59.5986688606,
,,,,,,,,,,,,,,,,,,,,,,,,,,,,,,,,,,return,13.1900718212,,,2015_Nov_02_1800,A,facesParametric,15,59.5986688606,
./stim/MorphM7_04_orig.jpg,0,,,,,,,,,0,0,0,0,,,,,,,,,,,,,,,9.345703125,-13.154296875,1,0,0,4.32354784012,,,,,2015_Nov_02_1800,A,facesParametric,15,59.5986688606,
./stim/MorphF3_03_orig.jpg,1,,,,,,,,,0,1,1,1,,,,,,,,,,,,,,,9.345703125,-13.154296875,1,0,0,1.6234691143,,,,,2015_Nov_02_1800,A,facesParametric,15,59.5986688606,
./stim/MorphF6_01_orig.jpg,2,,,,,,,,,0,2,2,2,,,,,,,,,,,,,,,9.345703125,-13.125,1,0,0,1.07085299492,,,,,2015_Nov_02_1800,A,facesParametric,15,59.5986688606,
./stim/MorphM10_09_orig.jpg,3,,,,,,,,,0,3,3,3,,,,,,,,,,,,,,,9.375,-13.037109375,0,0,1,0.868840932846,,,,,2015_Nov_02_1800,A,facesParametric,15,59.5986688606,
./stim/MorphF2_00_orig.jpg,4,,,,,,,,,0,4,4,4,,,,,,,,,,,,,,,9.375,-13.037109375,1,0,0,1.07054901123,,,,,2015_Nov_02_1800,A,facesParametric,15,59.5986688606,
./stim/MorphF10_05_orig.jpg,5,,,,,,,,,0,5,5,5,,,,,,,,,,,,,,,9.375,-13.037109375,0,0,1,1.47353696823,,,,,2015_Nov_02_1800,A,facesParametric,15,59.5986688606,
./stim/MorphF6_02_orig.jpg,6,,,,,,,,,0,6,6,6,,,,,,,,,,,,,,,9.375,-13.06640625,1,0,0,1.03736519814,,,,,2015_Nov_02_1800,A,facesParametric,15,59.5986688606,
./stim/MorphF9_06_orig.jpg,7,,,,,,,,,0,7,7,7,,,,,,,,,,,,,,,9.375,-13.06640625,1,0,0,2.2450709343,,,,,2015_Nov_02_1800,A,facesParametric,15,59.5986688606,
./stim/MorphF6_05_orig.jpg,8,,,,,,,,,0,8,8,8,,,,,,,,,,,,,,,9.375,-13.06640625,1,0,0,0.886790990829,,,,,2015_Nov_02_1800,A,facesParametric,15,59.5986688606,
./stim/MorphM5_07_orig.jpg,9,,,,,,,,,0,9,9,9,,,,,,,,,,,,,,,9.375,-13.06640625,1,0,0,1.00347495079,,,,,2015_Nov_02_1800,A,facesParametric,15,59.5986688606,
./stim/MorphF1_01_orig.jpg,10,,,,,,,,,0,10,10,10,,,,,,,,,,,,,,,9.375,-13.06640625,1,0,0,1.17214107513,,,,,2015_Nov_02_1800,A,facesParametric,15,59.5986688606,
./stim/MorphM10_06_orig.jpg,11,,,,,,,,,0,11,11,11,,,,,,,,,,,,,,,9.404296875,-13.095703125,0,0,1,0.836370229721,,,,,2015_Nov_02_1800,A,facesParametric,15,59.5986688606,
./stim/MorphM1_05_orig.jpg,12,,,,,,,,,0,12,12,12,,,,,,,,,,,,,,,9.404296875,-13.125,1,0,0,0.953681945801,,,,,2015_Nov_02_1800,A,facesParametric,15,59.5986688606,
./stim/MorphF4_01_orig.jpg,13,,,,,,,,,0,13,13,13,,,,,,,,,,,,,,,9.404296875,-13.125,1,0,0,1.05457496643,,,,,2015_Nov_02_1800,A,facesParametric,15,59.5986688606,
./stim/MorphM8_06_orig.jpg,14,,,,,,,,,0,14,14,14,,,,,,,,,,,,,,,9.404296875,-13.125,0,0,1,1.38814282417,,,,,2015_Nov_02_1800,A,facesParametric,15,59.5986688606,
./stim/MorphM1_00_orig.jpg,15,,,,,,,,,0,15,15,15,,,,,,,,,,,,,,,9.404296875,-13.154296875,1,0,0,1.17131209373,,,,,2015_Nov_02_1800,A,facesParametric,15,59.5986688606,
./stim/MorphF8_10_orig.jpg,16,,,,,,,,,0,16,16,16,,,,,,,,,,,,,,,9.404296875,-13.154296875,1,0,0,1.3397898674,,,,,2015_Nov_02_1800,A,facesParametric,15,59.5986688606,
./stim/MorphM9_03_orig.jpg,17,,,,,,,,,0,17,17,17,,,,,,,,,,,,,,,9.404296875,-13.154296875,1,0,0,1.60756182671,,,,,2015_Nov_02_1800,A,facesParametric,15,59.5986688606,
./stim/MorphF1_03_orig.jpg,18,,,,,,,,,0,18,18,18,,,,,,,,,,,,,,,9.404296875,-13.154296875,1,0,0,0.635777950287,,,,,2015_Nov_02_1800,A,facesParametric,15,59.5986688606,
./stim/MorphM7_10_orig.jpg,19,,,,,,,,,0,19,19,19,,,,,,,,,,,,,,,9.404296875,-13.154296875,0,0,1,1.25476622581,,,,,2015_Nov_02_1800,A,facesParametric,15,59.5986688606,
./stim/MorphF7_02_orig.jpg,20,,,,,,,,,0,20,20,20,,,,,,,,,,,,,,,9.375,-13.154296875,1,0,0,2.87967801094,,,,,2015_Nov_02_1800,A,facesParametric,15,59.5986688606,
./stim/MorphF4_03_orig.jpg,21,,,,,,,,,0,21,21,21,,,,,,,,,,,,,,,9.375,-13.154296875,1,0,0,0.652521133423,,,,,2015_Nov_02_1800,A,facesParametric,15,59.5986688606,
./stim/MorphM10_10_orig.jpg,22,,,,,,,,,0,22,22,22,,,,,,,,,,,,,,,9.375,-13.154296875,0,0,1,0.616577148438,,,,,2015_Nov_02_1800,A,facesParametric,15,59.5986688606,
./stim/MorphF7_04_orig.jpg,23,,,,,,,,,0,23,23,23,,,,,,,,,,,,,,,9.375,-13.154296875,1,0,0,0.985582113266,,,,,2015_Nov_02_1800,A,facesParametric,15,59.5986688606,
./stim/MorphF10_10_orig.jpg,24,,,,,,,,,0,24,24,24,,,,,,,,,,,,,,,9.375,-13.154296875,0,0,1,0.719455003738,,,,,2015_Nov_02_1800,A,facesParametric,15,59.5986688606,
./stim/MorphM3_08_orig.jpg,25,,,,,,,,,0,25,25,25,,,,,,,,,,,,,,,9.375,-13.154296875,1,0,0,1.44042396545,,,,,2015_Nov_02_1800,A,facesParametric,15,59.5986688606,
./stim/MorphM4_08_orig.jpg,26,,,,,,,,,0,26,26,26,,,,,,,,,,,,,,,9.375,-13.154296875,0,0,1,1.42313098907,,,,,2015_Nov_02_1800,A,facesParametric,15,59.5986688606,
./stim/MorphM10_03_orig.jpg,27,,,,,,,,,0,27,27,27,,,,,,,,,,,,,,,9.31640625,-13.154296875,1,0,0,1.08743882179,,,,,2015_Nov_02_1800,A,facesParametric,15,59.5986688606,
./stim/MorphM1_07_orig.jpg,28,,,,,,,,,0,28,28,28,,,,,,,,,,,,,,,9.31640625,-13.154296875,1,0,0,0.987209796906,,,,,2015_Nov_02_1800,A,facesParametric,15,59.5986688606,
./stim/MorphF6_09_orig.jpg,29,,,,,,,,,0,29,29,29,,,,,,,,,,,,,,,9.31640625,-13.154296875,0,0,1,1.52384591103,,,,,2015_Nov_02_1800,A,facesParametric,15,59.5986688606,
./stim/MorphM3_09_orig.jpg,30,,,,,,,,,0,30,30,30,,,,,,,,,,,,,,,9.31640625,-13.154296875,1,0,0,0.836699008942,,,,,2015_Nov_02_1800,A,facesParametric,15,59.5986688606,
./stim/MorphM5_09_orig.jpg,31,,,,,,,,,0,31,31,31,,,,,,,,,,,,,,,9.31640625,-13.154296875,1,0,0,3.35075211525,,,,,2015_Nov_02_1800,A,facesParametric,15,59.5986688606,
./stim/MorphM6_01_orig.jpg,32,,,,,,,,,0,32,32,32,,,,,,,,,,,,,,,9.287109375,-13.095703125,1,0,0,4.74117898941,,,,,2015_Nov_02_1800,A,facesParametric,15,59.5986688606,
./stim/MorphF5_03_orig.jpg,33,,,,,,,,,0,33,33,33,,,,,,,,,,,,,,,9.287109375,-13.095703125,1,0,0,1.08653402328,,,,,2015_Nov_02_1800,A,facesParametric,15,59.5986688606,
./stim/MorphF3_09_orig.jpg,34,,,,,,,,,0,34,34,34,,,,,,,,,,,,,,,9.287109375,-13.154296875,0,0,1,2.62971901894,,,,,2015_Nov_02_1800,A,facesParametric,15,59.5986688606,
./stim/MorphM5_02_orig.jpg,35,,,,,,,,,0,35,35,35,,,,,,,,,,,,,,,9.052734375,-13.154296875,1,0,0,2.93172502518,,,,,2015_Nov_02_1800,A,facesParametric,15,59.5986688606,
./stim/MorphF7_03_orig.jpg,36,,,,,,,,,0,36,36,36,,,,,,,,,,,,,,,9.052734375,-13.154296875,1,0,0,1.23886990547,,,,,2015_Nov_02_1800,A,facesParametric,15,59.5986688606,
./stim/MorphM10_02_orig.jpg,37,,,,,,,,,0,37,37,37,,,,,,,,,,,,,,,9.0234375,-13.125,1,0,0,1.32267308235,,,,,2015_Nov_02_1800,A,facesParametric,15,59.5986688606,
./stim/MorphF3_00_orig.jpg,38,,,,,,,,,0,38,38,38,,,,,,,,,,,,,,,9.0234375,-13.125,1,0,0,1.55724477768,,,,,2015_Nov_02_1800,A,facesParametric,15,59.5986688606,
./stim/MorphF8_04_orig.jpg,39,,,,,,,,,0,39,39,39,,,,,,,,,,,,,,,9.0234375,-13.125,1,0,0,1.38877701759,,,,,2015_Nov_02_1800,A,facesParametric,15,59.5986688606,
./stim/MorphM3_01_orig.jpg,40,,,,,,,,,0,40,40,40,,,,,,,,,,,,,,,9.0234375,-13.125,1,0,0,1.22127008438,,,,,2015_Nov_02_1800,A,facesParametric,15,59.5986688606,
./stim/MorphM10_05_orig.jpg,41,,,,,,,,,0,41,41,41,,,,,,,,,,,,,,,9.0234375,-13.125,0,0,1,1.0197930336,,,,,2015_Nov_02_1800,A,facesParametric,15,59.5986688606,
./stim/MorphF1_08_orig.jpg,42,,,,,,,,,0,42,42,42,,,,,,,,,,,,,,,9.0234375,-13.154296875,1,0,0,1.10580396652,,,,,2015_Nov_02_1800,A,facesParametric,15,59.5986688606,
./stim/MorphF9_04_orig.jpg,43,,,,,,,,,0,43,43,43,,,,,,,,,,,,,,,9.0234375,-13.154296875,1,0,0,2.54341411591,,,,,2015_Nov_02_1800,A,facesParametric,15,59.5986688606,
./stim/MorphF1_05_orig.jpg,44,,,,,,,,,0,44,44,44,,,,,,,,,,,,,,,9.0234375,-13.154296875,1,0,0,1.38941907883,,,,,2015_Nov_02_1800,A,facesParametric,15,59.5986688606,
./stim/MorphM5_10_orig.jpg,45,,,,,,,,,0,45,45,45,,,,,,,,,,,,,,,9.0234375,-13.154296875,0,0,1,5.37884283066,,,,,2015_Nov_02_1800,A,facesParametric,15,59.5986688606,
./stim/MorphF4_08_orig.jpg,46,,,,,,,,,0,46,46,46,,,,,,,,,,,,,,,9.052734375,-13.154296875,0,0,1,1.02111315727,,,,,2015_Nov_02_1800,A,facesParametric,15,59.5986688606,
./stim/MorphM2_04_orig.jpg,47,,,,,,,,,0,47,47,47,,,,,,,,,,,,,,,9.052734375,-13.154296875,1,0,0,1.28698801994,,,,,2015_Nov_02_1800,A,facesParametric,15,59.5986688606,
./stim/MorphM3_07_orig.jpg,48,,,,,,,,,0,48,48,48,,,,,,,,,,,,,,,9.08203125,-13.154296875,1,0,0,4.28826999664,,,,,2015_Nov_02_1800,A,facesParametric,15,59.5986688606,
./stim/MorphM8_03_orig.jpg,49,,,,,,,,,0,49,49,49,,,,,,,,,,,,,,,9.08203125,-13.154296875,1,0,0,1.97614192963,,,,,2015_Nov_02_1800,A,facesParametric,15,59.5986688606,
./stim/MorphF2_10_orig.jpg,50,,,,,,,,,0,50,50,50,,,,,,,,,,,,,,,9.08203125,-13.154296875,0,0,1,1.07172298431,,,,,2015_Nov_02_1800,A,facesParametric,15,59.5986688606,
./stim/MorphF4_09_orig.jpg,51,,,,,,,,,0,51,51,51,,,,,,,,,,,,,,,9.08203125,-13.154296875,0,0,1,1.20422005653,,,,,2015_Nov_02_1800,A,facesParametric,15,59.5986688606,
./stim/MorphM2_09_orig.jpg,52,,,,,,,,,0,52,52,52,,,,,,,,,,,,,,,9.052734375,-13.154296875,1,0,0,1.43981599808,,,,,2015_Nov_02_1800,A,facesParametric,15,59.5986688606,
./stim/MorphF2_04_orig.jpg,53,,,,,,,,,0,53,53,53,,,,,,,,,,,,,,,9.052734375,-13.154296875,0,0,1,4.35495400429,,,,,2015_Nov_02_1800,A,facesParametric,15,59.5986688606,
./stim/MorphF5_02_orig.jpg,54,,,,,,,,,0,54,54,54,,,,,,,,,,,,,,,9.0234375,-13.154296875,1,0,0,0.904061079025,,,,,2015_Nov_02_1800,A,facesParametric,15,59.5986688606,
./stim/MorphF9_00_orig.jpg,55,,,,,,,,,0,55,55,55,,,,,,,,,,,,,,,9.0234375,-13.154296875,1,0,0,1.05465698242,,,,,2015_Nov_02_1800,A,facesParametric,15,59.5986688606,
./stim/MorphF5_07_orig.jpg,56,,,,,,,,,0,56,56,56,,,,,,,,,,,,,,,9.052734375,-13.095703125,0,0,1,1.94239091873,,,,,2015_Nov_02_1800,A,facesParametric,15,59.5986688606,
./stim/MorphF8_01_orig.jpg,57,,,,,,,,,0,57,57,57,,,,,,,,,,,,,,,9.052734375,-13.037109375,1,0,0,4.95933699608,,,,,2015_Nov_02_1800,A,facesParametric,15,59.5986688606,
./stim/MorphF5_06_orig.jpg,58,,,,,,,,,0,58,58,58,,,,,,,,,,,,,,,9.052734375,-13.0078125,0,0,1,1.52449393272,,,,,2015_Nov_02_1800,A,facesParametric,15,59.5986688606,
./stim/MorphM2_00_orig.jpg,59,,,,,,,,,0,59,59,59,,,,,,,,,,,,,,,9.0234375,-12.978515625,1,0,0,1.57190394402,,,,,2015_Nov_02_1800,A,facesParametric,15,59.5986688606,
./stim/MorphM7_07_orig.jpg,60,,,,,,,,,0,60,60,60,,,,,,,,,,,,,,,9.0234375,-13.037109375,0,0,1,1.42092704773,,,,,2015_Nov_02_1800,A,facesParametric,15,59.5986688606,
./stim/MorphF7_08_orig.jpg,61,,,,,,,,,0,61,61,61,,,,,,,,,,,,,,,8.935546875,-13.06640625,0,0,1,1.03620100021,,,,,2015_Nov_02_1800,A,facesParametric,15,59.5986688606,
./stim/MorphF4_06_orig.jpg,62,,,,,,,,,0,62,62,62,,,,,,,,,,,,,,,8.90625,-13.125,1,0,0,3.0155620575,,,,,2015_Nov_02_1800,A,facesParametric,15,59.5986688606,
./stim/MorphM1_01_orig.jpg,63,,,,,,,,,0,63,63,63,,,,,,,,,,,,,,,8.90625,-13.125,1,0,0,2.37619185448,,,,,2015_Nov_02_1800,A,facesParametric,15,59.5986688606,
./stim/MorphF5_10_orig.jpg,64,,,,,,,,,0,64,64,64,,,,,,,,,,,,,,,8.90625,-13.125,0,0,1,2.4103281498,,,,,2015_Nov_02_1800,A,facesParametric,15,59.5986688606,
./stim/MorphM4_06_orig.jpg,65,,,,,,,,,0,65,65,65,,,,,,,,,,,,,,,8.935546875,-13.095703125,0,0,1,0.903391122818,,,,,2015_Nov_02_1800,A,facesParametric,15,59.5986688606,
./stim/MorphF4_10_orig.jpg,66,,,,,,,,,0,66,66,66,,,,,,,,,,,,,,,8.96484375,-13.06640625,0,0,1,1.42338585854,,,,,2015_Nov_02_1800,A,facesParametric,15,59.5986688606,
./stim/MorphF6_04_orig.jpg,67,,,,,,,,,0,67,67,67,,,,,,,,,,,,,,,8.935546875,-13.06640625,1,0,0,1.67485499382,,,,,2015_Nov_02_1800,A,facesParametric,15,59.5986688606,
./stim/MorphF2_09_orig.jpg,68,,,,,,,,,0,68,68,68,,,,,,,,,,,,,,,8.90625,-13.06640625,0,0,1,2.1605629921,,,,,2015_Nov_02_1800,A,facesParametric,15,59.5986688606,
./stim/MorphF5_04_orig.jpg,69,,,,,,,,,0,69,69,69,,,,,,,,,,,,,,,8.876953125,-13.095703125,1,0,0,2.66365408897,,,,,2015_Nov_02_1800,A,facesParametric,15,59.5986688606,
./stim/MorphM4_07_orig.jpg,70,,,,,,,,,0,70,70,70,,,,,,,,,,,,,,,8.876953125,-13.095703125,0,0,1,0.81987786293,,,,,2015_Nov_02_1800,A,facesParametric,15,59.5986688606,
./stim/MorphF9_08_orig.jpg,71,,,,,,,,,0,71,71,71,,,,,,,,,,,,,,,8.876953125,-13.095703125,0,0,1,1.00458288193,,,,,2015_Nov_02_1800,A,facesParametric,15,59.5986688606,
./stim/MorphM4_02_orig.jpg,72,,,,,,,,,0,72,72,72,,,,,,,,,,,,,,,8.90625,-13.125,1,0,0,1.40668797493,,,,,2015_Nov_02_1800,A,facesParametric,15,59.5986688606,
./stim/MorphF10_09_orig.jpg,73,,,,,,,,,0,73,73,73,,,,,,,,,,,,,,,8.935546875,-13.154296875,0,0,1,0.95180606842,,,,,2015_Nov_02_1800,A,facesParametric,15,59.5986688606,
./stim/MorphM9_07_orig.jpg,74,,,,,,,,,0,74,74,74,,,,,,,,,,,,,,,8.935546875,-13.154296875,0,0,1,0.986377954483,,,,,2015_Nov_02_1800,A,facesParametric,15,59.5986688606,
./stim/MorphM4_05_orig.jpg,75,,,,,,,,,0,75,75,75,,,,,,,,,,,,,,,8.935546875,-13.154296875,1,0,0,3.19978809357,,,,,2015_Nov_02_1800,A,facesParametric,15,59.5986688606,
./stim/MorphM9_05_orig.jpg,76,,,,,,,,,0,76,76,76,,,,,,,,,,,,,,,8.935546875,-13.154296875,1,0,0,4.45648908615,,,,,2015_Nov_02_1800,A,facesParametric,15,59.5986688606,
./stim/MorphM8_10_orig.jpg,77,,,,,,,,,0,77,77,77,,,,,,,,,,,,,,,8.935546875,-13.154296875,0,0,1,0.869705200195,,,,,2015_Nov_02_1800,A,facesParametric,15,59.5986688606,
./stim/MorphM6_03_orig.jpg,78,,,,,,,,,0,78,78,78,,,,,,,,,,,,,,,8.96484375,-13.154296875,1,0,0,1.10349917412,,,,,2015_Nov_02_1800,A,facesParametric,15,59.5986688606,
./stim/MorphF8_07_orig.jpg,79,,,,,,,,,0,79,79,79,,,,,,,,,,,,,,,8.96484375,-13.154296875,1,0,0,3.97079801559,,,,,2015_Nov_02_1800,A,facesParametric,15,59.5986688606,
./stim/MorphF4_07_orig.jpg,80,,,,,,,,,0,80,80,80,,,,,,,,,,,,,,,9.287109375,-10.927734375,1,0,0,9.28387284279,,,,,2015_Nov_02_1800,A,facesParametric,15,59.5986688606,
./stim/MorphM1_06_orig.jpg,81,,,,,,,,,0,81,81,81,,,,,,,,,,,,,,,9.19921875,-10.869140625,1,0,0,0.93723487854,,,,,2015_Nov_02_1800,A,facesParametric,15,59.5986688606,
./stim/MorphF6_06_orig.jpg,82,,,,,,,,,0,82,82,82,,,,,,,,,,,,,,,9.111328125,-11.044921875,1,0,0,1.43996500969,,,,,2015_Nov_02_1800,A,facesParametric,15,59.5986688606,
./stim/MorphM9_01_orig.jpg,83,,,,,,,,,0,83,83,83,,,,,,,,,,,,,,,9.111328125,-11.044921875,1,0,0,1.02114701271,,,,,2015_Nov_02_1800,A,facesParametric,15,59.5986688606,
./stim/MorphF5_00_orig.jpg,84,,,,,,,,,0,84,84,84,,,,,,,,,,,,,,,9.111328125,-11.044921875,1,0,0,1.15511703491,,,,,2015_Nov_02_1800,A,facesParametric,15,59.5986688606,
./stim/MorphF2_05_orig.jpg,85,,,,,,,,,0,85,85,85,,,,,,,,,,,,,,,9.111328125,-11.044921875,0,0,1,0.987344026566,,,,,2015_Nov_02_1800,A,facesParametric,15,59.5986688606,
./stim/MorphM8_02_orig.jpg,86,,,,,,,,,0,86,86,86,,,,,,,,,,,,,,,9.111328125,-11.044921875,1,0,0,1.0214650631,,,,,2015_Nov_02_1800,A,facesParametric,15,59.5986688606,
./stim/MorphF7_00_orig.jpg,87,,,,,,,,,0,87,87,87,,,,,,,,,,,,,,,9.111328125,-11.044921875,1,0,0,0.918751001358,,,,,2015_Nov_02_1800,A,facesParametric,15,59.5986688606,
./stim/MorphF10_08_orig.jpg,88,,,,,,,,,0,88,88,88,,,,,,,,,,,,,,,9.111328125,-11.044921875,0,0,1,0.820096969604,,,,,2015_Nov_02_1800,A,facesParametric,15,59.5986688606,
./stim/MorphF4_02_orig.jpg,89,,,,,,,,,0,89,89,89,,,,,,,,,,,,,,,9.052734375,-11.07421875,1,0,0,2.72964715958,,,,,2015_Nov_02_1800,A,facesParametric,15,59.5986688606,
./stim/MorphM2_03_orig.jpg,90,,,,,,,,,0,90,90,90,,,,,,,,,,,,,,,9.052734375,-11.07421875,1,0,0,1.28946304321,,,,,2015_Nov_02_1800,A,facesParametric,15,59.5986688606,
./stim/MorphM4_01_orig.jpg,91,,,,,,,,,0,91,91,91,,,,,,,,,,,,,,,9.052734375,-11.07421875,1,0,0,1.7916059494,,,,,2015_Nov_02_1800,A,facesParametric,15,59.5986688606,
./stim/MorphF9_05_orig.jpg,92,,,,,,,,,0,92,92,92,,,,,,,,,,,,,,,9.052734375,-11.07421875,1,0,0,1.17167592049,,,,,2015_Nov_02_1800,A,facesParametric,15,59.5986688606,
./stim/MorphM9_10_orig.jpg,93,,,,,,,,,0,93,93,93,,,,,,,,,,,,,,,9.08203125,-11.044921875,0,0,1,1.02024912834,,,,,2015_Nov_02_1800,A,facesParametric,15,59.5986688606,
./stim/MorphF2_03_orig.jpg,94,,,,,,,,,0,94,94,94,,,,,,,,,,,,,,,9.08203125,-11.044921875,0,0,1,1.27249407768,,,,,2015_Nov_02_1800,A,facesParametric,15,59.5986688606,
./stim/MorphF8_06_orig.jpg,95,,,,,,,,,0,95,95,95,,,,,,,,,,,,,,,9.052734375,-11.044921875,0,0,1,1.724350214,,,,,2015_Nov_02_1800,A,facesParametric,15,59.5986688606,
./stim/MorphM5_05_orig.jpg,96,,,,,,,,,0,96,96,96,,,,,,,,,,,,,,,8.876953125,-10.95703125,1,0,0,2.46268391609,,,,,2015_Nov_02_1800,A,facesParametric,15,59.5986688606,
./stim/MorphF3_02_orig.jpg,97,,,,,,,,,0,97,97,97,,,,,,,,,,,,,,,8.876953125,-10.95703125,1,0,0,1.05442595482,,,,,2015_Nov_02_1800,A,facesParametric,15,59.5986688606,
./stim/MorphF8_09_orig.jpg,98,,,,,,,,,0,98,98,98,,,,,,,,,,,,,,,8.876953125,-10.95703125,0,0,1,0.819972991943,,,,,2015_Nov_02_1800,A,facesParametric,15,59.5986688606,
./stim/MorphF9_10_orig.jpg,99,,,,,,,,,0,99,99,99,,,,,,,,,,,,,,,8.876953125,-10.95703125,0,0,1,0.753030061722,,,,,2015_Nov_02_1800,A,facesParametric,15,59.5986688606,
./stim/MorphF1_04_orig.jpg,100,,,,,,,,,0,100,100,100,,,,,,,,,,,,,,,8.876953125,-10.927734375,1,0,0,1.94269299507,,,,,2015_Nov_02_1800,A,facesParametric,15,59.5986688606,
./stim/MorphM6_02_orig.jpg,101,,,,,,,,,0,101,101,101,,,,,,,,,,,,,,,8.876953125,-10.927734375,1,0,0,1.2221429348,,,,,2015_Nov_02_1800,A,facesParametric,15,59.5986688606,
./stim/MorphF2_01_orig.jpg,102,,,,,,,,,0,102,102,102,,,,,,,,,,,,,,,8.876953125,-10.927734375,1,0,0,1.27249479294,,,,,2015_Nov_02_1800,A,facesParametric,15,59.5986688606,
./stim/MorphM5_01_orig.jpg,103,,,,,,,,,0,103,103,103,,,,,,,,,,,,,,,8.876953125,-10.927734375,1,0,0,1.0047249794,,,,,2015_Nov_02_1800,A,facesParametric,15,59.5986688606,
./stim/MorphM7_08_orig.jpg,104,,,,,,,,,0,104,104,104,,,,,,,,,,,,,,,8.876953125,-10.927734375,0,0,1,1.57208895683,,,,,2015_Nov_02_1800,A,facesParametric,15,59.5986688606,
./stim/MorphM5_08_orig.jpg,105,,,,,,,,,0,105,105,105,,,,,,,,,,,,,,,8.876953125,-10.927734375,0,0,1,1.47247290611,,,,,2015_Nov_02_1800,A,facesParametric,15,59.5986688606,
./stim/MorphM8_04_orig.jpg,106,,,,,,,,,0,106,106,106,,,,,,,,,,,,,,,8.84765625,-10.8984375,0,0,1,2.64683508873,,,,,2015_Nov_02_1800,A,facesParametric,15,59.5986688606,
./stim/MorphM2_01_orig.jpg,107,,,,,,,,,0,107,107,107,,,,,,,,,,,,,,,8.818359375,-10.927734375,1,0,0,1.02090787888,,,,,2015_Nov_02_1800,A,facesParametric,15,59.5986688606,
./stim/MorphF9_09_orig.jpg,108,,,,,,,,,0,108,108,108,,,,,,,,,,,,,,,8.7890625,-10.8984375,0,0,1,4.21984386444,,,,,2015_Nov_02_1800,A,facesParametric,15,59.5986688606,
./stim/MorphM5_06_orig.jpg,109,,,,,,,,,0,109,109,109,,,,,,,,,,,,,,,8.7890625,-10.8984375,1,0,0,1.17062592506,,,,,2015_Nov_02_1800,A,facesParametric,15,59.5986688606,
./stim/MorphF2_08_orig.jpg,110,,,,,,,,,0,110,110,110,,,,,,,,,,,,,,,8.7890625,-10.8984375,0,0,1,0.886955022812,,,,,2015_Nov_02_1800,A,facesParametric,15,59.5986688606,
./stim/MorphF3_06_orig.jpg,111,,,,,,,,,0,111,111,111,,,,,,,,,,,,,,,8.7890625,-10.8984375,0,0,1,3.13296294212,,,,,2015_Nov_02_1800,A,facesParametric,15,59.5986688606,
./stim/MorphM5_00_orig.jpg,112,,,,,,,,,0,112,112,112,,,,,,,,,,,,,,,8.7890625,-10.8984375,1,0,0,1.43884396553,,,,,2015_Nov_02_1800,A,facesParametric,15,59.5986688606,
./stim/MorphF6_10_orig.jpg,113,,,,,,,,,0,113,113,113,,,,,,,,,,,,,,,8.7890625,-10.8984375,0,0,1,1.92576003075,,,,,2015_Nov_02_1800,A,facesParametric,15,59.5986688606,
./stim/MorphM2_02_orig.jpg,114,,,,,,,,,0,114,114,114,,,,,,,,,,,,,,,8.7890625,-10.8984375,1,0,0,4.82356214523,,,,,2015_Nov_02_1800,A,facesParametric,15,59.5986688606,
./stim/MorphF6_07_orig.jpg,115,,,,,,,,,0,115,115,115,,,,,,,,,,,,,,,8.7890625,-10.8984375,0,0,1,1.79183006287,,,,,2015_Nov_02_1800,A,facesParametric,15,59.5986688606,
./stim/MorphF8_03_orig.jpg,116,,,,,,,,,0,116,116,116,,,,,,,,,,,,,,,8.759765625,-10.869140625,1,0,0,1.27214097977,,,,,2015_Nov_02_1800,A,facesParametric,15,59.5986688606,
./stim/MorphF6_08_orig.jpg,117,,,,,,,,,0,117,117,117,,,,,,,,,,,,,,,8.759765625,-10.869140625,0,0,1,1.17184185982,,,,,2015_Nov_02_1800,A,facesParametric,15,59.5986688606,
./stim/MorphM7_06_orig.jpg,118,,,,,,,,,0,118,118,118,,,,,,,,,,,,,,,8.73046875,-10.8984375,0,0,1,3.92008304596,,,,,2015_Nov_02_1800,A,facesParametric,15,59.5986688606,
./stim/MorphF3_10_orig.jpg,119,,,,,,,,,0,119,119,119,,,,,,,,,,,,,,,8.73046875,-10.8984375,0,0,1,1.2216899395,,,,,2015_Nov_02_1800,A,facesParametric,15,59.5986688606,
./stim/MorphF9_03_orig.jpg,120,,,,,,,,,0,120,120,120,,,,,,,,,,,,,,,8.671875,-10.869140625,1,0,0,3.0639500618,,,,,2015_Nov_02_1800,A,facesParametric,15,59.5986688606,
./stim/MorphM4_10_orig.jpg,121,,,,,,,,,0,121,121,121,,,,,,,,,,,,,,,8.671875,-10.869140625,0,0,1,0.869093894958,,,,,2015_Nov_02_1800,A,facesParametric,15,59.5986688606,
./stim/MorphM10_07_orig.jpg,122,,,,,,,,,0,122,122,122,,,,,,,,,,,,,,,8.642578125,-10.83984375,0,0,1,0.753333091736,,,,,2015_Nov_02_1800,A,facesParametric,15,59.5986688606,
./stim/MorphF2_07_orig.jpg,123,,,,,,,,,0,123,123,123,,,,,,,,,,,,,,,8.642578125,-10.83984375,0,0,1,0.736171960831,,,,,2015_Nov_02_1800,A,facesParametric,15,59.5986688606,
./stim/MorphM2_06_orig.jpg,124,,,,,,,,,0,124,124,124,,,,,,,,,,,,,,,8.61328125,-10.83984375,1,0,0,1.60706615448,,,,,2015_Nov_02_1800,A,facesParametric,15,59.5986688606,
./stim/MorphM9_06_orig.jpg,125,,,,,,,,,0,125,125,125,,,,,,,,,,,,,,,8.61328125,-10.83984375,1,0,0,2.81338906288,,,,,2015_Nov_02_1800,A,facesParametric,15,59.5986688606,
./stim/MorphM6_08_orig.jpg,126,,,,,,,,,0,126,126,126,,,,,,,,,,,,,,,8.61328125,-10.83984375,1,0,0,1.39019298553,,,,,2015_Nov_02_1800,A,facesParametric,15,59.5986688606,
./stim/MorphM4_09_orig.jpg,127,,,,,,,,,0,127,127,127,,,,,,,,,,,,,,,8.61328125,-10.83984375,0,0,1,1.02088212967,,,,,2015_Nov_02_1800,A,facesParametric,15,59.5986688606,
./stim/MorphM2_08_orig.jpg,128,,,,,,,,,0,128,128,128,,,,,,,,,,,,,,,8.583984375,-10.83984375,1,0,0,0.987588882446,,,,,2015_Nov_02_1800,A,facesParametric,15,59.5986688606,
./stim/MorphM1_03_orig.jpg,129,,,,,,,,,0,129,129,129,,,,,,,,,,,,,,,8.583984375,-10.83984375,1,0,0,3.60212397575,,,,,2015_Nov_02_1800,A,facesParametric,15,59.5986688606,
./stim/MorphM2_10_orig.jpg,130,,,,,,,,,0,130,130,130,,,,,,,,,,,,,,,8.583984375,-10.83984375,1,0,0,4.2220158577,,,,,2015_Nov_02_1800,A,facesParametric,15,59.5986688606,
./stim/MorphM9_02_orig.jpg,131,,,,,,,,,0,131,131,131,,,,,,,,,,,,,,,8.583984375,-10.83984375,1,0,0,1.1363761425,,,,,2015_Nov_02_1800,A,facesParametric,15,59.5986688606,
./stim/MorphM1_09_orig.jpg,132,,,,,,,,,0,132,132,132,,,,,,,,,,,,,,,8.583984375,-10.83984375,1,0,0,1.01943206787,,,,,2015_Nov_02_1800,A,facesParametric,15,59.5986688606,
./stim/MorphM8_09_orig.jpg,133,,,,,,,,,0,133,133,133,,,,,,,,,,,,,,,8.583984375,-10.83984375,0,0,1,0.98787021637,,,,,2015_Nov_02_1800,A,facesParametric,15,59.5986688606,
./stim/MorphF5_08_orig.jpg,134,,,,,,,,,0,134,134,134,,,,,,,,,,,,,,,8.583984375,-10.83984375,0,0,1,1.5569229126,,,,,2015_Nov_02_1800,A,facesParametric,15,59.5986688606,
./stim/MorphM5_04_orig.jpg,135,,,,,,,,,0,135,135,135,,,,,,,,,,,,,,,8.583984375,-10.83984375,1,0,0,2.6970808506,,,,,2015_Nov_02_1800,A,facesParametric,15,59.5986688606,
./stim/MorphF4_05_orig.jpg,136,,,,,,,,,0,136,136,136,,,,,,,,,,,,,,,8.5546875,-10.810546875,1,0,0,2.02510905266,,,,,2015_Nov_02_1800,A,facesParametric,15,59.5986688606,
./stim/MorphF10_04_orig.jpg,137,,,,,,,,,0,137,137,137,,,,,,,,,,,,,,,8.5546875,-10.810546875,0,0,1,0.868944883347,,,,,2015_Nov_02_1800,A,facesParametric,15,59.5986688606,
./stim/MorphF5_09_orig.jpg,138,,,,,,,,,0,138,138,138,,,,,,,,,,,,,,,8.583984375,-10.83984375,0,0,1,3.33235502243,,,,,2015_Nov_02_1800,A,facesParametric,15,59.5986688606,
./stim/MorphF3_05_orig.jpg,139,,,,,,,,,0,139,139,139,,,,,,,,,,,,,,,8.525390625,-10.8984375,1,0,0,3.78698301315,,,,,2015_Nov_02_1800,A,facesParametric,15,59.5986688606,
./stim/MorphF5_01_orig.jpg,140,,,,,,,,,0,140,140,140,,,,,,,,,,,,,,,8.525390625,-10.8984375,1,0,0,8.52922296524,,,,,2015_Nov_02_1800,A,facesParametric,15,59.5986688606,
./stim/MorphM6_10_orig.jpg,141,,,,,,,,,0,141,141,141,,,,,,,,,,,,,,,8.525390625,-10.869140625,1,0,0,3.56861686707,,,,,2015_Nov_02_1800,A,facesParametric,15,59.5986688606,
./stim/MorphM5_03_orig.jpg,142,,,,,,,,,0,142,142,142,,,,,,,,,,,,,,,8.525390625,-10.869140625,1,0,0,1.40665388107,,,,,2015_Nov_02_1800,A,facesParametric,15,59.5986688606,
./stim/MorphM1_02_orig.jpg,143,,,,,,,,,0,143,143,143,,,,,,,,,,,,,,,8.525390625,-10.869140625,1,0,0,0.954184055328,,,,,2015_Nov_02_1800,A,facesParametric,15,59.5986688606,
./stim/MorphF9_07_orig.jpg,144,,,,,,,,,0,144,144,144,,,,,,,,,,,,,,,8.525390625,-10.869140625,1,0,0,1.03752303123,,,,,2015_Nov_02_1800,A,facesParametric,15,59.5986688606,
./stim/MorphM1_10_orig.jpg,145,,,,,,,,,0,145,145,145,,,,,,,,,,,,,,,8.525390625,-10.869140625,1,0,0,1.27270889282,,,,,2015_Nov_02_1800,A,facesParametric,15,59.5986688606,
./stim/MorphM2_07_orig.jpg,146,,,,,,,,,0,146,146,146,,,,,,,,,,,,,,,8.525390625,-10.869140625,1,0,0,1.07140684128,,,,,2015_Nov_02_1800,A,facesParametric,15,59.5986688606,
./stim/MorphF2_02_orig.jpg,147,,,,,,,,,0,147,147,147,,,,,,,,,,,,,,,8.525390625,-10.869140625,1,0,0,1.0705640316,,,,,2015_Nov_02_1800,A,facesParametric,15,59.5986688606,
./stim/MorphM9_08_orig.jpg,148,,,,,,,,,0,148,148,148,,,,,,,,,,,,,,,8.525390625,-10.869140625,1,0,0,3.43328213692,,,,,2015_Nov_02_1800,A,facesParametric,15,59.5986688606,
./stim/MorphF8_02_orig.jpg,149,,,,,,,,,0,149,149,149,,,,,,,,,,,,,,,8.525390625,-10.869140625,1,0,0,1.53912901878,,,,,2015_Nov_02_1800,A,facesParametric,15,59.5986688606,
./stim/MorphM4_03_orig.jpg,150,,,,,,,,,0,150,150,150,,,,,,,,,,,,,,,8.525390625,-10.869140625,1,0,0,1.37331295013,,,,,2015_Nov_02_1800,A,facesParametric,15,59.5986688606,
./stim/MorphF6_03_orig.jpg,151,,,,,,,,,0,151,151,151,,,,,,,,,,,,,,,8.525390625,-10.83984375,1,0,0,2.07620310783,,,,,2015_Nov_02_1800,A,facesParametric,15,59.5986688606,
./stim/MorphF8_05_orig.jpg,152,,,,,,,,,0,152,152,152,,,,,,,,,,,,,,,8.525390625,-10.83984375,1,0,0,1.37181687355,,,,,2015_Nov_02_1800,A,facesParametric,15,59.5986688606,
./stim/MorphF7_10_orig.jpg,153,,,,,,,,,0,153,153,153,,,,,,,,,,,,,,,8.525390625,-10.83984375,0,0,1,0.851327180862,,,,,2015_Nov_02_1800,A,facesParametric,15,59.5986688606,
./stim/MorphF3_01_orig.jpg,154,,,,,,,,,0,154,154,154,,,,,,,,,,,,,,,8.525390625,-10.83984375,1,0,0,2.07690095901,,,,,2015_Nov_02_1800,A,facesParametric,15,59.5986688606,
./stim/MorphF1_10_orig.jpg,155,,,,,,,,,0,155,155,155,,,,,,,,,,,,,,,8.525390625,-10.83984375,1,0,0,2.19464015961,,,,,2015_Nov_02_1800,A,facesParametric,15,59.5986688606,
./stim/MorphM6_07_orig.jpg,156,,,,,,,,,0,156,156,156,,,,,,,,,,,,,,,8.525390625,-10.83984375,1,0,0,1.07149815559,,,,,2015_Nov_02_1800,A,facesParametric,15,59.5986688606,
./stim/MorphF6_00_orig.jpg,157,,,,,,,,,0,157,157,157,,,,,,,,,,,,,,,8.525390625,-10.83984375,1,0,0,2.16024112701,,,,,2015_Nov_02_1800,A,facesParametric,15,59.5986688606,
./stim/MorphM10_08_orig.jpg,158,,,,,,,,,0,158,158,158,,,,,,,,,,,,,,,8.525390625,-10.83984375,0,0,1,2.56254887581,,,,,2015_Nov_02_1800,A,facesParametric,15,59.5986688606,
./stim/MorphF3_08_orig.jpg,159,,,,,,,,,0,159,159,159,,,,,,,,,,,,,,,8.49609375,-10.810546875,0,0,1,2.07542109489,,,,,2015_Nov_02_1800,A,facesParametric,15,59.5986688606,
./stim/MorphM4_04_orig.jpg,160,,,,,,,,,0,160,160,160,,,,,,,,,,,,,,,8.49609375,-10.810546875,1,0,0,2.98233318329,,,,,2015_Nov_02_1800,A,facesParametric,15,59.5986688606,
./stim/MorphM9_04_orig.jpg,161,,,,,,,,,0,161,161,161,,,,,,,,,,,,,,,8.49609375,-10.810546875,1,0,0,0.953656196594,,,,,2015_Nov_02_1800,A,facesParametric,15,59.5986688606,
./stim/MorphF4_04_orig.jpg,162,,,,,,,,,0,162,162,162,,,,,,,,,,,,,,,8.49609375,-10.810546875,1,0,0,1.15352797508,,,,,2015_Nov_02_1800,A,facesParametric,15,59.5986688606,
./stim/MorphM8_08_orig.jpg,163,,,,,,,,,0,163,163,163,,,,,,,,,,,,,,,8.49609375,-10.810546875,0,0,1,1.00444984436,,,,,2015_Nov_02_1800,A,facesParametric,15,59.5986688606,
./stim/MorphM7_01_orig.jpg,164,,,,,,,,,0,164,164,164,,,,,,,,,,,,,,,8.4375,-10.810546875,1,0,0,2.59608793259,,,,,2015_Nov_02_1800,A,facesParametric,15,59.5986688606,
./stim/MorphM8_00_orig.jpg,165,,,,,,,,,0,165,165,165,,,,,,,,,,,,,,,8.4375,-10.810546875,0,0,1,2.07634282112,,,,,2015_Nov_02_1800,A,facesParametric,15,59.5986688606,
./stim/MorphM6_04_orig.jpg,166,,,,,,,,,0,166,166,166,,,,,,,,,,,,,,,8.4375,-10.810546875,1,0,0,1.35631203651,,,,,2015_Nov_02_1800,A,facesParametric,15,59.5986688606,
./stim/MorphM9_09_orig.jpg,167,,,,,,,,,0,167,167,167,,,,,,,,,,,,,,,8.4375,-10.810546875,0,0,1,1.5053498745,,,,,2015_Nov_02_1800,A,facesParametric,15,59.5986688606,
./stim/MorphF1_06_orig.jpg,168,,,,,,,,,0,168,168,168,,,,,,,,,,,,,,,8.4375,-10.810546875,1,0,0,1.38786292076,,,,,2015_Nov_02_1800,A,facesParametric,15,59.5986688606,
./stim/MorphM7_02_orig.jpg,169,,,,,,,,,0,169,169,169,,,,,,,,,,,,,,,8.408203125,-10.810546875,1,0,0,1.1033270359,,,,,2015_Nov_02_1800,A,facesParametric,15,59.5986688606,
./stim/MorphF7_06_orig.jpg,170,,,,,,,,,0,170,170,170,,,,,,,,,,,,,,,8.408203125,-10.810546875,1,0,0,1.60757493973,,,,,2015_Nov_02_1800,A,facesParametric,15,59.5986688606,
./stim/MorphM9_00_orig.jpg,171,,,,,,,,,0,171,171,171,,,,,,,,,,,,,,,8.408203125,-10.810546875,1,0,0,1.03741693497,,,,,2015_Nov_02_1800,A,facesParametric,15,59.5986688606,
./stim/MorphM3_04_orig.jpg,172,,,,,,,,,0,172,172,172,,,,,,,,,,,,,,,8.408203125,-10.810546875,0,0,1,6.19987106323,,,,,2015_Nov_02_1800,A,facesParametric,15,59.5986688606,
./stim/MorphF7_09_orig.jpg,173,,,,,,,,,0,173,173,173,,,,,,,,,,,,,,,8.37890625,-10.83984375,0,0,1,0.819416999817,,,,,2015_Nov_02_1800,A,facesParametric,15,59.5986688606,
./stim/MorphM8_07_orig.jpg,174,,,,,,,,,0,174,174,174,,,,,,,,,,,,,,,8.408203125,-10.869140625,0,0,1,0.718970060349,,,,,2015_Nov_02_1800,A,facesParametric,15,59.5986688606,
./stim/MorphF1_02_orig.jpg,175,,,,,,,,,0,175,175,175,,,,,,,,,,,,,,,8.408203125,-10.869140625,1,0,0,1.07140994072,,,,,2015_Nov_02_1800,A,facesParametric,15,59.5986688606,
./stim/MorphM7_00_orig.jpg,176,,,,,,,,,0,176,176,176,,,,,,,,,,,,,,,8.408203125,-10.869140625,1,0,0,1.75849986076,,,,,2015_Nov_02_1800,A,facesParametric,15,59.5986688606,
./stim/MorphF10_03_orig.jpg,177,,,,,,,,,0,177,177,177,,,,,,,,,,,,,,,8.408203125,-10.869140625,0,0,1,1.27284121513,,,,,2015_Nov_02_1800,A,facesParametric,15,59.5986688606,
./stim/MorphM8_01_orig.jpg,178,,,,,,,,,0,178,178,178,,,,,,,,,,,,,,,8.408203125,-10.869140625,0,0,1,3.70245909691,,,,,2015_Nov_02_1800,A,facesParametric,15,59.5986688606,
./stim/MorphF10_07_orig.jpg,179,,,,,,,,,0,179,179,179,,,,,,,,,,,,,,,8.4375,-10.83984375,0,0,1,0.853096961975,,,,,2015_Nov_02_1800,A,facesParametric,15,59.5986688606,
./stim/MorphM3_10_orig.jpg,180,,,,,,,,,0,180,180,180,,,,,,,,,,,,,,,8.466796875,-10.83984375,0,0,1,1.08843708038,,,,,2015_Nov_02_1800,A,facesParametric,15,59.5986688606,
./stim/MorphF7_07_orig.jpg,181,,,,,,,,,0,181,181,181,,,,,,,,,,,,,,,8.49609375,-10.83984375,0,0,1,0.987437963486,,,,,2015_Nov_02_1800,A,facesParametric,15,59.5986688606,
./stim/MorphM1_04_orig.jpg,182,,,,,,,,,0,182,182,182,,,,,,,,,,,,,,,8.525390625,-10.869140625,1,0,0,2.24369502068,,,,,2015_Nov_02_1800,A,facesParametric,15,59.5986688606,
./stim/MorphM6_00_orig.jpg,183,,,,,,,,,0,183,183,183,,,,,,,,,,,,,,,8.525390625,-10.869140625,1,0,0,1.05461001396,,,,,2015_Nov_02_1800,A,facesParametric,15,59.5986688606,
./stim/MorphF1_00_orig.jpg,184,,,,,,,,,0,184,184,184,,,,,,,,,,,,,,,8.49609375,-10.8984375,1,0,0,2.11039590836,,,,,2015_Nov_02_1800,A,facesParametric,15,59.5986688606,
./stim/MorphF5_05_orig.jpg,185,,,,,,,,,0,185,185,185,,,,,,,,,,,,,,,8.49609375,-10.8984375,1,0,0,1.64144611359,,,,,2015_Nov_02_1800,A,facesParametric,15,59.5986688606,
./stim/MorphF9_01_orig.jpg,186,,,,,,,,,0,186,186,186,,,,,,,,,,,,,,,8.49609375,-10.8984375,1,0,0,1.07041501999,,,,,2015_Nov_02_1800,A,facesParametric,15,59.5986688606,
./stim/MorphF8_08_orig.jpg,187,,,,,,,,,0,187,187,187,,,,,,,,,,,,,,,8.49609375,-10.8984375,0,0,1,1.00277209282,,,,,2015_Nov_02_1800,A,facesParametric,15,59.5986688606,
./stim/MorphM7_05_orig.jpg,188,,,,,,,,,0,188,188,188,,,,,,,,,,,,,,,8.49609375,-10.8984375,1,0,0,1.6581351757,,,,,2015_Nov_02_1800,A,facesParametric,15,59.5986688606,
./stim/MorphM8_05_orig.jpg,189,,,,,,,,,0,189,189,189,,,,,,,,,,,,,,,8.49609375,-10.8984375,0,0,1,3.13214707375,,,,,2015_Nov_02_1800,A,facesParametric,15,59.5986688606,
./stim/MorphF7_01_orig.jpg,190,,,,,,,,,0,190,190,190,,,,,,,,,,,,,,,8.37890625,-10.927734375,1,0,0,3.8031938076,,,,,2015_Nov_02_1800,A,facesParametric,15,59.5986688606,
./stim/MorphF10_06_orig.jpg,191,,,,,,,,,0,191,191,191,,,,,,,,,,,,,,,8.408203125,-10.927734375,0,0,1,0.853019952774,,,,,2015_Nov_02_1800,A,facesParametric,15,59.5986688606,
./stim/MorphF1_07_orig.jpg,192,,,,,,,,,0,192,192,192,,,,,,,,,,,,,,,8.408203125,-10.927734375,1,0,0,1.87550187111,,,,,2015_Nov_02_1800,A,facesParametric,15,59.5986688606,
./stim/MorphM10_01_orig.jpg,193,,,,,,,,,0,193,193,193,,,,,,,,,,,,,,,8.4375,-10.8984375,1,0,0,3.11516690254,,,,,2015_Nov_02_1800,A,facesParametric,15,59.5986688606,
./stim/MorphF7_05_orig.jpg,194,,,,,,,,,0,194,194,194,,,,,,,,,,,,,,,8.408203125,-10.927734375,1,0,0,0.750941991806,,,,,2015_Nov_02_1800,A,facesParametric,15,59.5986688606,
./stim/MorphM7_09_orig.jpg,195,,,,,,,,,0,195,195,195,,,,,,,,,,,,,,,8.408203125,-10.927734375,0,0,1,1.13905310631,,,,,2015_Nov_02_1800,A,facesParametric,15,59.5986688606,
./stim/MorphM4_00_orig.jpg,196,,,,,,,,,0,196,196,196,,,,,,,,,,,,,,,8.37890625,-10.927734375,1,0,0,1.02054190636,,,,,2015_Nov_02_1800,A,facesParametric,15,59.5986688606,
./stim/MorphF10_01_orig.jpg,197,,,,,,,,,0,197,197,197,,,,,,,,,,,,,,,8.37890625,-10.927734375,1,0,0,1.30419588089,,,,,2015_Nov_02_1800,A,facesParametric,15,59.5986688606,
./stim/MorphM6_05_orig.jpg,198,,,,,,,,,0,198,198,198,,,,,,,,,,,,,,,8.37890625,-10.927734375,1,0,0,1.73973608017,,,,,2015_Nov_02_1800,A,facesParametric,15,59.5986688606,
./stim/MorphM7_03_orig.jpg,199,,,,,,,,,0,199,199,199,,,,,,,,,,,,,,,8.37890625,-10.927734375,1,0,0,2.34534311295,,,,,2015_Nov_02_1800,A,facesParametric,15,59.5986688606,
./stim/MorphM3_06_orig.jpg,200,,,,,,,,,0,200,200,200,,,,,,,,,,,,,,,8.37890625,-10.927734375,1,0,0,4.72502207756,,,,,2015_Nov_02_1800,A,facesParametric,15,59.5986688606,
./stim/MorphM6_09_orig.jpg,201,,,,,,,,,0,201,201,201,,,,,,,,,,,,,,,8.37890625,-10.927734375,1,0,0,1.53928303719,,,,,2015_Nov_02_1800,A,facesParametric,15,59.5986688606,
./stim/MorphF4_00_orig.jpg,202,,,,,,,,,0,202,202,202,,,,,,,,,,,,,,,8.37890625,-10.927734375,1,0,0,1.37273907661,,,,,2015_Nov_02_1800,A,facesParametric,15,59.5986688606,
./stim/MorphF9_02_orig.jpg,203,,,,,,,,,0,203,203,203,,,,,,,,,,,,,,,8.37890625,-10.927734375,1,0,0,2.36166286469,,,,,2015_Nov_02_1800,A,facesParametric,15,59.5986688606,
./stim/MorphM3_03_orig.jpg,204,,,,,,,,,0,204,204,204,,,,,,,,,,,,,,,8.37890625,-10.927734375,1,0,0,3.63551306725,,,,,2015_Nov_02_1800,A,facesParametric,15,59.5986688606,
./stim/MorphF10_00_orig.jpg,205,,,,,,,,,0,205,205,205,,,,,,,,,,,,,,,8.37890625,-10.927734375,1,0,0,0.802624940872,,,,,2015_Nov_02_1800,A,facesParametric,15,59.5986688606,
./stim/MorphM3_00_orig.jpg,206,,,,,,,,,0,206,206,206,,,,,,,,,,,,,,,8.37890625,-10.927734375,1,0,0,1.30370998383,,,,,2015_Nov_02_1800,A,facesParametric,15,59.5986688606,
./stim/MorphF10_02_orig.jpg,207,,,,,,,,,0,207,207,207,,,,,,,,,,,,,,,8.37890625,-10.927734375,1,0,0,2.32809305191,,,,,2015_Nov_02_1800,A,facesParametric,15,59.5986688606,
./stim/MorphM3_05_orig.jpg,208,,,,,,,,,0,208,208,208,,,,,,,,,,,,,,,8.37890625,-10.927734375,1,0,0,1.25389695168,,,,,2015_Nov_02_1800,A,facesParametric,15,59.5986688606,
./stim/MorphM1_08_orig.jpg,209,,,,,,,,,0,209,209,209,,,,,,,,,,,,,,,8.37890625,-10.927734375,1,0,0,1.20569801331,,,,,2015_Nov_02_1800,A,facesParametric,15,59.5986688606,
./stim/MorphF8_00_orig.jpg,210,,,,,,,,,0,210,210,210,,,,,,,,,,,,,,,8.37890625,-10.927734375,1,0,0,1.75564789772,,,,,2015_Nov_02_1800,A,facesParametric,15,59.5986688606,
./stim/MorphM6_06_orig.jpg,211,,,,,,,,,0,211,211,211,,,,,,,,,,,,,,,8.37890625,-10.927734375,1,0,0,1.02040815353,,,,,2015_Nov_02_1800,A,facesParametric,15,59.5986688606,
./stim/MorphM10_04_orig.jpg,212,,,,,,,,,0,212,212,212,,,,,,,,,,,,,,,8.37890625,-10.927734375,0,0,1,0.904136180878,,,,,2015_Nov_02_1800,A,facesParametric,15,59.5986688606,
./stim/MorphF1_09_orig.jpg,213,,,,,,,,,0,213,213,213,,,,,,,,,,,,,,,8.37890625,-10.927734375,1,0,0,0.918557167053,,,,,2015_Nov_02_1800,A,facesParametric,15,59.5986688606,
./stim/MorphM2_05_orig.jpg,214,,,,,,,,,0,214,214,214,,,,,,,,,,,,,,,8.349609375,-10.95703125,1,0,0,1.13808298111,,,,,2015_Nov_02_1800,A,facesParametric,15,59.5986688606,
./stim/MorphF2_06_orig.jpg,215,,,,,,,,,0,215,215,215,,,,,,,,,,,,,,,8.349609375,-10.95703125,0,0,1,0.937259197235,,,,,2015_Nov_02_1800,A,facesParametric,15,59.5986688606,
./stim/MorphF3_07_orig.jpg,216,,,,,,,,,0,216,216,216,,,,,,,,,,,,,,,8.3203125,-10.927734375,0,0,1,1.05471014977,,,,,2015_Nov_02_1800,A,facesParametric,15,59.5986688606,
./stim/MorphM10_00_orig.jpg,217,,,,,,,,,0,217,217,217,,,,,,,,,,,,,,,8.3203125,-10.927734375,1,0,0,1.80816102028,,,,,2015_Nov_02_1800,A,facesParametric,15,59.5986688606,
./stim/MorphF3_04_orig.jpg,218,,,,,,,,,0,218,218,218,,,,,,,,,,,,,,,8.3203125,-10.927734375,1,0,0,2.31153702736,,,,,2015_Nov_02_1800,A,facesParametric,15,59.5986688606,
./stim/MorphM3_02_orig.jpg,219,,,,,,,,,0,219,219,219,,,,,,,,,,,,,,,8.3203125,-10.927734375,1,0,0,1.33978891373,,,,,2015_Nov_02_1800,A,facesParametric,15,59.5986688606,
,,,,,,,,,,,,,,,,,,,,,,,,,,,,,,,,,,,,return,4.08205604553,2015_Nov_02_1800,A,facesParametric,15,59.5986688606,
