img,num,basicLoop.thisRepN,basicLoop.thisTrialN,basicLoop.thisN,basicLoop.thisIndex,trials.thisRepN,trials.thisTrialN,trials.thisN,trials.thisIndex,trials2.thisRepN,trials2.thisTrialN,trials2.thisN,trials2.thisIndex,key_resp_2.keys,key_resp_2.rt,basicRating1.response,basicRating1.rt,basicRating2.response,basicRating2.rt,basicRating3.response,basicRating3.rt,basicRating4.response,basicRating4.rt,key_resp_3.keys,key_resp_3.rt,key_resp_4.keys,key_resp_4.rt,mouseResp.x,mouseResp.y,mouseResp.leftButton,mouseResp.midButton,mouseResp.rightButton,mouseResp.time,key_resp_5.keys,key_resp_5.rt,date,group,expName,participant,frameRate,
,,,,,,,,,,,,,,return,65.7775480747,,,,,,,,,,,,,,,,,,,,,2015_Nov_04_2015,A,facesParametric,16,59.6972371035,
./basicStim/06F_SP_O.jpg,,0,0,0,26,,,,,,,,,,,None,None,None,None,SUP,7.737,None,None,,,,,,,,,,,,,2015_Nov_04_2015,A,facesParametric,16,59.6972371035,
./basicStim/21M_AN_O.jpg,,0,1,1,42,,,,,,,,,,,None,None,ANG,5.283,None,None,None,None,,,,,,,,,,,,,2015_Nov_04_2015,A,facesParametric,16,59.6972371035,
./basicStim/02F_NE_C.jpg,,0,2,2,13,,,,,,,,,,,None,None,None,None,None,None,NTR,2.603,,,,,,,,,,,,,2015_Nov_04_2015,A,facesParametric,16,59.6972371035,
./basicStim/01F_FE_O.jpg,,0,3,3,2,,,,,,,,,,,None,None,None,None,DIS,4.593,None,None,,,,,,,,,,,,,2015_Nov_04_2015,A,facesParametric,16,59.6972371035,
./basicStim/07F_DI_O.jpg,,0,4,4,29,,,,,,,,,,,None,None,None,None,DIS,4.482,None,None,,,,,,,,,,,,,2015_Nov_04_2015,A,facesParametric,16,59.6972371035,
./basicStim/06F_SA_C.jpg,,0,5,5,25,,,,,,,,,,,None,None,ANG,6.006,None,None,None,None,,,,,,,,,,,,,2015_Nov_04_2015,A,facesParametric,16,59.6972371035,
./basicStim/28M_SA_C.jpg,,0,6,6,67,,,,,,,,,,,SAD,2.2,None,None,None,None,None,None,,,,,,,,,,,,,2015_Nov_04_2015,A,facesParametric,16,59.6972371035,
./basicStim/24M_HA_O.jpg,,0,7,7,59,,,,,,,,,,,HAP,2.952,None,None,None,None,None,None,,,,,,,,,,,,,2015_Nov_04_2015,A,facesParametric,16,59.6972371035,
./basicStim/01F_SP_O.jpg,,0,8,8,5,,,,,,,,,,,None,None,None,None,SUP,4.762,None,None,,,,,,,,,,,,,2015_Nov_04_2015,A,facesParametric,16,59.6972371035,
./basicStim/07F_HA_O.jpg,,0,9,9,31,,,,,,,,,,,HAP,1.918,None,None,None,None,None,None,,,,,,,,,,,,,2015_Nov_04_2015,A,facesParametric,16,59.6972371035,
./basicStim/28M_NE_C.jpg,,0,10,10,69,,,,,,,,,,,None,None,None,None,None,None,NTR,1.997,,,,,,,,,,,,,2015_Nov_04_2015,A,facesParametric,16,59.6972371035,
./basicStim/21M_DI_O.jpg,,0,11,11,43,,,,,,,,,,,None,None,None,None,DIS,1.816,None,None,,,,,,,,,,,,,2015_Nov_04_2015,A,facesParametric,16,59.6972371035,
./basicStim/09F_FE_O.jpg,,0,12,12,37,,,,,,,,,,,None,None,FEA,5.316,None,None,None,None,,,,,,,,,,,,,2015_Nov_04_2015,A,facesParametric,16,59.6972371035,
./basicStim/28M_AN_O.jpg,,0,13,13,63,,,,,,,,,,,None,None,ANG,3.17,None,None,None,None,,,,,,,,,,,,,2015_Nov_04_2015,A,facesParametric,16,59.6972371035,
./basicStim/02F_DI_O.jpg,,0,14,14,8,,,,,,,,,,,None,None,ANG,5.047,None,None,None,None,,,,,,,,,,,,,2015_Nov_04_2015,A,facesParametric,16,59.6972371035,
./basicStim/24M_FE_O.jpg,,0,15,15,58,,,,,,,,,,,None,None,FEA,2.101,None,None,None,None,,,,,,,,,,,,,2015_Nov_04_2015,A,facesParametric,16,59.6972371035,
./basicStim/36M_AN_O.jpg,,0,16,16,77,,,,,,,,,,,None,None,ANG,1.714,None,None,None,None,,,,,,,,,,,,,2015_Nov_04_2015,A,facesParametric,16,59.6972371035,
./basicStim/03F_DI_O.jpg,,0,17,17,15,,,,,,,,,,,None,None,None,None,DIS,2.482,None,None,,,,,,,,,,,,,2015_Nov_04_2015,A,facesParametric,16,59.6972371035,
./basicStim/34M_HA_O.jpg,,0,18,18,73,,,,,,,,,,,HAP,1.967,None,None,None,None,None,None,,,,,,,,,,,,,2015_Nov_04_2015,A,facesParametric,16,59.6972371035,
./basicStim/06F_NE_C.jpg,,0,19,19,27,,,,,,,,,,,None,None,None,None,None,None,NTR,1.512,,,,,,,,,,,,,2015_Nov_04_2015,A,facesParametric,16,59.6972371035,
./basicStim/03F_SP_O.jpg,,0,20,20,19,,,,,,,,,,,None,None,None,None,SUP,2.718,None,None,,,,,,,,,,,,,2015_Nov_04_2015,A,facesParametric,16,59.6972371035,
./basicStim/36M_FE_O.jpg,,0,21,21,79,,,,,,,,,,,None,None,FEA,2.886,None,None,None,None,,,,,,,,,,,,,2015_Nov_04_2015,A,facesParametric,16,59.6972371035,
./basicStim/09F_SA_C.jpg,,0,22,22,39,,,,,,,,,,,SAD,1.666,None,None,None,None,None,None,,,,,,,,,,,,,2015_Nov_04_2015,A,facesParametric,16,59.6972371035,
./basicStim/23M_FE_O.jpg,,0,23,23,51,,,,,,,,,,,None,None,FEA,4.43,None,None,None,None,,,,,,,,,,,,,2015_Nov_04_2015,A,facesParametric,16,59.6972371035,
./basicStim/01F_SA_C.jpg,,0,24,24,4,,,,,,,,,,,SAD,2.77,None,None,None,None,None,None,,,,,,,,,,,,,2015_Nov_04_2015,A,facesParametric,16,59.6972371035,
./basicStim/28M_DI_O.jpg,,0,25,25,64,,,,,,,,,,,None,None,None,None,DIS,3.243,None,None,,,,,,,,,,,,,2015_Nov_04_2015,A,facesParametric,16,59.6972371035,
./basicStim/34M_FE_O.jpg,,0,26,26,72,,,,,,,,,,,None,None,FEA,3.305,None,None,None,None,,,,,,,,,,,,,2015_Nov_04_2015,A,facesParametric,16,59.6972371035,
./basicStim/24M_AN_O.jpg,,0,27,27,56,,,,,,,,,,,None,None,ANG,1.043,None,None,None,None,,,,,,,,,,,,,2015_Nov_04_2015,A,facesParametric,16,59.6972371035,
./basicStim/24M_DI_O.jpg,,0,28,28,57,,,,,,,,,,,SAD,1.512,None,None,None,None,None,None,,,,,,,,,,,,,2015_Nov_04_2015,A,facesParametric,16,59.6972371035,
./basicStim/36M_HA_O.jpg,,0,29,29,80,,,,,,,,,,,HAP,3.513,None,None,None,None,None,None,,,,,,,,,,,,,2015_Nov_04_2015,A,facesParametric,16,59.6972371035,
./basicStim/36M_SA_C.jpg,,0,30,30,81,,,,,,,,,,,SAD,5.452,None,None,None,None,None,None,,,,,,,,,,,,,2015_Nov_04_2015,A,facesParametric,16,59.6972371035,
./basicStim/07F_FE_O.jpg,,0,31,31,30,,,,,,,,,,,None,None,None,None,SUP,7.945,None,None,,,,,,,,,,,,,2015_Nov_04_2015,A,facesParametric,16,59.6972371035,
./basicStim/28M_HA_O.jpg,,0,32,32,66,,,,,,,,,,,HAP,1.453,None,None,None,None,None,None,,,,,,,,,,,,,2015_Nov_04_2015,A,facesParametric,16,59.6972371035,
./basicStim/21M_HA_O.jpg,,0,33,33,45,,,,,,,,,,,HAP,1.214,None,None,None,None,None,None,,,,,,,,,,,,,2015_Nov_04_2015,A,facesParametric,16,59.6972371035,
./basicStim/03F_AN_O.jpg,,0,34,34,14,,,,,,,,,,,None,None,ANG,3.439,None,None,None,None,,,,,,,,,,,,,2015_Nov_04_2015,A,facesParametric,16,59.6972371035,
./basicStim/06F_HA_O.jpg,,0,35,35,24,,,,,,,,,,,HAP,1.45,None,None,None,None,None,None,,,,,,,,,,,,,2015_Nov_04_2015,A,facesParametric,16,59.6972371035,
./basicStim/02F_FE_O.jpg,,0,36,36,9,,,,,,,,,,,None,None,None,None,SUP,4.308,None,None,,,,,,,,,,,,,2015_Nov_04_2015,A,facesParametric,16,59.6972371035,
./basicStim/23M_SP_O.jpg,,0,37,37,54,,,,,,,,,,,None,None,FEA,3.86,None,None,None,None,,,,,,,,,,,,,2015_Nov_04_2015,A,facesParametric,16,59.6972371035,
./basicStim/21M_FE_O.jpg,,0,38,38,44,,,,,,,,,,,None,None,None,None,DIS,3.237,None,None,,,,,,,,,,,,,2015_Nov_04_2015,A,facesParametric,16,59.6972371035,
./basicStim/03F_HA_O.jpg,,0,39,39,17,,,,,,,,,,,HAP,1.163,None,None,None,None,None,None,,,,,,,,,,,,,2015_Nov_04_2015,A,facesParametric,16,59.6972371035,
./basicStim/03F_SA_C.jpg,,0,40,40,18,,,,,,,,,,,SAD,1.23,None,None,None,None,None,None,,,,,,,,,,,,,2015_Nov_04_2015,A,facesParametric,16,59.6972371035,
./basicStim/07F_NE_C.jpg,,0,41,41,34,,,,,,,,,,,None,None,None,None,None,None,NTR,1.883,,,,,,,,,,,,,2015_Nov_04_2015,A,facesParametric,16,59.6972371035,
./basicStim/36M_DI_O.jpg,,0,42,42,78,,,,,,,,,,,None,None,None,None,DIS,4.918,None,None,,,,,,,,,,,,,2015_Nov_04_2015,A,facesParametric,16,59.6972371035,
./basicStim/34M_DI_O.jpg,,0,43,43,71,,,,,,,,,,,None,None,None,None,DIS,3.822,None,None,,,,,,,,,,,,,2015_Nov_04_2015,A,facesParametric,16,59.6972371035,
./basicStim/01F_DI_O.jpg,,0,44,44,1,,,,,,,,,,,None,None,ANG,2.801,None,None,None,None,,,,,,,,,,,,,2015_Nov_04_2015,A,facesParametric,16,59.6972371035,
./basicStim/02F_HA_O.jpg,,0,45,45,10,,,,,,,,,,,HAP,1.647,None,None,None,None,None,None,,,,,,,,,,,,,2015_Nov_04_2015,A,facesParametric,16,59.6972371035,
./basicStim/01F_HA_O.jpg,,0,46,46,3,,,,,,,,,,,HAP,3.796,None,None,None,None,None,None,,,,,,,,,,,,,2015_Nov_04_2015,A,facesParametric,16,59.6972371035,
./basicStim/36M_NE_C.jpg,,0,47,47,83,,,,,,,,,,,None,None,None,None,None,None,NTR,1.512,,,,,,,,,,,,,2015_Nov_04_2015,A,facesParametric,16,59.6972371035,
./basicStim/28M_FE_O.jpg,,0,48,48,65,,,,,,,,,,,None,None,FEA,2.147,None,None,None,None,,,,,,,,,,,,,2015_Nov_04_2015,A,facesParametric,16,59.6972371035,
./basicStim/36M_SP_O.jpg,,0,49,49,82,,,,,,,,,,,None,None,None,None,SUP,3.422,None,None,,,,,,,,,,,,,2015_Nov_04_2015,A,facesParametric,16,59.6972371035,
./basicStim/06F_DI_O.jpg,,0,50,50,22,,,,,,,,,,,None,None,None,None,DIS,3.174,None,None,,,,,,,,,,,,,2015_Nov_04_2015,A,facesParametric,16,59.6972371035,
./basicStim/23M_NE_C.jpg,,0,51,51,55,,,,,,,,,,,None,None,None,None,None,None,NTR,0.955,,,,,,,,,,,,,2015_Nov_04_2015,A,facesParametric,16,59.6972371035,
./basicStim/09F_AN_O.jpg,,0,52,52,35,,,,,,,,,,,None,None,ANG,0.978,None,None,None,None,,,,,,,,,,,,,2015_Nov_04_2015,A,facesParametric,16,59.6972371035,
./basicStim/28M_SP_O.jpg,,0,53,53,68,,,,,,,,,,,None,None,None,None,SUP,3.037,None,None,,,,,,,,,,,,,2015_Nov_04_2015,A,facesParametric,16,59.6972371035,
./basicStim/02F_SP_O.jpg,,0,54,54,12,,,,,,,,,,,None,None,None,None,SUP,1.116,None,None,,,,,,,,,,,,,2015_Nov_04_2015,A,facesParametric,16,59.6972371035,
./basicStim/24M_SA_C.jpg,,0,55,55,60,,,,,,,,,,,SAD,0.759,None,None,None,None,None,None,,,,,,,,,,,,,2015_Nov_04_2015,A,facesParametric,16,59.6972371035,
./basicStim/03F_FE_O.jpg,,0,56,56,16,,,,,,,,,,,None,None,FEA,3.438,None,None,None,None,,,,,,,,,,,,,2015_Nov_04_2015,A,facesParametric,16,59.6972371035,
./basicStim/21M_NE_C.jpg,,0,57,57,48,,,,,,,,,,,None,None,None,None,None,None,NTR,1.105,,,,,,,,,,,,,2015_Nov_04_2015,A,facesParametric,16,59.6972371035,
./basicStim/21M_SA_C.jpg,,0,58,58,46,,,,,,,,,,,SAD,1.632,None,None,None,None,None,None,,,,,,,,,,,,,2015_Nov_04_2015,A,facesParametric,16,59.6972371035,
./basicStim/01F_AN_O.jpg,,0,59,59,0,,,,,,,,,,,None,None,ANG,1.275,None,None,None,None,,,,,,,,,,,,,2015_Nov_04_2015,A,facesParametric,16,59.6972371035,
./basicStim/24M_NE_C.jpg,,0,60,60,62,,,,,,,,,,,None,None,None,None,None,None,NTR,1.206,,,,,,,,,,,,,2015_Nov_04_2015,A,facesParametric,16,59.6972371035,
./basicStim/01F_NE_C.jpg,,0,61,61,6,,,,,,,,,,,None,None,None,None,None,None,NTR,1.429,,,,,,,,,,,,,2015_Nov_04_2015,A,facesParametric,16,59.6972371035,
./basicStim/34M_NE_C.jpg,,0,62,62,76,,,,,,,,,,,None,None,None,None,None,None,NTR,2.178,,,,,,,,,,,,,2015_Nov_04_2015,A,facesParametric,16,59.6972371035,
./basicStim/07F_SP_O.jpg,,0,63,63,33,,,,,,,,,,,None,None,None,None,DIS,3.592,None,None,,,,,,,,,,,,,2015_Nov_04_2015,A,facesParametric,16,59.6972371035,
./basicStim/02F_SA_C.jpg,,0,64,64,11,,,,,,,,,,,SAD,1.061,None,None,None,None,None,None,,,,,,,,,,,,,2015_Nov_04_2015,A,facesParametric,16,59.6972371035,
./basicStim/09F_SP_O.jpg,,0,65,65,40,,,,,,,,,,,None,None,FEA,5.049,None,None,None,None,,,,,,,,,,,,,2015_Nov_04_2015,A,facesParametric,16,59.6972371035,
./basicStim/06F_AN_O.jpg,,0,66,66,21,,,,,,,,,,,None,None,ANG,1.381,None,None,None,None,,,,,,,,,,,,,2015_Nov_04_2015,A,facesParametric,16,59.6972371035,
./basicStim/23M_SA_C.jpg,,0,67,67,53,,,,,,,,,,,SAD,1.061,None,None,None,None,None,None,,,,,,,,,,,,,2015_Nov_04_2015,A,facesParametric,16,59.6972371035,
./basicStim/23M_HA_O.jpg,,0,68,68,52,,,,,,,,,,,HAP,1.114,None,None,None,None,None,None,,,,,,,,,,,,,2015_Nov_04_2015,A,facesParametric,16,59.6972371035,
./basicStim/23M_DI_O.jpg,,0,69,69,50,,,,,,,,,,,SAD,8.154,None,None,None,None,None,None,,,,,,,,,,,,,2015_Nov_04_2015,A,facesParametric,16,59.6972371035,
./basicStim/23M_AN_O.jpg,,0,70,70,49,,,,,,,,,,,None,None,ANG,1.665,None,None,None,None,,,,,,,,,,,,,2015_Nov_04_2015,A,facesParametric,16,59.6972371035,
./basicStim/03F_NE_C.jpg,,0,71,71,20,,,,,,,,,,,None,None,None,None,None,None,NTR,1.456,,,,,,,,,,,,,2015_Nov_04_2015,A,facesParametric,16,59.6972371035,
./basicStim/07F_SA_C.jpg,,0,72,72,32,,,,,,,,,,,SAD,1.245,None,None,None,None,None,None,,,,,,,,,,,,,2015_Nov_04_2015,A,facesParametric,16,59.6972371035,
./basicStim/06F_FE_O.jpg,,0,73,73,23,,,,,,,,,,,None,None,FEA,3.004,None,None,None,None,,,,,,,,,,,,,2015_Nov_04_2015,A,facesParametric,16,59.6972371035,
./basicStim/09F_DI_O.jpg,,0,74,74,36,,,,,,,,,,,None,None,None,None,DIS,1.394,None,None,,,,,,,,,,,,,2015_Nov_04_2015,A,facesParametric,16,59.6972371035,
./basicStim/02F_AN_O.jpg,,0,75,75,7,,,,,,,,,,,None,None,ANG,0.893,None,None,None,None,,,,,,,,,,,,,2015_Nov_04_2015,A,facesParametric,16,59.6972371035,
./basicStim/24M_SP_O.jpg,,0,76,76,61,,,,,,,,,,,None,None,None,None,SUP,1.16,None,None,,,,,,,,,,,,,2015_Nov_04_2015,A,facesParametric,16,59.6972371035,
./basicStim/34M_SA_C.jpg,,0,77,77,74,,,,,,,,,,,SAD,1.245,None,None,None,None,None,None,,,,,,,,,,,,,2015_Nov_04_2015,A,facesParametric,16,59.6972371035,
./basicStim/07F_AN_O.jpg,,0,78,78,28,,,,,,,,,,,None,None,ANG,1.414,None,None,None,None,,,,,,,,,,,,,2015_Nov_04_2015,A,facesParametric,16,59.6972371035,
./basicStim/09F_HA_O.jpg,,0,79,79,38,,,,,,,,,,,HAP,1.03,None,None,None,None,None,None,,,,,,,,,,,,,2015_Nov_04_2015,A,facesParametric,16,59.6972371035,
./basicStim/34M_SP_O.jpg,,0,80,80,75,,,,,,,,,,,None,None,FEA,5.099,None,None,None,None,,,,,,,,,,,,,2015_Nov_04_2015,A,facesParametric,16,59.6972371035,
./basicStim/34M_AN_O.jpg,,0,81,81,70,,,,,,,,,,,None,None,ANG,1.032,None,None,None,None,,,,,,,,,,,,,2015_Nov_04_2015,A,facesParametric,16,59.6972371035,
./basicStim/09F_NE_C.jpg,,0,82,82,41,,,,,,,,,,,None,None,None,None,None,None,NTR,0.947,,,,,,,,,,,,,2015_Nov_04_2015,A,facesParametric,16,59.6972371035,
./basicStim/21M_SP_O.jpg,,0,83,83,47,,,,,,,,,,,None,None,None,None,DIS,9.133,None,None,,,,,,,,,,,,,2015_Nov_04_2015,A,facesParametric,16,59.6972371035,
,,,,,,,,,,,,,,,,,,,,,,,,return,131.866143942,,,,,,,,,,,2015_Nov_04_2015,A,facesParametric,16,59.6972371035,
,,,,,,,,,,,,,,return,1.22311902046,,,,,,,,,,,,,,,,,,,,,2015_Nov_04_2015,A,facesParametric,16,59.6972371035,
,,,,,,,,,,,,,,,,,,,,,,,,return,2.99998784065,,,,,,,,,,,2015_Nov_04_2015,A,facesParametric,16,59.6972371035,
,,,,,,,,,,,,,,,,,,,,,,,,,,return,1.69277095795,,,,,,,,,2015_Nov_04_2015,A,facesParametric,16,59.6972371035,
./stim/MorphM3_09_orig.jpg,0,,,,,0,0,0,0,,,,,,,,,,,,,,,,,,,-1.7578125,-10.341796875,1,0,0,7.65011191368,,,2015_Nov_04_2015,A,facesParametric,16,59.6972371035,
./stim/MorphF6_03_orig.jpg,1,,,,,0,1,1,1,,,,,,,,,,,,,,,,,,,-1.7578125,-10.341796875,0,0,1,1.72425293922,,,2015_Nov_04_2015,A,facesParametric,16,59.6972371035,
./stim/MorphM1_10_orig.jpg,2,,,,,0,2,2,2,,,,,,,,,,,,,,,,,,,-1.7578125,-10.341796875,0,0,1,2.42719507217,,,2015_Nov_04_2015,A,facesParametric,16,59.6972371035,
./stim/MorphM3_07_orig.jpg,3,,,,,0,3,3,3,,,,,,,,,,,,,,,,,,,-1.7578125,-10.341796875,1,0,0,1.95991706848,,,2015_Nov_04_2015,A,facesParametric,16,59.6972371035,
./stim/MorphM8_05_orig.jpg,4,,,,,0,4,4,4,,,,,,,,,,,,,,,,,,,-1.7578125,-10.341796875,1,0,0,3.51749587059,,,2015_Nov_04_2015,A,facesParametric,16,59.6972371035,
./stim/MorphF3_02_orig.jpg,5,,,,,0,5,5,5,,,,,,,,,,,,,,,,,,,-1.7578125,-10.341796875,0,0,1,2.19460892677,,,2015_Nov_04_2015,A,facesParametric,16,59.6972371035,
./stim/MorphM7_06_orig.jpg,6,,,,,0,6,6,6,,,,,,,,,,,,,,,,,,,-1.7578125,-10.341796875,1,0,0,3.61818504333,,,2015_Nov_04_2015,A,facesParametric,16,59.6972371035,
./stim/MorphM10_08_orig.jpg,7,,,,,0,7,7,7,,,,,,,,,,,,,,,,,,,-1.7578125,-10.341796875,1,0,0,2.17804908752,,,2015_Nov_04_2015,A,facesParametric,16,59.6972371035,
./stim/MorphF3_07_orig.jpg,8,,,,,0,8,8,8,,,,,,,,,,,,,,,,,,,-1.7578125,-10.341796875,0,0,1,5.6466960907,,,2015_Nov_04_2015,A,facesParametric,16,59.6972371035,
./stim/MorphM5_10_orig.jpg,9,,,,,0,9,9,9,,,,,,,,,,,,,,,,,,,-1.7578125,-10.341796875,1,0,0,1.47369384766,,,2015_Nov_04_2015,A,facesParametric,16,59.6972371035,
./stim/MorphM8_04_orig.jpg,10,,,,,0,10,10,10,,,,,,,,,,,,,,,,,,,-1.7578125,-10.341796875,1,0,0,7.35458397865,,,2015_Nov_04_2015,A,facesParametric,16,59.6972371035,
./stim/MorphF6_01_orig.jpg,11,,,,,0,11,11,11,,,,,,,,,,,,,,,,,,,-1.7578125,-10.341796875,0,0,1,0.753015995026,,,2015_Nov_04_2015,A,facesParametric,16,59.6972371035,
./stim/MorphM2_09_orig.jpg,12,,,,,0,12,12,12,,,,,,,,,,,,,,,,,,,-1.7578125,-10.341796875,1,0,0,1.10327887535,,,2015_Nov_04_2015,A,facesParametric,16,59.6972371035,
./stim/MorphF8_06_orig.jpg,13,,,,,0,13,13,13,,,,,,,,,,,,,,,,,,,-1.7578125,-10.341796875,0,0,1,3.75309896469,,,2015_Nov_04_2015,A,facesParametric,16,59.6972371035,
./stim/MorphF5_00_orig.jpg,14,,,,,0,14,14,14,,,,,,,,,,,,,,,,,,,-1.7578125,-10.341796875,0,0,1,1.58982801437,,,2015_Nov_04_2015,A,facesParametric,16,59.6972371035,
./stim/MorphM10_06_orig.jpg,15,,,,,0,15,15,15,,,,,,,,,,,,,,,,,,,-1.7578125,-10.341796875,1,0,0,0.801652908325,,,2015_Nov_04_2015,A,facesParametric,16,59.6972371035,
./stim/MorphM4_03_orig.jpg,16,,,,,0,16,16,16,,,,,,,,,,,,,,,,,,,-1.7578125,-10.341796875,0,0,1,3.33414816856,,,2015_Nov_04_2015,A,facesParametric,16,59.6972371035,
./stim/MorphF7_00_orig.jpg,17,,,,,0,17,17,17,,,,,,,,,,,,,,,,,,,-1.7578125,-10.341796875,0,0,1,0.952726125717,,,2015_Nov_04_2015,A,facesParametric,16,59.6972371035,
./stim/MorphF4_10_orig.jpg,18,,,,,0,18,18,18,,,,,,,,,,,,,,,,,,,-1.7578125,-10.341796875,1,0,0,0.887100934982,,,2015_Nov_04_2015,A,facesParametric,16,59.6972371035,
./stim/MorphF3_09_orig.jpg,19,,,,,0,19,19,19,,,,,,,,,,,,,,,,,,,-1.7578125,-10.341796875,0,0,1,1.43994498253,,,2015_Nov_04_2015,A,facesParametric,16,59.6972371035,
./stim/MorphM3_10_orig.jpg,20,,,,,0,20,20,20,,,,,,,,,,,,,,,,,,,-1.7578125,-10.341796875,1,0,0,1.07177400589,,,2015_Nov_04_2015,A,facesParametric,16,59.6972371035,
./stim/MorphF5_09_orig.jpg,21,,,,,0,21,21,21,,,,,,,,,,,,,,,,,,,-1.7578125,-10.341796875,1,0,0,1.38965988159,,,2015_Nov_04_2015,A,facesParametric,16,59.6972371035,
./stim/MorphF4_01_orig.jpg,22,,,,,0,22,22,22,,,,,,,,,,,,,,,,,,,-1.7578125,-10.341796875,0,0,1,1.03588294983,,,2015_Nov_04_2015,A,facesParametric,16,59.6972371035,
./stim/MorphM9_06_orig.jpg,23,,,,,0,23,23,23,,,,,,,,,,,,,,,,,,,-1.7578125,-10.341796875,1,0,0,1.99217200279,,,2015_Nov_04_2015,A,facesParametric,16,59.6972371035,
./stim/MorphF3_00_orig.jpg,24,,,,,0,24,24,24,,,,,,,,,,,,,,,,,,,-1.7578125,-10.341796875,0,0,1,1.02130913734,,,2015_Nov_04_2015,A,facesParametric,16,59.6972371035,
./stim/MorphF10_06_orig.jpg,25,,,,,0,25,25,25,,,,,,,,,,,,,,,,,,,-1.7578125,-10.341796875,1,0,0,3.16427707672,,,2015_Nov_04_2015,A,facesParametric,16,59.6972371035,
./stim/MorphM10_04_orig.jpg,26,,,,,0,26,26,26,,,,,,,,,,,,,,,,,,,-1.7578125,-10.341796875,1,0,0,3.18287396431,,,2015_Nov_04_2015,A,facesParametric,16,59.6972371035,
./stim/MorphM4_08_orig.jpg,27,,,,,0,27,27,27,,,,,,,,,,,,,,,,,,,-1.7578125,-10.341796875,1,0,0,2.04113292694,,,2015_Nov_04_2015,A,facesParametric,16,59.6972371035,
./stim/MorphM2_06_orig.jpg,28,,,,,0,28,28,28,,,,,,,,,,,,,,,,,,,-1.7578125,-10.341796875,1,0,0,1.85903382301,,,2015_Nov_04_2015,A,facesParametric,16,59.6972371035,
./stim/MorphF8_00_orig.jpg,29,,,,,0,29,29,29,,,,,,,,,,,,,,,,,,,-1.7578125,-10.341796875,0,0,1,2.71423411369,,,2015_Nov_04_2015,A,facesParametric,16,59.6972371035,
./stim/MorphF3_05_orig.jpg,30,,,,,0,30,30,30,,,,,,,,,,,,,,,,,,,-1.7578125,-10.341796875,0,0,1,1.32099699974,,,2015_Nov_04_2015,A,facesParametric,16,59.6972371035,
./stim/MorphF1_01_orig.jpg,31,,,,,0,31,31,31,,,,,,,,,,,,,,,,,,,-1.7578125,-10.341796875,0,0,1,1.42269802094,,,2015_Nov_04_2015,A,facesParametric,16,59.6972371035,
./stim/MorphM3_00_orig.jpg,32,,,,,0,32,32,32,,,,,,,,,,,,,,,,,,,-1.7578125,-10.341796875,0,0,1,2.00982499123,,,2015_Nov_04_2015,A,facesParametric,16,59.6972371035,
./stim/MorphM6_04_orig.jpg,33,,,,,0,33,33,33,,,,,,,,,,,,,,,,,,,-1.7578125,-10.341796875,0,0,1,3.04816102982,,,2015_Nov_04_2015,A,facesParametric,16,59.6972371035,
./stim/MorphM8_08_orig.jpg,34,,,,,0,34,34,34,,,,,,,,,,,,,,,,,,,-1.7578125,-10.341796875,1,0,0,1.15500116348,,,2015_Nov_04_2015,A,facesParametric,16,59.6972371035,
./stim/MorphM10_10_orig.jpg,35,,,,,0,35,35,35,,,,,,,,,,,,,,,,,,,-1.7578125,-10.341796875,1,0,0,1.17197585106,,,2015_Nov_04_2015,A,facesParametric,16,59.6972371035,
./stim/MorphF4_06_orig.jpg,36,,,,,0,36,36,36,,,,,,,,,,,,,,,,,,,-1.7578125,-10.341796875,0,0,1,1.77491807938,,,2015_Nov_04_2015,A,facesParametric,16,59.6972371035,
./stim/MorphF3_08_orig.jpg,37,,,,,0,37,37,37,,,,,,,,,,,,,,,,,,,-1.7578125,-10.341796875,0,0,1,1.65699696541,,,2015_Nov_04_2015,A,facesParametric,16,59.6972371035,
./stim/MorphM3_01_orig.jpg,38,,,,,0,38,38,38,,,,,,,,,,,,,,,,,,,-1.7578125,-10.341796875,0,0,1,3.0128839016,,,2015_Nov_04_2015,A,facesParametric,16,59.6972371035,
./stim/MorphM7_09_orig.jpg,39,,,,,0,39,39,39,,,,,,,,,,,,,,,,,,,-1.7578125,-10.341796875,1,0,0,1.69145679474,,,2015_Nov_04_2015,A,facesParametric,16,59.6972371035,
./stim/MorphF4_05_orig.jpg,40,,,,,0,40,40,40,,,,,,,,,,,,,,,,,,,-1.7578125,-10.341796875,0,0,1,2.01002812386,,,2015_Nov_04_2015,A,facesParametric,16,59.6972371035,
./stim/MorphM1_02_orig.jpg,41,,,,,0,41,41,41,,,,,,,,,,,,,,,,,,,-1.7578125,-10.341796875,0,0,1,1.37077784538,,,2015_Nov_04_2015,A,facesParametric,16,59.6972371035,
./stim/MorphM8_03_orig.jpg,42,,,,,0,42,42,42,,,,,,,,,,,,,,,,,,,-1.7578125,-10.341796875,1,0,0,6.58573794365,,,2015_Nov_04_2015,A,facesParametric,16,59.6972371035,
./stim/MorphF1_06_orig.jpg,43,,,,,0,43,43,43,,,,,,,,,,,,,,,,,,,-1.7578125,-10.341796875,0,0,1,1.05553984642,,,2015_Nov_04_2015,A,facesParametric,16,59.6972371035,
./stim/MorphM4_04_orig.jpg,44,,,,,0,44,44,44,,,,,,,,,,,,,,,,,,,-1.7578125,-10.341796875,0,0,1,4.33850908279,,,2015_Nov_04_2015,A,facesParametric,16,59.6972371035,
./stim/MorphM3_08_orig.jpg,45,,,,,0,45,45,45,,,,,,,,,,,,,,,,,,,-1.7578125,-10.341796875,1,0,0,1.89240312576,,,2015_Nov_04_2015,A,facesParametric,16,59.6972371035,
./stim/MorphM1_07_orig.jpg,46,,,,,0,46,46,46,,,,,,,,,,,,,,,,,,,-1.7578125,-10.341796875,0,0,1,2.14254283905,,,2015_Nov_04_2015,A,facesParametric,16,59.6972371035,
./stim/MorphM8_00_orig.jpg,47,,,,,0,47,47,47,,,,,,,,,,,,,,,,,,,-1.7578125,-10.341796875,0,0,1,2.12772488594,,,2015_Nov_04_2015,A,facesParametric,16,59.6972371035,
./stim/MorphM6_10_orig.jpg,48,,,,,0,48,48,48,,,,,,,,,,,,,,,,,,,-1.7578125,-10.341796875,1,0,0,1.55712795258,,,2015_Nov_04_2015,A,facesParametric,16,59.6972371035,
./stim/MorphF10_04_orig.jpg,49,,,,,0,49,49,49,,,,,,,,,,,,,,,,,,,-1.7578125,-10.341796875,0,0,1,4.473539114,,,2015_Nov_04_2015,A,facesParametric,16,59.6972371035,
./stim/MorphF8_03_orig.jpg,50,,,,,0,50,50,50,,,,,,,,,,,,,,,,,,,-1.7578125,-10.341796875,0,0,1,0.868248939514,,,2015_Nov_04_2015,A,facesParametric,16,59.6972371035,
./stim/MorphM8_02_orig.jpg,51,,,,,0,51,51,51,,,,,,,,,,,,,,,,,,,-1.7578125,-10.341796875,1,0,0,3.28276991844,,,2015_Nov_04_2015,A,facesParametric,16,59.6972371035,
./stim/MorphM1_00_orig.jpg,52,,,,,0,52,52,52,,,,,,,,,,,,,,,,,,,-1.7578125,-10.341796875,0,0,1,1.47374200821,,,2015_Nov_04_2015,A,facesParametric,16,59.6972371035,
./stim/MorphF6_04_orig.jpg,53,,,,,0,53,53,53,,,,,,,,,,,,,,,,,,,-1.7578125,-10.341796875,0,0,1,2.14466810226,,,2015_Nov_04_2015,A,facesParametric,16,59.6972371035,
./stim/MorphF10_03_orig.jpg,54,,,,,0,54,54,54,,,,,,,,,,,,,,,,,,,-1.7578125,-10.341796875,0,0,1,1.23695015907,,,2015_Nov_04_2015,A,facesParametric,16,59.6972371035,
./stim/MorphM8_01_orig.jpg,55,,,,,0,55,55,55,,,,,,,,,,,,,,,,,,,-1.7578125,-10.341796875,1,0,0,1.72455215454,,,2015_Nov_04_2015,A,facesParametric,16,59.6972371035,
./stim/MorphF3_01_orig.jpg,56,,,,,0,56,56,56,,,,,,,,,,,,,,,,,,,-1.7578125,-10.341796875,0,0,1,2.66281700134,,,2015_Nov_04_2015,A,facesParametric,16,59.6972371035,
./stim/MorphF2_07_orig.jpg,57,,,,,0,57,57,57,,,,,,,,,,,,,,,,,,,-1.7578125,-10.341796875,1,0,0,1.87613081932,,,2015_Nov_04_2015,A,facesParametric,16,59.6972371035,
./stim/MorphM8_09_orig.jpg,58,,,,,0,58,58,58,,,,,,,,,,,,,,,,,,,-1.7578125,-10.341796875,1,0,0,1.08726191521,,,2015_Nov_04_2015,A,facesParametric,16,59.6972371035,
./stim/MorphF9_08_orig.jpg,59,,,,,0,59,59,59,,,,,,,,,,,,,,,,,,,-1.7578125,-10.341796875,1,0,0,2.05999398232,,,2015_Nov_04_2015,A,facesParametric,16,59.6972371035,
./stim/MorphM2_04_orig.jpg,60,,,,,0,60,60,60,,,,,,,,,,,,,,,,,,,-1.7578125,-10.341796875,0,0,1,0.953974962234,,,2015_Nov_04_2015,A,facesParametric,16,59.6972371035,
./stim/MorphF9_06_orig.jpg,61,,,,,0,61,61,61,,,,,,,,,,,,,,,,,,,-1.7578125,-10.341796875,0,0,1,4.13856101036,,,2015_Nov_04_2015,A,facesParametric,16,59.6972371035,
./stim/MorphF8_04_orig.jpg,62,,,,,0,62,62,62,,,,,,,,,,,,,,,,,,,-1.7578125,-10.341796875,0,0,1,1.08807301521,,,2015_Nov_04_2015,A,facesParametric,16,59.6972371035,
./stim/MorphF3_10_orig.jpg,63,,,,,0,63,63,63,,,,,,,,,,,,,,,,,,,-1.7578125,-10.341796875,0,0,1,2.04368901253,,,2015_Nov_04_2015,A,facesParametric,16,59.6972371035,
./stim/MorphF7_03_orig.jpg,64,,,,,0,64,64,64,,,,,,,,,,,,,,,,,,,-1.7578125,-10.341796875,0,0,1,10.4887681007,,,2015_Nov_04_2015,A,facesParametric,16,59.6972371035,
./stim/MorphF3_06_orig.jpg,65,,,,,0,65,65,65,,,,,,,,,,,,,,,,,,,-1.7578125,-10.341796875,0,0,1,5.42870593071,,,2015_Nov_04_2015,A,facesParametric,16,59.6972371035,
./stim/MorphM5_06_orig.jpg,66,,,,,0,66,66,66,,,,,,,,,,,,,,,,,,,-1.7578125,-10.341796875,0,0,1,5.1441988945,,,2015_Nov_04_2015,A,facesParametric,16,59.6972371035,
./stim/MorphF10_02_orig.jpg,67,,,,,0,67,67,67,,,,,,,,,,,,,,,,,,,-1.7578125,-10.341796875,0,0,1,2.93194293976,,,2015_Nov_04_2015,A,facesParametric,16,59.6972371035,
./stim/MorphF2_01_orig.jpg,68,,,,,0,68,68,68,,,,,,,,,,,,,,,,,,,-1.7578125,-10.341796875,0,0,1,1.4389359951,,,2015_Nov_04_2015,A,facesParametric,16,59.6972371035,
./stim/MorphM6_03_orig.jpg,69,,,,,0,69,69,69,,,,,,,,,,,,,,,,,,,-1.7578125,-10.341796875,0,0,1,1.3230278492,,,2015_Nov_04_2015,A,facesParametric,16,59.6972371035,
./stim/MorphM2_00_orig.jpg,70,,,,,0,70,70,70,,,,,,,,,,,,,,,,,,,-1.7578125,-10.341796875,0,0,1,0.8872590065,,,2015_Nov_04_2015,A,facesParametric,16,59.6972371035,
./stim/MorphM9_10_orig.jpg,71,,,,,0,71,71,71,,,,,,,,,,,,,,,,,,,-1.7578125,-10.341796875,1,0,0,3.93756890297,,,2015_Nov_04_2015,A,facesParametric,16,59.6972371035,
./stim/MorphM3_03_orig.jpg,72,,,,,0,72,72,72,,,,,,,,,,,,,,,,,,,-1.7578125,-10.341796875,0,0,1,1.87437009811,,,2015_Nov_04_2015,A,facesParametric,16,59.6972371035,
./stim/MorphF10_05_orig.jpg,73,,,,,0,73,73,73,,,,,,,,,,,,,,,,,,,-1.7578125,-10.341796875,0,0,1,4.13795208931,,,2015_Nov_04_2015,A,facesParametric,16,59.6972371035,
./stim/MorphF2_00_orig.jpg,74,,,,,0,74,74,74,,,,,,,,,,,,,,,,,,,-1.7578125,-10.341796875,0,0,1,1.4700050354,,,2015_Nov_04_2015,A,facesParametric,16,59.6972371035,
./stim/MorphF4_08_orig.jpg,75,,,,,0,75,75,75,,,,,,,,,,,,,,,,,,,-1.7578125,-10.341796875,1,0,0,2.31157898903,,,2015_Nov_04_2015,A,facesParametric,16,59.6972371035,
./stim/MorphM10_03_orig.jpg,76,,,,,0,76,76,76,,,,,,,,,,,,,,,,,,,-1.7578125,-10.341796875,0,0,1,2.59559512138,,,2015_Nov_04_2015,A,facesParametric,16,59.6972371035,
./stim/MorphM2_02_orig.jpg,77,,,,,0,77,77,77,,,,,,,,,,,,,,,,,,,-1.7578125,-10.341796875,0,0,1,0.987521886826,,,2015_Nov_04_2015,A,facesParametric,16,59.6972371035,
./stim/MorphM1_08_orig.jpg,78,,,,,0,78,78,78,,,,,,,,,,,,,,,,,,,-1.7578125,-10.341796875,0,0,1,2.06097602844,,,2015_Nov_04_2015,A,facesParametric,16,59.6972371035,
./stim/MorphF6_05_orig.jpg,79,,,,,0,79,79,79,,,,,,,,,,,,,,,,,,,-1.7578125,-10.341796875,0,0,1,1.22160291672,,,2015_Nov_04_2015,A,facesParametric,16,59.6972371035,
./stim/MorphF9_03_orig.jpg,80,,,,,0,80,80,80,,,,,,,,,,,,,,,,,,,-1.7578125,-10.341796875,0,0,1,1.79101419449,,,2015_Nov_04_2015,A,facesParametric,16,59.6972371035,
./stim/MorphM7_01_orig.jpg,81,,,,,0,81,81,81,,,,,,,,,,,,,,,,,,,-1.7578125,-10.341796875,0,0,1,2.36164903641,,,2015_Nov_04_2015,A,facesParametric,16,59.6972371035,
./stim/MorphM2_10_orig.jpg,82,,,,,0,82,82,82,,,,,,,,,,,,,,,,,,,-1.7578125,-10.341796875,1,0,0,1.74028515816,,,2015_Nov_04_2015,A,facesParametric,16,59.6972371035,
./stim/MorphF1_03_orig.jpg,83,,,,,0,83,83,83,,,,,,,,,,,,,,,,,,,-1.7578125,-10.341796875,0,0,1,2.21149301529,,,2015_Nov_04_2015,A,facesParametric,16,59.6972371035,
./stim/MorphM9_07_orig.jpg,84,,,,,0,84,84,84,,,,,,,,,,,,,,,,,,,-1.7578125,-10.341796875,0,0,1,2.98108410835,,,2015_Nov_04_2015,A,facesParametric,16,59.6972371035,
./stim/MorphM7_00_orig.jpg,85,,,,,0,85,85,85,,,,,,,,,,,,,,,,,,,-1.7578125,-10.341796875,0,0,1,2.64683699608,,,2015_Nov_04_2015,A,facesParametric,16,59.6972371035,
./stim/MorphM4_07_orig.jpg,86,,,,,0,86,86,86,,,,,,,,,,,,,,,,,,,-1.7578125,-10.341796875,1,0,0,5.78087210655,,,2015_Nov_04_2015,A,facesParametric,16,59.6972371035,
./stim/MorphM8_10_orig.jpg,87,,,,,0,87,87,87,,,,,,,,,,,,,,,,,,,-1.7578125,-10.341796875,1,0,0,0.901639938354,,,2015_Nov_04_2015,A,facesParametric,16,59.6972371035,
./stim/MorphM9_01_orig.jpg,88,,,,,0,88,88,88,,,,,,,,,,,,,,,,,,,-1.7578125,-10.341796875,0,0,1,1.28915786743,,,2015_Nov_04_2015,A,facesParametric,16,59.6972371035,
./stim/MorphM3_06_orig.jpg,89,,,,,0,89,89,89,,,,,,,,,,,,,,,,,,,-1.7578125,-10.341796875,1,0,0,5.71198391914,,,2015_Nov_04_2015,A,facesParametric,16,59.6972371035,
./stim/MorphF10_10_orig.jpg,90,,,,,0,90,90,90,,,,,,,,,,,,,,,,,,,-1.7578125,-10.341796875,1,0,0,1.48996400833,,,2015_Nov_04_2015,A,facesParametric,16,59.6972371035,
./stim/MorphF2_10_orig.jpg,91,,,,,0,91,91,91,,,,,,,,,,,,,,,,,,,-1.7578125,-10.341796875,1,0,0,1.10489916801,,,2015_Nov_04_2015,A,facesParametric,16,59.6972371035,
./stim/MorphM9_00_orig.jpg,92,,,,,0,92,92,92,,,,,,,,,,,,,,,,,,,-1.7578125,-10.341796875,0,0,1,1.05480909348,,,2015_Nov_04_2015,A,facesParametric,16,59.6972371035,
./stim/MorphF7_05_orig.jpg,93,,,,,0,93,93,93,,,,,,,,,,,,,,,,,,,-1.7578125,-10.341796875,0,0,1,3.95404911041,,,2015_Nov_04_2015,A,facesParametric,16,59.6972371035,
./stim/MorphF8_07_orig.jpg,94,,,,,0,94,94,94,,,,,,,,,,,,,,,,,,,-1.7578125,-10.341796875,1,0,0,1.37141180038,,,2015_Nov_04_2015,A,facesParametric,16,59.6972371035,
./stim/MorphM2_07_orig.jpg,95,,,,,0,95,95,95,,,,,,,,,,,,,,,,,,,-1.7578125,-10.341796875,1,0,0,1.35624504089,,,2015_Nov_04_2015,A,facesParametric,16,59.6972371035,
./stim/MorphF7_08_orig.jpg,96,,,,,0,96,96,96,,,,,,,,,,,,,,,,,,,-1.7578125,-10.341796875,1,0,0,1.89097213745,,,2015_Nov_04_2015,A,facesParametric,16,59.6972371035,
./stim/MorphF10_09_orig.jpg,97,,,,,0,97,97,97,,,,,,,,,,,,,,,,,,,-1.7578125,-10.341796875,1,0,0,1.96031594276,,,2015_Nov_04_2015,A,facesParametric,16,59.6972371035,
./stim/MorphF7_06_orig.jpg,98,,,,,0,98,98,98,,,,,,,,,,,,,,,,,,,-1.7578125,-10.341796875,1,0,0,2.14337706566,,,2015_Nov_04_2015,A,facesParametric,16,59.6972371035,
./stim/MorphM4_09_orig.jpg,99,,,,,0,99,99,99,,,,,,,,,,,,,,,,,,,-1.7578125,-10.341796875,1,0,0,0.936465024948,,,2015_Nov_04_2015,A,facesParametric,16,59.6972371035,
./stim/MorphF5_02_orig.jpg,100,,,,,0,100,100,100,,,,,,,,,,,,,,,,,,,-1.7578125,-10.341796875,0,0,1,1.03761792183,,,2015_Nov_04_2015,A,facesParametric,16,59.6972371035,
./stim/MorphM7_03_orig.jpg,101,,,,,0,101,101,101,,,,,,,,,,,,,,,,,,,-1.7578125,-10.341796875,0,0,1,3.73728013039,,,2015_Nov_04_2015,A,facesParametric,16,59.6972371035,
./stim/MorphF4_04_orig.jpg,102,,,,,0,102,102,102,,,,,,,,,,,,,,,,,,,-1.7578125,-10.341796875,0,0,1,0.918636083603,,,2015_Nov_04_2015,A,facesParametric,16,59.6972371035,
./stim/MorphF8_10_orig.jpg,103,,,,,0,103,103,103,,,,,,,,,,,,,,,,,,,-1.7578125,-10.341796875,1,0,0,3.54961395264,,,2015_Nov_04_2015,A,facesParametric,16,59.6972371035,
./stim/MorphF10_08_orig.jpg,104,,,,,0,104,104,104,,,,,,,,,,,,,,,,,,,-1.7578125,-10.341796875,1,0,0,3.7534058094,,,2015_Nov_04_2015,A,facesParametric,16,59.6972371035,
./stim/MorphM1_04_orig.jpg,105,,,,,0,105,105,105,,,,,,,,,,,,,,,,,,,-1.7578125,-10.341796875,0,0,1,1.55560588837,,,2015_Nov_04_2015,A,facesParametric,16,59.6972371035,
./stim/MorphM7_07_orig.jpg,106,,,,,0,106,106,106,,,,,,,,,,,,,,,,,,,-1.7578125,-10.341796875,1,0,0,3.23292803764,,,2015_Nov_04_2015,A,facesParametric,16,59.6972371035,
./stim/MorphM5_08_orig.jpg,107,,,,,0,107,107,107,,,,,,,,,,,,,,,,,,,-1.7578125,-10.341796875,0,0,1,8.66360592842,,,2015_Nov_04_2015,A,facesParametric,16,59.6972371035,
./stim/MorphF9_01_orig.jpg,108,,,,,0,108,108,108,,,,,,,,,,,,,,,,,,,-1.7578125,-10.341796875,0,0,1,2.09477901459,,,2015_Nov_04_2015,A,facesParametric,16,59.6972371035,
./stim/MorphM1_05_orig.jpg,109,,,,,0,109,109,109,,,,,,,,,,,,,,,,,,,-1.7578125,-10.341796875,0,0,1,1.77408599854,,,2015_Nov_04_2015,A,facesParametric,16,59.6972371035,
./stim/MorphF7_10_orig.jpg,110,,,,,0,110,110,110,,,,,,,,,,,,,,,,,,,-1.7578125,-10.341796875,1,0,0,0.95424413681,,,2015_Nov_04_2015,A,facesParametric,16,59.6972371035,
./stim/MorphF5_05_orig.jpg,111,,,,,0,111,111,111,,,,,,,,,,,,,,,,,,,-1.7578125,-10.341796875,0,0,1,1.05451989174,,,2015_Nov_04_2015,A,facesParametric,16,59.6972371035,
./stim/MorphF3_03_orig.jpg,112,,,,,0,112,112,112,,,,,,,,,,,,,,,,,,,-1.7578125,-10.341796875,0,0,1,5.05826091766,,,2015_Nov_04_2015,A,facesParametric,16,59.6972371035,
./stim/MorphF1_08_orig.jpg,113,,,,,0,113,113,113,,,,,,,,,,,,,,,,,,,-1.7578125,-10.341796875,0,0,1,7.17153215408,,,2015_Nov_04_2015,A,facesParametric,16,59.6972371035,
./stim/MorphM7_05_orig.jpg,114,,,,,0,114,114,114,,,,,,,,,,,,,,,,,,,-1.7578125,-10.341796875,1,0,0,1.85886597633,,,2015_Nov_04_2015,A,facesParametric,16,59.6972371035,
./stim/MorphF1_04_orig.jpg,115,,,,,0,115,115,115,,,,,,,,,,,,,,,,,,,-1.7578125,-10.341796875,0,0,1,0.871084928513,,,2015_Nov_04_2015,A,facesParametric,16,59.6972371035,
./stim/MorphM10_02_orig.jpg,116,,,,,0,116,116,116,,,,,,,,,,,,,,,,,,,-1.7578125,-10.341796875,0,0,1,0.833866834641,,,2015_Nov_04_2015,A,facesParametric,16,59.6972371035,
./stim/MorphF9_07_orig.jpg,117,,,,,0,117,117,117,,,,,,,,,,,,,,,,,,,-1.7578125,-10.341796875,1,0,0,2.29500412941,,,2015_Nov_04_2015,A,facesParametric,16,59.6972371035,
./stim/MorphM5_03_orig.jpg,118,,,,,0,118,118,118,,,,,,,,,,,,,,,,,,,-1.7578125,-10.341796875,0,0,1,3.06550812721,,,2015_Nov_04_2015,A,facesParametric,16,59.6972371035,
./stim/MorphM10_07_orig.jpg,119,,,,,0,119,119,119,,,,,,,,,,,,,,,,,,,-1.7578125,-10.341796875,1,0,0,3.26594185829,,,2015_Nov_04_2015,A,facesParametric,16,59.6972371035,
./stim/MorphM5_09_orig.jpg,120,,,,,0,120,120,120,,,,,,,,,,,,,,,,,,,-1.7578125,-10.341796875,0,0,1,7.00183105469,,,2015_Nov_04_2015,A,facesParametric,16,59.6972371035,
./stim/MorphF4_03_orig.jpg,121,,,,,0,121,121,121,,,,,,,,,,,,,,,,,,,-1.7578125,-10.341796875,0,0,1,6.82016420364,,,2015_Nov_04_2015,A,facesParametric,16,59.6972371035,
./stim/MorphM6_01_orig.jpg,122,,,,,0,122,122,122,,,,,,,,,,,,,,,,,,,-1.7578125,-10.341796875,0,0,1,1.05480718613,,,2015_Nov_04_2015,A,facesParametric,16,59.6972371035,
./stim/MorphF10_07_orig.jpg,123,,,,,0,123,123,123,,,,,,,,,,,,,,,,,,,-1.7578125,-10.341796875,1,0,0,1.12181591988,,,2015_Nov_04_2015,A,facesParametric,16,59.6972371035,
./stim/MorphF5_01_orig.jpg,124,,,,,0,124,124,124,,,,,,,,,,,,,,,,,,,-1.7578125,-10.341796875,0,0,1,0.685474872589,,,2015_Nov_04_2015,A,facesParametric,16,59.6972371035,
./stim/MorphM4_00_orig.jpg,125,,,,,0,125,125,125,,,,,,,,,,,,,,,,,,,-1.7578125,-10.341796875,0,0,1,1.8766040802,,,2015_Nov_04_2015,A,facesParametric,16,59.6972371035,
./stim/MorphF4_02_orig.jpg,126,,,,,0,126,126,126,,,,,,,,,,,,,,,,,,,-1.7578125,-10.341796875,0,0,1,0.769742965698,,,2015_Nov_04_2015,A,facesParametric,16,59.6972371035,
./stim/MorphF9_02_orig.jpg,127,,,,,0,127,127,127,,,,,,,,,,,,,,,,,,,-1.7578125,-10.341796875,0,0,1,0.870167016983,,,2015_Nov_04_2015,A,facesParametric,16,59.6972371035,
./stim/MorphF8_05_orig.jpg,128,,,,,0,128,128,128,,,,,,,,,,,,,,,,,,,-1.7578125,-10.341796875,1,0,0,3.01434588432,,,2015_Nov_04_2015,A,facesParametric,16,59.6972371035,
./stim/MorphF2_03_orig.jpg,129,,,,,0,129,129,129,,,,,,,,,,,,,,,,,,,-1.7578125,-10.341796875,0,0,1,0.803512096405,,,2015_Nov_04_2015,A,facesParametric,16,59.6972371035,
./stim/MorphF1_02_orig.jpg,130,,,,,0,130,130,130,,,,,,,,,,,,,,,,,,,-1.7578125,-10.341796875,0,0,1,1.99281597137,,,2015_Nov_04_2015,A,facesParametric,16,59.6972371035,
./stim/MorphM10_01_orig.jpg,131,,,,,0,131,131,131,,,,,,,,,,,,,,,,,,,-1.7578125,-10.341796875,0,0,1,0.86954498291,,,2015_Nov_04_2015,A,facesParametric,16,59.6972371035,
./stim/MorphM5_07_orig.jpg,132,,,,,0,132,132,132,,,,,,,,,,,,,,,,,,,-1.7578125,-10.341796875,0,0,1,18.9528090954,,,2015_Nov_04_2015,A,facesParametric,16,59.6972371035,
./stim/MorphM6_07_orig.jpg,133,,,,,0,133,133,133,,,,,,,,,,,,,,,,,,,-1.7578125,-10.341796875,1,0,0,1.37308192253,,,2015_Nov_04_2015,A,facesParametric,16,59.6972371035,
./stim/MorphM4_05_orig.jpg,134,,,,,0,134,134,134,,,,,,,,,,,,,,,,,,,-1.7578125,-10.341796875,0,0,1,3.04953098297,,,2015_Nov_04_2015,A,facesParametric,16,59.6972371035,
./stim/MorphM5_01_orig.jpg,135,,,,,0,135,135,135,,,,,,,,,,,,,,,,,,,-1.7578125,-10.341796875,0,0,1,1.80911493301,,,2015_Nov_04_2015,A,facesParametric,16,59.6972371035,
./stim/MorphM9_08_orig.jpg,136,,,,,0,136,136,136,,,,,,,,,,,,,,,,,,,-1.7578125,-10.341796875,1,0,0,2.69664692879,,,2015_Nov_04_2015,A,facesParametric,16,59.6972371035,
./stim/MorphM3_05_orig.jpg,137,,,,,0,137,137,137,,,,,,,,,,,,,,,,,,,-1.7578125,-10.341796875,1,0,0,1.27197408676,,,2015_Nov_04_2015,A,facesParametric,16,59.6972371035,
./stim/MorphF6_09_orig.jpg,138,,,,,0,138,138,138,,,,,,,,,,,,,,,,,,,-1.7578125,-10.341796875,1,0,0,0.752696990967,,,2015_Nov_04_2015,A,facesParametric,16,59.6972371035,
./stim/MorphF9_04_orig.jpg,139,,,,,0,139,139,139,,,,,,,,,,,,,,,,,,,-1.7578125,-10.341796875,1,0,0,4.50590801239,,,2015_Nov_04_2015,A,facesParametric,16,59.6972371035,
./stim/MorphF6_06_orig.jpg,140,,,,,0,140,140,140,,,,,,,,,,,,,,,,,,,-1.7578125,-10.341796875,1,0,0,0.735904932022,,,2015_Nov_04_2015,A,facesParametric,16,59.6972371035,
./stim/MorphF7_02_orig.jpg,141,,,,,0,141,141,141,,,,,,,,,,,,,,,,,,,-1.7578125,-10.341796875,1,0,0,0.751722097397,,,2015_Nov_04_2015,A,facesParametric,16,59.6972371035,
./stim/MorphF2_02_orig.jpg,142,,,,,0,142,142,142,,,,,,,,,,,,,,,,,,,-1.7578125,-10.341796875,0,0,1,1.80793905258,,,2015_Nov_04_2015,A,facesParametric,16,59.6972371035,
./stim/MorphF8_09_orig.jpg,143,,,,,0,143,143,143,,,,,,,,,,,,,,,,,,,-1.7578125,-10.341796875,1,0,0,0.702420949936,,,2015_Nov_04_2015,A,facesParametric,16,59.6972371035,
./stim/MorphF3_04_orig.jpg,144,,,,,0,144,144,144,,,,,,,,,,,,,,,,,,,-1.7578125,-10.341796875,0,0,1,0.719278097153,,,2015_Nov_04_2015,A,facesParametric,16,59.6972371035,
./stim/MorphF9_05_orig.jpg,145,,,,,0,145,145,145,,,,,,,,,,,,,,,,,,,-1.7578125,-10.341796875,0,0,1,1.17190098763,,,2015_Nov_04_2015,A,facesParametric,16,59.6972371035,
./stim/MorphF1_05_orig.jpg,146,,,,,0,146,146,146,,,,,,,,,,,,,,,,,,,-1.7578125,-10.341796875,0,0,1,1.02036786079,,,2015_Nov_04_2015,A,facesParametric,16,59.6972371035,
./stim/MorphM4_06_orig.jpg,147,,,,,0,147,147,147,,,,,,,,,,,,,,,,,,,-1.7578125,-10.341796875,1,0,0,3.23360705376,,,2015_Nov_04_2015,A,facesParametric,16,59.6972371035,
./stim/MorphM6_02_orig.jpg,148,,,,,0,148,148,148,,,,,,,,,,,,,,,,,,,-1.7578125,-10.341796875,0,0,1,1.0022149086,,,2015_Nov_04_2015,A,facesParametric,16,59.6972371035,
./stim/MorphF2_04_orig.jpg,149,,,,,0,149,149,149,,,,,,,,,,,,,,,,,,,-1.7578125,-10.341796875,0,0,1,2.54569792747,,,2015_Nov_04_2015,A,facesParametric,16,59.6972371035,
./stim/MorphM6_00_orig.jpg,150,,,,,0,150,150,150,,,,,,,,,,,,,,,,,,,-1.7578125,-10.341796875,0,0,1,0.888102054596,,,2015_Nov_04_2015,A,facesParametric,16,59.6972371035,
./stim/MorphF6_08_orig.jpg,151,,,,,0,151,151,151,,,,,,,,,,,,,,,,,,,-1.7578125,-10.341796875,1,0,0,0.819221019745,,,2015_Nov_04_2015,A,facesParametric,16,59.6972371035,
./stim/MorphF7_04_orig.jpg,152,,,,,0,152,152,152,,,,,,,,,,,,,,,,,,,-1.7578125,-10.341796875,1,0,0,0.736543893814,,,2015_Nov_04_2015,A,facesParametric,16,59.6972371035,
./stim/MorphF1_00_orig.jpg,153,,,,,0,153,153,153,,,,,,,,,,,,,,,,,,,-1.7578125,-10.341796875,0,0,1,1.64077687263,,,2015_Nov_04_2015,A,facesParametric,16,59.6972371035,
./stim/MorphF5_10_orig.jpg,154,,,,,0,154,154,154,,,,,,,,,,,,,,,,,,,-1.7578125,-10.341796875,1,0,0,1.69124817848,,,2015_Nov_04_2015,A,facesParametric,16,59.6972371035,
./stim/MorphM7_08_orig.jpg,155,,,,,0,155,155,155,,,,,,,,,,,,,,,,,,,-1.7578125,-10.341796875,1,0,0,0.786237955093,,,2015_Nov_04_2015,A,facesParametric,16,59.6972371035,
./stim/MorphM6_09_orig.jpg,156,,,,,0,156,156,156,,,,,,,,,,,,,,,,,,,-1.7578125,-10.341796875,1,0,0,0.819758892059,,,2015_Nov_04_2015,A,facesParametric,16,59.6972371035,
./stim/MorphM4_10_orig.jpg,157,,,,,0,157,157,157,,,,,,,,,,,,,,,,,,,-1.7578125,-10.341796875,1,0,0,0.867749929428,,,2015_Nov_04_2015,A,facesParametric,16,59.6972371035,
./stim/MorphF4_09_orig.jpg,158,,,,,0,158,158,158,,,,,,,,,,,,,,,,,,,-1.7578125,-10.341796875,1,0,0,0.852339982986,,,2015_Nov_04_2015,A,facesParametric,16,59.6972371035,
./stim/MorphM1_09_orig.jpg,159,,,,,0,159,159,159,,,,,,,,,,,,,,,,,,,-1.7578125,-10.341796875,0,0,1,5.14393210411,,,2015_Nov_04_2015,A,facesParametric,16,59.6972371035,
./stim/MorphF7_01_orig.jpg,160,,,,,0,160,160,160,,,,,,,,,,,,,,,,,,,-1.7578125,-10.341796875,0,0,1,1.03645801544,,,2015_Nov_04_2015,A,facesParametric,16,59.6972371035,
./stim/MorphF6_00_orig.jpg,161,,,,,0,161,161,161,,,,,,,,,,,,,,,,,,,-1.7578125,-10.341796875,0,0,1,0.71918797493,,,2015_Nov_04_2015,A,facesParametric,16,59.6972371035,
./stim/MorphM3_02_orig.jpg,162,,,,,0,162,162,162,,,,,,,,,,,,,,,,,,,-1.7578125,-10.341796875,0,0,1,1.55679106712,,,2015_Nov_04_2015,A,facesParametric,16,59.6972371035,
./stim/MorphF1_07_orig.jpg,163,,,,,0,163,163,163,,,,,,,,,,,,,,,,,,,-1.7578125,-10.341796875,1,0,0,3.40188407898,,,2015_Nov_04_2015,A,facesParametric,16,59.6972371035,
./stim/MorphM8_06_orig.jpg,164,,,,,0,164,164,164,,,,,,,,,,,,,,,,,,,-1.7578125,-10.341796875,1,0,0,1.28854298592,,,2015_Nov_04_2015,A,facesParametric,16,59.6972371035,
./stim/MorphF5_04_orig.jpg,165,,,,,0,165,165,165,,,,,,,,,,,,,,,,,,,-1.7578125,-10.341796875,0,0,1,1.69143486023,,,2015_Nov_04_2015,A,facesParametric,16,59.6972371035,
./stim/MorphM9_03_orig.jpg,166,,,,,0,166,166,166,,,,,,,,,,,,,,,,,,,-1.7578125,-10.341796875,0,0,1,0.885247945786,,,2015_Nov_04_2015,A,facesParametric,16,59.6972371035,
./stim/MorphF7_07_orig.jpg,167,,,,,0,167,167,167,,,,,,,,,,,,,,,,,,,-1.7578125,-10.341796875,1,0,0,1.52292013168,,,2015_Nov_04_2015,A,facesParametric,16,59.6972371035,
./stim/MorphF8_01_orig.jpg,168,,,,,0,168,168,168,,,,,,,,,,,,,,,,,,,-1.7578125,-10.341796875,0,0,1,1.30594301224,,,2015_Nov_04_2015,A,facesParametric,16,59.6972371035,
./stim/MorphF10_01_orig.jpg,169,,,,,0,169,169,169,,,,,,,,,,,,,,,,,,,-1.7578125,-10.341796875,0,0,1,3.18096113205,,,2015_Nov_04_2015,A,facesParametric,16,59.6972371035,
./stim/MorphM7_04_orig.jpg,170,,,,,0,170,170,170,,,,,,,,,,,,,,,,,,,-1.7578125,-10.341796875,1,0,0,2.11113500595,,,2015_Nov_04_2015,A,facesParametric,16,59.6972371035,
./stim/MorphM2_08_orig.jpg,171,,,,,0,171,171,171,,,,,,,,,,,,,,,,,,,-1.7578125,-10.341796875,1,0,0,2.37632989883,,,2015_Nov_04_2015,A,facesParametric,16,59.6972371035,
./stim/MorphF9_00_orig.jpg,172,,,,,0,172,172,172,,,,,,,,,,,,,,,,,,,-1.7578125,-10.341796875,0,0,1,1.21994185448,,,2015_Nov_04_2015,A,facesParametric,16,59.6972371035,
./stim/MorphM5_04_orig.jpg,173,,,,,0,173,173,173,,,,,,,,,,,,,,,,,,,-1.7578125,-10.341796875,1,0,0,3.51750397682,,,2015_Nov_04_2015,A,facesParametric,16,59.6972371035,
./stim/MorphF5_03_orig.jpg,174,,,,,0,174,174,174,,,,,,,,,,,,,,,,,,,-1.7578125,-10.341796875,0,0,1,3.85336303711,,,2015_Nov_04_2015,A,facesParametric,16,59.6972371035,
./stim/MorphF2_06_orig.jpg,175,,,,,0,175,175,175,,,,,,,,,,,,,,,,,,,-1.7578125,-10.341796875,0,0,1,1.49035096169,,,2015_Nov_04_2015,A,facesParametric,16,59.6972371035,
./stim/MorphM4_01_orig.jpg,176,,,,,0,176,176,176,,,,,,,,,,,,,,,,,,,-1.7578125,-10.341796875,0,0,1,3.08289599419,,,2015_Nov_04_2015,A,facesParametric,16,59.6972371035,
./stim/MorphM1_01_orig.jpg,177,,,,,0,177,177,177,,,,,,,,,,,,,,,,,,,-1.7578125,-10.341796875,0,0,1,0.836645841599,,,2015_Nov_04_2015,A,facesParametric,16,59.6972371035,
./stim/MorphF6_02_orig.jpg,178,,,,,0,178,178,178,,,,,,,,,,,,,,,,,,,-1.7578125,-10.341796875,0,0,1,0.701915979385,,,2015_Nov_04_2015,A,facesParametric,16,59.6972371035,
./stim/MorphM1_03_orig.jpg,179,,,,,0,179,179,179,,,,,,,,,,,,,,,,,,,-1.7578125,-10.341796875,0,0,1,0.853616952896,,,2015_Nov_04_2015,A,facesParametric,16,59.6972371035,
./stim/MorphF8_02_orig.jpg,180,,,,,0,180,180,180,,,,,,,,,,,,,,,,,,,-1.7578125,-10.341796875,0,0,1,0.836581945419,,,2015_Nov_04_2015,A,facesParametric,16,59.6972371035,
./stim/MorphM6_05_orig.jpg,181,,,,,0,181,181,181,,,,,,,,,,,,,,,,,,,-1.7578125,-10.341796875,0,0,1,2.41079497337,,,2015_Nov_04_2015,A,facesParametric,16,59.6972371035,
./stim/MorphM10_05_orig.jpg,182,,,,,0,182,182,182,,,,,,,,,,,,,,,,,,,-1.7578125,-10.341796875,1,0,0,0.887305021286,,,2015_Nov_04_2015,A,facesParametric,16,59.6972371035,
./stim/MorphM1_06_orig.jpg,183,,,,,0,183,183,183,,,,,,,,,,,,,,,,,,,-1.7578125,-10.341796875,0,0,1,1.03758502007,,,2015_Nov_04_2015,A,facesParametric,16,59.6972371035,
./stim/MorphF2_08_orig.jpg,184,,,,,0,184,184,184,,,,,,,,,,,,,,,,,,,-1.7578125,-10.341796875,1,0,0,1.94294691086,,,2015_Nov_04_2015,A,facesParametric,16,59.6972371035,
./stim/MorphM9_02_orig.jpg,185,,,,,0,185,185,185,,,,,,,,,,,,,,,,,,,-1.7578125,-10.341796875,0,0,1,2.66335201263,,,2015_Nov_04_2015,A,facesParametric,16,59.6972371035,
./stim/MorphF2_05_orig.jpg,186,,,,,0,186,186,186,,,,,,,,,,,,,,,,,,,-1.7578125,-10.341796875,0,0,1,2.83089613914,,,2015_Nov_04_2015,A,facesParametric,16,59.6972371035,
./stim/MorphM2_03_orig.jpg,187,,,,,0,187,187,187,,,,,,,,,,,,,,,,,,,-1.7578125,-10.341796875,0,0,1,1.37352609634,,,2015_Nov_04_2015,A,facesParametric,16,59.6972371035,
./stim/MorphM5_00_orig.jpg,188,,,,,0,188,188,188,,,,,,,,,,,,,,,,,,,-1.7578125,-10.341796875,0,0,1,1.53809905052,,,2015_Nov_04_2015,A,facesParametric,16,59.6972371035,
./stim/MorphM9_09_orig.jpg,189,,,,,0,189,189,189,,,,,,,,,,,,,,,,,,,-1.7578125,-10.341796875,1,0,0,0.920435905457,,,2015_Nov_04_2015,A,facesParametric,16,59.6972371035,
./stim/MorphF8_08_orig.jpg,190,,,,,0,190,190,190,,,,,,,,,,,,,,,,,,,-1.7578125,-10.341796875,1,0,0,0.751517057419,,,2015_Nov_04_2015,A,facesParametric,16,59.6972371035,
./stim/MorphF7_09_orig.jpg,191,,,,,0,191,191,191,,,,,,,,,,,,,,,,,,,-1.7578125,-10.341796875,1,0,0,0.786433935165,,,2015_Nov_04_2015,A,facesParametric,16,59.6972371035,
./stim/MorphM6_08_orig.jpg,192,,,,,0,192,192,192,,,,,,,,,,,,,,,,,,,-1.7578125,-10.341796875,1,0,0,1.15565109253,,,2015_Nov_04_2015,A,facesParametric,16,59.6972371035,
./stim/MorphM4_02_orig.jpg,193,,,,,0,193,193,193,,,,,,,,,,,,,,,,,,,-1.7578125,-10.341796875,0,0,1,0.987118005753,,,2015_Nov_04_2015,A,facesParametric,16,59.6972371035,
./stim/MorphF2_09_orig.jpg,194,,,,,0,194,194,194,,,,,,,,,,,,,,,,,,,-1.7578125,-10.341796875,0,0,1,1.08818387985,,,2015_Nov_04_2015,A,facesParametric,16,59.6972371035,
./stim/MorphF4_00_orig.jpg,195,,,,,0,195,195,195,,,,,,,,,,,,,,,,,,,-1.7578125,-10.341796875,0,0,1,2.05928993225,,,2015_Nov_04_2015,A,facesParametric,16,59.6972371035,
./stim/MorphM5_05_orig.jpg,196,,,,,0,196,196,196,,,,,,,,,,,,,,,,,,,-1.7578125,-10.341796875,0,0,1,2.05842804909,,,2015_Nov_04_2015,A,facesParametric,16,59.6972371035,
./stim/MorphM10_00_orig.jpg,197,,,,,0,197,197,197,,,,,,,,,,,,,,,,,,,-1.7578125,-10.341796875,0,0,1,0.954128980637,,,2015_Nov_04_2015,A,facesParametric,16,59.6972371035,
./stim/MorphF1_10_orig.jpg,198,,,,,0,198,198,198,,,,,,,,,,,,,,,,,,,-1.7578125,-10.341796875,0,0,1,1.1884829998,,,2015_Nov_04_2015,A,facesParametric,16,59.6972371035,
./stim/MorphM2_01_orig.jpg,199,,,,,0,199,199,199,,,,,,,,,,,,,,,,,,,-1.7578125,-10.341796875,0,0,1,0.836606025696,,,2015_Nov_04_2015,A,facesParametric,16,59.6972371035,
./stim/MorphF1_09_orig.jpg,200,,,,,0,200,200,200,,,,,,,,,,,,,,,,,,,-1.7578125,-10.341796875,1,0,0,1.23889803886,,,2015_Nov_04_2015,A,facesParametric,16,59.6972371035,
./stim/MorphF4_07_orig.jpg,201,,,,,0,201,201,201,,,,,,,,,,,,,,,,,,,-1.7578125,-10.341796875,1,0,0,3.41813898087,,,2015_Nov_04_2015,A,facesParametric,16,59.6972371035,
./stim/MorphF6_10_orig.jpg,202,,,,,0,202,202,202,,,,,,,,,,,,,,,,,,,-1.7578125,-10.341796875,1,0,0,0.71959400177,,,2015_Nov_04_2015,A,facesParametric,16,59.6972371035,
./stim/MorphM10_09_orig.jpg,203,,,,,0,203,203,203,,,,,,,,,,,,,,,,,,,-1.7578125,-10.341796875,1,0,0,1.35604190826,,,2015_Nov_04_2015,A,facesParametric,16,59.6972371035,
./stim/MorphM5_02_orig.jpg,204,,,,,0,204,204,204,,,,,,,,,,,,,,,,,,,-1.7578125,-10.341796875,0,0,1,2.25990605354,,,2015_Nov_04_2015,A,facesParametric,16,59.6972371035,
./stim/MorphM2_05_orig.jpg,205,,,,,0,205,205,205,,,,,,,,,,,,,,,,,,,-1.7578125,-10.341796875,0,0,1,2.56298398972,,,2015_Nov_04_2015,A,facesParametric,16,59.6972371035,
./stim/MorphM3_04_orig.jpg,206,,,,,0,206,206,206,,,,,,,,,,,,,,,,,,,-1.7578125,-10.341796875,0,0,1,2.81444883347,,,2015_Nov_04_2015,A,facesParametric,16,59.6972371035,
./stim/MorphF5_06_orig.jpg,207,,,,,0,207,207,207,,,,,,,,,,,,,,,,,,,-1.7578125,-10.341796875,1,0,0,4.37409687042,,,2015_Nov_04_2015,A,facesParametric,16,59.6972371035,
./stim/MorphM7_02_orig.jpg,208,,,,,0,208,208,208,,,,,,,,,,,,,,,,,,,-1.7578125,-10.341796875,0,0,1,5.39425992966,,,2015_Nov_04_2015,A,facesParametric,16,59.6972371035,
./stim/MorphF9_10_orig.jpg,209,,,,,0,209,209,209,,,,,,,,,,,,,,,,,,,-1.7578125,-10.341796875,1,0,0,0.836957216263,,,2015_Nov_04_2015,A,facesParametric,16,59.6972371035,
./stim/MorphM9_04_orig.jpg,210,,,,,0,210,210,210,,,,,,,,,,,,,,,,,,,-1.7578125,-10.341796875,0,0,1,1.08731794357,,,2015_Nov_04_2015,A,facesParametric,16,59.6972371035,
./stim/MorphF5_07_orig.jpg,211,,,,,0,211,211,211,,,,,,,,,,,,,,,,,,,-1.7578125,-10.341796875,1,0,0,1.05438899994,,,2015_Nov_04_2015,A,facesParametric,16,59.6972371035,
./stim/MorphM9_05_orig.jpg,212,,,,,0,212,212,212,,,,,,,,,,,,,,,,,,,-1.7578125,-10.341796875,0,0,1,1.23902702332,,,2015_Nov_04_2015,A,facesParametric,16,59.6972371035,
./stim/MorphF10_00_orig.jpg,213,,,,,0,213,213,213,,,,,,,,,,,,,,,,,,,-1.7578125,-10.341796875,0,0,1,1.22264194489,,,2015_Nov_04_2015,A,facesParametric,16,59.6972371035,
./stim/MorphF6_07_orig.jpg,214,,,,,0,214,214,214,,,,,,,,,,,,,,,,,,,-1.7578125,-10.341796875,1,0,0,0.719191074371,,,2015_Nov_04_2015,A,facesParametric,16,59.6972371035,
./stim/MorphF5_08_orig.jpg,215,,,,,0,215,215,215,,,,,,,,,,,,,,,,,,,-1.7578125,-10.341796875,1,0,0,0.83673620224,,,2015_Nov_04_2015,A,facesParametric,16,59.6972371035,
./stim/MorphM6_06_orig.jpg,216,,,,,0,216,216,216,,,,,,,,,,,,,,,,,,,-1.7578125,-10.341796875,0,0,1,1.53984284401,,,2015_Nov_04_2015,A,facesParametric,16,59.6972371035,
./stim/MorphF9_09_orig.jpg,217,,,,,0,217,217,217,,,,,,,,,,,,,,,,,,,-1.7578125,-10.341796875,1,0,0,1.35633182526,,,2015_Nov_04_2015,A,facesParametric,16,59.6972371035,
./stim/MorphM7_10_orig.jpg,218,,,,,0,218,218,218,,,,,,,,,,,,,,,,,,,-1.7578125,-10.341796875,1,0,0,1.18907403946,,,2015_Nov_04_2015,A,facesParametric,16,59.6972371035,
./stim/MorphM8_07_orig.jpg,219,,,,,0,219,219,219,,,,,,,,,,,,,,,,,,,-1.7578125,-10.341796875,1,0,0,3.41577887535,,,2015_Nov_04_2015,A,facesParametric,16,59.6972371035,
,,,,,,,,,,,,,,,,,,,,,,,,,,,,,,,,,,return,31.6587688923,2015_Nov_04_2015,A,facesParametric,16,59.6972371035,
./stim/MorphF6_10_orig.jpg,0,,,,,,,,,0,0,0,0,,,,,,,,,,,,,,,-1.7578125,-10.341796875,1,0,0,3.16068100929,,,2015_Nov_04_2015,A,facesParametric,16,59.6972371035,
./stim/MorphF2_06_orig.jpg,1,,,,,,,,,0,1,1,1,,,,,,,,,,,,,,,-1.7578125,-10.341796875,1,0,0,1.73988294601,,,2015_Nov_04_2015,A,facesParametric,16,59.6972371035,
./stim/MorphF1_01_orig.jpg,2,,,,,,,,,0,2,2,2,,,,,,,,,,,,,,,-1.7578125,-10.341796875,0,0,1,1.02073693275,,,2015_Nov_04_2015,A,facesParametric,16,59.6972371035,
./stim/MorphF3_06_orig.jpg,3,,,,,,,,,0,3,3,3,,,,,,,,,,,,,,,-1.7578125,-10.341796875,0,0,1,2.44627118111,,,2015_Nov_04_2015,A,facesParametric,16,59.6972371035,
./stim/MorphM9_04_orig.jpg,4,,,,,,,,,0,4,4,4,,,,,,,,,,,,,,,-1.7578125,-10.341796875,0,0,1,2.57897901535,,,2015_Nov_04_2015,A,facesParametric,16,59.6972371035,
./stim/MorphM1_03_orig.jpg,5,,,,,,,,,0,5,5,5,,,,,,,,,,,,,,,-1.7578125,-10.341796875,0,0,1,0.903596162796,,,2015_Nov_04_2015,A,facesParametric,16,59.6972371035,
./stim/MorphF7_01_orig.jpg,6,,,,,,,,,0,6,6,6,,,,,,,,,,,,,,,-1.7578125,-10.341796875,0,0,1,1.59079408646,,,2015_Nov_04_2015,A,facesParametric,16,59.6972371035,
./stim/MorphF4_06_orig.jpg,7,,,,,,,,,0,7,7,7,,,,,,,,,,,,,,,-1.7578125,-10.341796875,0,0,1,3.01507496834,,,2015_Nov_04_2015,A,facesParametric,16,59.6972371035,
./stim/MorphF5_03_orig.jpg,8,,,,,,,,,0,8,8,8,,,,,,,,,,,,,,,-1.7578125,-10.341796875,0,0,1,0.752819061279,,,2015_Nov_04_2015,A,facesParametric,16,59.6972371035,
./stim/MorphF7_08_orig.jpg,9,,,,,,,,,0,9,9,9,,,,,,,,,,,,,,,-1.7578125,-10.341796875,1,0,0,0.853734970093,,,2015_Nov_04_2015,A,facesParametric,16,59.6972371035,
./stim/MorphF4_05_orig.jpg,10,,,,,,,,,0,10,10,10,,,,,,,,,,,,,,,-1.7578125,-10.341796875,0,0,1,1.02112793922,,,2015_Nov_04_2015,A,facesParametric,16,59.6972371035,
./stim/MorphF6_05_orig.jpg,11,,,,,,,,,0,11,11,11,,,,,,,,,,,,,,,-1.7578125,-10.341796875,0,0,1,5.37682199478,,,2015_Nov_04_2015,A,facesParametric,16,59.6972371035,
./stim/MorphF1_10_orig.jpg,12,,,,,,,,,0,12,12,12,,,,,,,,,,,,,,,-1.7578125,-10.341796875,0,0,1,0.834474086761,,,2015_Nov_04_2015,A,facesParametric,16,59.6972371035,
./stim/MorphF5_06_orig.jpg,13,,,,,,,,,0,13,13,13,,,,,,,,,,,,,,,-1.7578125,-10.341796875,1,0,0,3.30030608177,,,2015_Nov_04_2015,A,facesParametric,16,59.6972371035,
./stim/MorphM4_02_orig.jpg,14,,,,,,,,,0,14,14,14,,,,,,,,,,,,,,,-1.7578125,-10.341796875,0,0,1,0.885899066925,,,2015_Nov_04_2015,A,facesParametric,16,59.6972371035,
./stim/MorphM1_10_orig.jpg,15,,,,,,,,,0,15,15,15,,,,,,,,,,,,,,,-1.7578125,-10.341796875,0,0,1,1.80791497231,,,2015_Nov_04_2015,A,facesParametric,16,59.6972371035,
./stim/MorphF3_08_orig.jpg,16,,,,,,,,,0,16,16,16,,,,,,,,,,,,,,,-1.7578125,-10.341796875,0,0,1,0.80307507515,,,2015_Nov_04_2015,A,facesParametric,16,59.6972371035,
./stim/MorphM2_09_orig.jpg,17,,,,,,,,,0,17,17,17,,,,,,,,,,,,,,,-1.7578125,-10.341796875,1,0,0,1.82581710815,,,2015_Nov_04_2015,A,facesParametric,16,59.6972371035,
./stim/MorphM4_03_orig.jpg,18,,,,,,,,,0,18,18,18,,,,,,,,,,,,,,,-1.7578125,-10.341796875,0,0,1,0.803042888641,,,2015_Nov_04_2015,A,facesParametric,16,59.6972371035,
./stim/MorphF4_02_orig.jpg,19,,,,,,,,,0,19,19,19,,,,,,,,,,,,,,,-1.7578125,-10.341796875,0,0,1,1.12179398537,,,2015_Nov_04_2015,A,facesParametric,16,59.6972371035,
./stim/MorphF8_03_orig.jpg,20,,,,,,,,,0,20,20,20,,,,,,,,,,,,,,,-1.7578125,-10.341796875,0,0,1,0.96887421608,,,2015_Nov_04_2015,A,facesParametric,16,59.6972371035,
./stim/MorphM5_04_orig.jpg,21,,,,,,,,,0,21,21,21,,,,,,,,,,,,,,,-1.7578125,-10.341796875,0,0,1,5.21124100685,,,2015_Nov_04_2015,A,facesParametric,16,59.6972371035,
./stim/MorphF6_08_orig.jpg,22,,,,,,,,,0,22,22,22,,,,,,,,,,,,,,,-1.7578125,-10.341796875,1,0,0,2.41196513176,,,2015_Nov_04_2015,A,facesParametric,16,59.6972371035,
./stim/MorphF3_02_orig.jpg,23,,,,,,,,,0,23,23,23,,,,,,,,,,,,,,,-1.7578125,-10.341796875,0,0,1,1.17132496834,,,2015_Nov_04_2015,A,facesParametric,16,59.6972371035,
./stim/MorphM1_05_orig.jpg,24,,,,,,,,,0,24,24,24,,,,,,,,,,,,,,,-1.7578125,-10.341796875,0,0,1,1.27221989632,,,2015_Nov_04_2015,A,facesParametric,16,59.6972371035,
./stim/MorphM10_09_orig.jpg,25,,,,,,,,,0,25,25,25,,,,,,,,,,,,,,,-1.7578125,-10.341796875,1,0,0,1.18873500824,,,2015_Nov_04_2015,A,facesParametric,16,59.6972371035,
./stim/MorphF2_00_orig.jpg,26,,,,,,,,,0,26,26,26,,,,,,,,,,,,,,,-1.7578125,-10.341796875,0,0,1,1.13729810715,,,2015_Nov_04_2015,A,facesParametric,16,59.6972371035,
./stim/MorphM7_05_orig.jpg,27,,,,,,,,,0,27,27,27,,,,,,,,,,,,,,,-1.7578125,-10.341796875,1,0,0,3.8202559948,,,2015_Nov_04_2015,A,facesParametric,16,59.6972371035,
./stim/MorphM1_07_orig.jpg,28,,,,,,,,,0,28,28,28,,,,,,,,,,,,,,,-1.7578125,-10.341796875,0,0,1,0.918752908707,,,2015_Nov_04_2015,A,facesParametric,16,59.6972371035,
./stim/MorphF6_03_orig.jpg,29,,,,,,,,,0,29,29,29,,,,,,,,,,,,,,,-1.7578125,-10.341796875,1,0,0,1.00415301323,,,2015_Nov_04_2015,A,facesParametric,16,59.6972371035,
./stim/MorphM7_10_orig.jpg,30,,,,,,,,,0,30,30,30,,,,,,,,,,,,,,,-1.7578125,-10.341796875,1,0,0,1.28916096687,,,2015_Nov_04_2015,A,facesParametric,16,59.6972371035,
./stim/MorphF10_08_orig.jpg,31,,,,,,,,,0,31,31,31,,,,,,,,,,,,,,,-1.7578125,-10.341796875,1,0,0,1.25504493713,,,2015_Nov_04_2015,A,facesParametric,16,59.6972371035,
./stim/MorphM6_10_orig.jpg,32,,,,,,,,,0,32,32,32,,,,,,,,,,,,,,,-1.7578125,-10.341796875,1,0,0,0.803071022034,,,2015_Nov_04_2015,A,facesParametric,16,59.6972371035,
./stim/MorphM9_00_orig.jpg,33,,,,,,,,,0,33,33,33,,,,,,,,,,,,,,,-1.7578125,-10.341796875,0,0,1,0.903332948685,,,2015_Nov_04_2015,A,facesParametric,16,59.6972371035,
./stim/MorphF3_10_orig.jpg,34,,,,,,,,,0,34,34,34,,,,,,,,,,,,,,,-1.7578125,-10.341796875,0,0,1,0.95347905159,,,2015_Nov_04_2015,A,facesParametric,16,59.6972371035,
./stim/MorphM9_01_orig.jpg,35,,,,,,,,,0,35,35,35,,,,,,,,,,,,,,,-1.7578125,-10.341796875,0,0,1,0.970180034637,,,2015_Nov_04_2015,A,facesParametric,16,59.6972371035,
./stim/MorphM4_07_orig.jpg,36,,,,,,,,,0,36,36,36,,,,,,,,,,,,,,,-1.7578125,-10.341796875,1,0,0,1.74078893661,,,2015_Nov_04_2015,A,facesParametric,16,59.6972371035,
./stim/MorphM9_10_orig.jpg,37,,,,,,,,,0,37,37,37,,,,,,,,,,,,,,,-1.7578125,-10.341796875,1,0,0,0.8197889328,,,2015_Nov_04_2015,A,facesParametric,16,59.6972371035,
./stim/MorphM10_03_orig.jpg,38,,,,,,,,,0,38,38,38,,,,,,,,,,,,,,,-1.7578125,-10.341796875,0,0,1,2.37736201286,,,2015_Nov_04_2015,A,facesParametric,16,59.6972371035,
./stim/MorphM6_05_orig.jpg,39,,,,,,,,,0,39,39,39,,,,,,,,,,,,,,,-1.7578125,-10.341796875,0,0,1,1.63923716545,,,2015_Nov_04_2015,A,facesParametric,16,59.6972371035,
./stim/MorphM1_06_orig.jpg,40,,,,,,,,,0,40,40,40,,,,,,,,,,,,,,,-1.7578125,-10.341796875,0,0,1,2.02685284615,,,2015_Nov_04_2015,A,facesParametric,16,59.6972371035,
./stim/MorphF2_08_orig.jpg,41,,,,,,,,,0,41,41,41,,,,,,,,,,,,,,,-1.7578125,-10.341796875,1,0,0,5.0267431736,,,2015_Nov_04_2015,A,facesParametric,16,59.6972371035,
./stim/MorphM3_00_orig.jpg,42,,,,,,,,,0,42,42,42,,,,,,,,,,,,,,,-1.7578125,-10.341796875,0,0,1,1.62430787086,,,2015_Nov_04_2015,A,facesParametric,16,59.6972371035,
./stim/MorphM7_04_orig.jpg,43,,,,,,,,,0,43,43,43,,,,,,,,,,,,,,,-1.7578125,-10.341796875,0,0,1,6.7015080452,,,2015_Nov_04_2015,A,facesParametric,16,59.6972371035,
./stim/MorphF3_04_orig.jpg,44,,,,,,,,,0,44,44,44,,,,,,,,,,,,,,,-1.7578125,-10.341796875,0,0,1,0.81979393959,,,2015_Nov_04_2015,A,facesParametric,16,59.6972371035,
./stim/MorphM2_06_orig.jpg,45,,,,,,,,,0,45,45,45,,,,,,,,,,,,,,,-1.7578125,-10.341796875,0,0,1,1.30628800392,,,2015_Nov_04_2015,A,facesParametric,16,59.6972371035,
./stim/MorphF8_02_orig.jpg,46,,,,,,,,,0,46,46,46,,,,,,,,,,,,,,,-1.7578125,-10.341796875,0,0,1,0.851511955261,,,2015_Nov_04_2015,A,facesParametric,16,59.6972371035,
./stim/MorphM5_02_orig.jpg,47,,,,,,,,,0,47,47,47,,,,,,,,,,,,,,,-1.7578125,-10.341796875,0,0,1,6.584389925,,,2015_Nov_04_2015,A,facesParametric,16,59.6972371035,
./stim/MorphF4_07_orig.jpg,48,,,,,,,,,0,48,48,48,,,,,,,,,,,,,,,-1.7578125,-10.341796875,0,0,1,4.32251310349,,,2015_Nov_04_2015,A,facesParametric,16,59.6972371035,
./stim/MorphM3_02_orig.jpg,49,,,,,,,,,0,49,49,49,,,,,,,,,,,,,,,-1.7578125,-10.341796875,0,0,1,2.54621005058,,,2015_Nov_04_2015,A,facesParametric,16,59.6972371035,
./stim/MorphF7_02_orig.jpg,50,,,,,,,,,0,50,50,50,,,,,,,,,,,,,,,-1.7578125,-10.341796875,0,0,1,0.987840890884,,,2015_Nov_04_2015,A,facesParametric,16,59.6972371035,
./stim/MorphM5_01_orig.jpg,51,,,,,,,,,0,51,51,51,,,,,,,,,,,,,,,-1.7578125,-10.341796875,0,0,1,1.92596387863,,,2015_Nov_04_2015,A,facesParametric,16,59.6972371035,
./stim/MorphF6_04_orig.jpg,52,,,,,,,,,0,52,52,52,,,,,,,,,,,,,,,-1.7578125,-10.341796875,0,0,1,1.85899710655,,,2015_Nov_04_2015,A,facesParametric,16,59.6972371035,
./stim/MorphM1_01_orig.jpg,53,,,,,,,,,0,53,53,53,,,,,,,,,,,,,,,-1.7578125,-10.341796875,0,0,1,1.22221088409,,,2015_Nov_04_2015,A,facesParametric,16,59.6972371035,
./stim/MorphF8_00_orig.jpg,54,,,,,,,,,0,54,54,54,,,,,,,,,,,,,,,-1.7578125,-10.341796875,0,0,1,0.88694691658,,,2015_Nov_04_2015,A,facesParametric,16,59.6972371035,
./stim/MorphF2_02_orig.jpg,55,,,,,,,,,0,55,55,55,,,,,,,,,,,,,,,-1.7578125,-10.341796875,0,0,1,1.03787493706,,,2015_Nov_04_2015,A,facesParametric,16,59.6972371035,
./stim/MorphF3_01_orig.jpg,56,,,,,,,,,0,56,56,56,,,,,,,,,,,,,,,-1.7578125,-10.341796875,0,0,1,0.81796503067,,,2015_Nov_04_2015,A,facesParametric,16,59.6972371035,
./stim/MorphF1_00_orig.jpg,57,,,,,,,,,0,57,57,57,,,,,,,,,,,,,,,-1.7578125,-10.341796875,0,0,1,0.803025960922,,,2015_Nov_04_2015,A,facesParametric,16,59.6972371035,
./stim/MorphM6_09_orig.jpg,58,,,,,,,,,0,58,58,58,,,,,,,,,,,,,,,-1.7578125,-10.341796875,1,0,0,0.753182888031,,,2015_Nov_04_2015,A,facesParametric,16,59.6972371035,
./stim/MorphF1_07_orig.jpg,59,,,,,,,,,0,59,59,59,,,,,,,,,,,,,,,-1.7578125,-10.341796875,1,0,0,3.18176412582,,,2015_Nov_04_2015,A,facesParametric,16,59.6972371035,
./stim/MorphF10_10_orig.jpg,60,,,,,,,,,0,60,60,60,,,,,,,,,,,,,,,-1.7578125,-10.341796875,1,0,0,1.45690989494,,,2015_Nov_04_2015,A,facesParametric,16,59.6972371035,
./stim/MorphM5_06_orig.jpg,61,,,,,,,,,0,61,61,61,,,,,,,,,,,,,,,-1.7578125,-10.341796875,1,0,0,1.90946698189,,,2015_Nov_04_2015,A,facesParametric,16,59.6972371035,
./stim/MorphF10_04_orig.jpg,62,,,,,,,,,0,62,62,62,,,,,,,,,,,,,,,-1.7578125,-10.341796875,1,0,0,0.752506017685,,,2015_Nov_04_2015,A,facesParametric,16,59.6972371035,
./stim/MorphF9_05_orig.jpg,63,,,,,,,,,0,63,63,63,,,,,,,,,,,,,,,-1.7578125,-10.341796875,1,0,0,1.03728103638,,,2015_Nov_04_2015,A,facesParametric,16,59.6972371035,
./stim/MorphM4_08_orig.jpg,64,,,,,,,,,0,64,64,64,,,,,,,,,,,,,,,-1.7578125,-10.341796875,1,0,0,1.33967590332,,,2015_Nov_04_2015,A,facesParametric,16,59.6972371035,
./stim/MorphF9_10_orig.jpg,65,,,,,,,,,0,65,65,65,,,,,,,,,,,,,,,-1.7578125,-10.341796875,1,0,0,0.636252880096,,,2015_Nov_04_2015,A,facesParametric,16,59.6972371035,
./stim/MorphF6_02_orig.jpg,66,,,,,,,,,0,66,66,66,,,,,,,,,,,,,,,-1.7578125,-10.341796875,0,0,1,0.86952495575,,,2015_Nov_04_2015,A,facesParametric,16,59.6972371035,
./stim/MorphM5_07_orig.jpg,67,,,,,,,,,0,67,67,67,,,,,,,,,,,,,,,-1.7578125,-10.341796875,1,0,0,6.71726799011,,,2015_Nov_04_2015,A,facesParametric,16,59.6972371035,
./stim/MorphF3_05_orig.jpg,68,,,,,,,,,0,68,68,68,,,,,,,,,,,,,,,-1.7578125,-10.341796875,0,0,1,0.869918823242,,,2015_Nov_04_2015,A,facesParametric,16,59.6972371035,
./stim/MorphF9_02_orig.jpg,69,,,,,,,,,0,69,69,69,,,,,,,,,,,,,,,-1.7578125,-10.341796875,0,0,1,1.15383005142,,,2015_Nov_04_2015,A,facesParametric,16,59.6972371035,
./stim/MorphM8_00_orig.jpg,70,,,,,,,,,0,70,70,70,,,,,,,,,,,,,,,-1.7578125,-10.341796875,0,0,1,4.33742904663,,,2015_Nov_04_2015,A,facesParametric,16,59.6972371035,
./stim/MorphF10_03_orig.jpg,71,,,,,,,,,0,71,71,71,,,,,,,,,,,,,,,-1.7578125,-10.341796875,1,0,0,0.954613924026,,,2015_Nov_04_2015,A,facesParametric,16,59.6972371035,
./stim/MorphF9_08_orig.jpg,72,,,,,,,,,0,72,72,72,,,,,,,,,,,,,,,-1.7578125,-10.341796875,1,0,0,0.750268936157,,,2015_Nov_04_2015,A,facesParametric,16,59.6972371035,
./stim/MorphF4_00_orig.jpg,73,,,,,,,,,0,73,73,73,,,,,,,,,,,,,,,-1.7578125,-10.341796875,0,0,1,0.870453834534,,,2015_Nov_04_2015,A,facesParametric,16,59.6972371035,
./stim/MorphM6_04_orig.jpg,74,,,,,,,,,0,74,74,74,,,,,,,,,,,,,,,-1.7578125,-10.341796875,0,0,1,0.953993082047,,,2015_Nov_04_2015,A,facesParametric,16,59.6972371035,
./stim/MorphM3_09_orig.jpg,75,,,,,,,,,0,75,75,75,,,,,,,,,,,,,,,-1.7578125,-10.341796875,1,0,0,1.03793811798,,,2015_Nov_04_2015,A,facesParametric,16,59.6972371035,
./stim/MorphM10_02_orig.jpg,76,,,,,,,,,0,76,76,76,,,,,,,,,,,,,,,-1.7578125,-10.341796875,0,0,1,1.87552690506,,,2015_Nov_04_2015,A,facesParametric,16,59.6972371035,
./stim/MorphM8_08_orig.jpg,77,,,,,,,,,0,77,77,77,,,,,,,,,,,,,,,-1.7578125,-10.341796875,1,0,0,0.870265960693,,,2015_Nov_04_2015,A,facesParametric,16,59.6972371035,
./stim/MorphM4_05_orig.jpg,78,,,,,,,,,0,78,78,78,,,,,,,,,,,,,,,-1.7578125,-10.341796875,1,0,0,2.1104888916,,,2015_Nov_04_2015,A,facesParametric,16,59.6972371035,
./stim/MorphM2_08_orig.jpg,79,,,,,,,,,0,79,79,79,,,,,,,,,,,,,,,-1.7578125,-10.341796875,1,0,0,1.52381300926,,,2015_Nov_04_2015,A,facesParametric,16,59.6972371035,
./stim/MorphF6_07_orig.jpg,80,,,,,,,,,0,80,80,80,,,,,,,,,,,,,,,-1.7578125,-10.341796875,1,0,0,1.32280993462,,,2015_Nov_04_2015,A,facesParametric,16,59.6972371035,
./stim/MorphF3_07_orig.jpg,81,,,,,,,,,0,81,81,81,,,,,,,,,,,,,,,-1.7578125,-10.341796875,0,0,1,0.886891841888,,,2015_Nov_04_2015,A,facesParametric,16,59.6972371035,
./stim/MorphM9_02_orig.jpg,82,,,,,,,,,0,82,82,82,,,,,,,,,,,,,,,-1.7578125,-10.341796875,0,0,1,1.35632109642,,,2015_Nov_04_2015,A,facesParametric,16,59.6972371035,
./stim/MorphF4_01_orig.jpg,83,,,,,,,,,0,83,83,83,,,,,,,,,,,,,,,-1.7578125,-10.341796875,0,0,1,2.36221408844,,,2015_Nov_04_2015,A,facesParametric,16,59.6972371035,
./stim/MorphM2_04_orig.jpg,84,,,,,,,,,0,84,84,84,,,,,,,,,,,,,,,-1.7578125,-10.341796875,0,0,1,1.3701839447,,,2015_Nov_04_2015,A,facesParametric,16,59.6972371035,
./stim/MorphM9_08_orig.jpg,85,,,,,,,,,0,85,85,85,,,,,,,,,,,,,,,-1.7578125,-10.341796875,1,0,0,1.17203998566,,,2015_Nov_04_2015,A,facesParametric,16,59.6972371035,
./stim/MorphF1_09_orig.jpg,86,,,,,,,,,0,86,86,86,,,,,,,,,,,,,,,-1.7578125,-10.341796875,1,0,0,2.16116309166,,,2015_Nov_04_2015,A,facesParametric,16,59.6972371035,
./stim/MorphM10_08_orig.jpg,87,,,,,,,,,0,87,87,87,,,,,,,,,,,,,,,-1.7578125,-10.341796875,1,0,0,0.918910980225,,,2015_Nov_04_2015,A,facesParametric,16,59.6972371035,
./stim/MorphF9_07_orig.jpg,88,,,,,,,,,0,88,88,88,,,,,,,,,,,,,,,-1.7578125,-10.341796875,1,0,0,1.64088106155,,,2015_Nov_04_2015,A,facesParametric,16,59.6972371035,
./stim/MorphF10_07_orig.jpg,89,,,,,,,,,0,89,89,89,,,,,,,,,,,,,,,-1.7578125,-10.341796875,1,0,0,2.00970721245,,,2015_Nov_04_2015,A,facesParametric,16,59.6972371035,
./stim/MorphM7_03_orig.jpg,90,,,,,,,,,0,90,90,90,,,,,,,,,,,,,,,-1.7578125,-10.341796875,0,0,1,2.52784204483,,,2015_Nov_04_2015,A,facesParametric,16,59.6972371035,
./stim/MorphM9_03_orig.jpg,91,,,,,,,,,0,91,91,91,,,,,,,,,,,,,,,-1.7578125,-10.341796875,0,0,1,3.66845393181,,,2015_Nov_04_2015,A,facesParametric,16,59.6972371035,
./stim/MorphM4_10_orig.jpg,92,,,,,,,,,0,92,92,92,,,,,,,,,,,,,,,-1.7578125,-10.341796875,1,0,0,0.853621006012,,,2015_Nov_04_2015,A,facesParametric,16,59.6972371035,
./stim/MorphF4_10_orig.jpg,93,,,,,,,,,0,93,93,93,,,,,,,,,,,,,,,-1.7578125,-10.341796875,1,0,0,1.00363707542,,,2015_Nov_04_2015,A,facesParametric,16,59.6972371035,
./stim/MorphF5_10_orig.jpg,94,,,,,,,,,0,94,94,94,,,,,,,,,,,,,,,-1.7578125,-10.341796875,1,0,0,0.987559080124,,,2015_Nov_04_2015,A,facesParametric,16,59.6972371035,
./stim/MorphM1_08_orig.jpg,95,,,,,,,,,0,95,95,95,,,,,,,,,,,,,,,-1.7578125,-10.341796875,0,0,1,3.38392400742,,,2015_Nov_04_2015,A,facesParametric,16,59.6972371035,
./stim/MorphM3_06_orig.jpg,96,,,,,,,,,0,96,96,96,,,,,,,,,,,,,,,-1.7578125,-10.341796875,1,0,0,3.05007505417,,,2015_Nov_04_2015,A,facesParametric,16,59.6972371035,
./stim/MorphF8_08_orig.jpg,97,,,,,,,,,0,97,97,97,,,,,,,,,,,,,,,-1.7578125,-10.341796875,1,0,0,0.902583837509,,,2015_Nov_04_2015,A,facesParametric,16,59.6972371035,
./stim/MorphM4_06_orig.jpg,98,,,,,,,,,0,98,98,98,,,,,,,,,,,,,,,-1.7578125,-10.341796875,1,0,0,5.46230101585,,,2015_Nov_04_2015,A,facesParametric,16,59.6972371035,
./stim/MorphM2_05_orig.jpg,99,,,,,,,,,0,99,99,99,,,,,,,,,,,,,,,-1.7578125,-10.341796875,0,0,1,0.987786054611,,,2015_Nov_04_2015,A,facesParametric,16,59.6972371035,
./stim/MorphF6_09_orig.jpg,100,,,,,,,,,0,100,100,100,,,,,,,,,,,,,,,-1.7578125,-10.341796875,1,0,0,0.734894990921,,,2015_Nov_04_2015,A,facesParametric,16,59.6972371035,
./stim/MorphF7_00_orig.jpg,101,,,,,,,,,0,101,101,101,,,,,,,,,,,,,,,-1.7578125,-10.341796875,0,0,1,1.44032287598,,,2015_Nov_04_2015,A,facesParametric,16,59.6972371035,
./stim/MorphM3_08_orig.jpg,102,,,,,,,,,0,102,102,102,,,,,,,,,,,,,,,-1.7578125,-10.341796875,1,0,0,1.07136797905,,,2015_Nov_04_2015,A,facesParametric,16,59.6972371035,
./stim/MorphM7_07_orig.jpg,103,,,,,,,,,0,103,103,103,,,,,,,,,,,,,,,-1.7578125,-10.341796875,1,0,0,0.971055030823,,,2015_Nov_04_2015,A,facesParametric,16,59.6972371035,
./stim/MorphF3_00_orig.jpg,104,,,,,,,,,0,104,104,104,,,,,,,,,,,,,,,-1.7578125,-10.341796875,0,0,1,1.65758609772,,,2015_Nov_04_2015,A,facesParametric,16,59.6972371035,
./stim/MorphF2_01_orig.jpg,105,,,,,,,,,0,105,105,105,,,,,,,,,,,,,,,-1.7578125,-10.341796875,0,0,1,1.27291893959,,,2015_Nov_04_2015,A,facesParametric,16,59.6972371035,
./stim/MorphF1_08_orig.jpg,106,,,,,,,,,0,106,106,106,,,,,,,,,,,,,,,-1.7578125,-10.341796875,1,0,0,2.88006997108,,,2015_Nov_04_2015,A,facesParametric,16,59.6972371035,
./stim/MorphM10_10_orig.jpg,107,,,,,,,,,0,107,107,107,,,,,,,,,,,,,,,-1.7578125,-10.341796875,1,0,0,1.10465502739,,,2015_Nov_04_2015,A,facesParametric,16,59.6972371035,
./stim/MorphF5_00_orig.jpg,108,,,,,,,,,0,108,108,108,,,,,,,,,,,,,,,-1.7578125,-10.341796875,0,0,1,1.55538797379,,,2015_Nov_04_2015,A,facesParametric,16,59.6972371035,
./stim/MorphF7_03_orig.jpg,109,,,,,,,,,0,109,109,109,,,,,,,,,,,,,,,-1.7578125,-10.341796875,0,0,1,1.77499580383,,,2015_Nov_04_2015,A,facesParametric,16,59.6972371035,
./stim/MorphF9_04_orig.jpg,110,,,,,,,,,0,110,110,110,,,,,,,,,,,,,,,-1.7578125,-10.341796875,0,0,1,1.12088084221,,,2015_Nov_04_2015,A,facesParametric,16,59.6972371035,
./stim/MorphM6_08_orig.jpg,111,,,,,,,,,0,111,111,111,,,,,,,,,,,,,,,-1.7578125,-10.341796875,1,0,0,2.88108801842,,,2015_Nov_04_2015,A,facesParametric,16,59.6972371035,
./stim/MorphF10_01_orig.jpg,112,,,,,,,,,0,112,112,112,,,,,,,,,,,,,,,-1.7578125,-10.341796875,0,0,1,2.86475586891,,,2015_Nov_04_2015,A,facesParametric,16,59.6972371035,
./stim/MorphM2_07_orig.jpg,113,,,,,,,,,0,113,113,113,,,,,,,,,,,,,,,-1.7578125,-10.341796875,1,0,0,0.920850992203,,,2015_Nov_04_2015,A,facesParametric,16,59.6972371035,
./stim/MorphM9_06_orig.jpg,114,,,,,,,,,0,114,114,114,,,,,,,,,,,,,,,-1.7578125,-10.341796875,0,0,1,3.75201797485,,,2015_Nov_04_2015,A,facesParametric,16,59.6972371035,
./stim/MorphM1_04_orig.jpg,115,,,,,,,,,0,115,115,115,,,,,,,,,,,,,,,-1.7578125,-10.341796875,0,0,1,1.33946108818,,,2015_Nov_04_2015,A,facesParametric,16,59.6972371035,
./stim/MorphF4_03_orig.jpg,116,,,,,,,,,0,116,116,116,,,,,,,,,,,,,,,-1.7578125,-10.341796875,0,0,1,0.953573942184,,,2015_Nov_04_2015,A,facesParametric,16,59.6972371035,
./stim/MorphM6_02_orig.jpg,117,,,,,,,,,0,117,117,117,,,,,,,,,,,,,,,-1.7578125,-10.341796875,0,0,1,1.10398006439,,,2015_Nov_04_2015,A,facesParametric,16,59.6972371035,
./stim/MorphM1_02_orig.jpg,118,,,,,,,,,0,118,118,118,,,,,,,,,,,,,,,-1.7578125,-10.341796875,0,0,1,1.22266292572,,,2015_Nov_04_2015,A,facesParametric,16,59.6972371035,
./stim/MorphF7_10_orig.jpg,119,,,,,,,,,0,119,119,119,,,,,,,,,,,,,,,-1.7578125,-10.341796875,1,0,0,0.735674142838,,,2015_Nov_04_2015,A,facesParametric,16,59.6972371035,
./stim/MorphM2_01_orig.jpg,120,,,,,,,,,0,120,120,120,,,,,,,,,,,,,,,-1.7578125,-10.341796875,0,0,1,0.853739023209,,,2015_Nov_04_2015,A,facesParametric,16,59.6972371035,
./stim/MorphF1_06_orig.jpg,121,,,,,,,,,0,121,121,121,,,,,,,,,,,,,,,-1.7578125,-10.341796875,1,0,0,4.94288802147,,,2015_Nov_04_2015,A,facesParametric,16,59.6972371035,
./stim/MorphF5_02_orig.jpg,122,,,,,,,,,0,122,122,122,,,,,,,,,,,,,,,-1.7578125,-10.341796875,0,0,1,1.59036493301,,,2015_Nov_04_2015,A,facesParametric,16,59.6972371035,
./stim/MorphM7_01_orig.jpg,123,,,,,,,,,0,123,123,123,,,,,,,,,,,,,,,-1.7578125,-10.341796875,0,0,1,1.35665011406,,,2015_Nov_04_2015,A,facesParametric,16,59.6972371035,
./stim/MorphF10_00_orig.jpg,124,,,,,,,,,0,124,124,124,,,,,,,,,,,,,,,-1.7578125,-10.341796875,0,0,1,1.13857388496,,,2015_Nov_04_2015,A,facesParametric,16,59.6972371035,
./stim/MorphM7_06_orig.jpg,125,,,,,,,,,0,125,125,125,,,,,,,,,,,,,,,-1.7578125,-10.341796875,1,0,0,0.753167867661,,,2015_Nov_04_2015,A,facesParametric,16,59.6972371035,
./stim/MorphF8_04_orig.jpg,126,,,,,,,,,0,126,126,126,,,,,,,,,,,,,,,-1.7578125,-10.341796875,0,0,1,1.15471696854,,,2015_Nov_04_2015,A,facesParametric,16,59.6972371035,
./stim/MorphF2_09_orig.jpg,127,,,,,,,,,0,127,127,127,,,,,,,,,,,,,,,-1.7578125,-10.341796875,1,0,0,2.563382864,,,2015_Nov_04_2015,A,facesParametric,16,59.6972371035,
./stim/MorphM10_04_orig.jpg,128,,,,,,,,,0,128,128,128,,,,,,,,,,,,,,,-1.7578125,-10.341796875,0,0,1,2.52886199951,,,2015_Nov_04_2015,A,facesParametric,16,59.6972371035,
./stim/MorphM6_00_orig.jpg,129,,,,,,,,,0,129,129,129,,,,,,,,,,,,,,,-1.7578125,-10.341796875,0,0,1,0.869262933731,,,2015_Nov_04_2015,A,facesParametric,16,59.6972371035,
./stim/MorphF4_08_orig.jpg,130,,,,,,,,,0,130,130,130,,,,,,,,,,,,,,,-1.7578125,-10.341796875,1,0,0,1.94151687622,,,2015_Nov_04_2015,A,facesParametric,16,59.6972371035,
./stim/MorphM8_09_orig.jpg,131,,,,,,,,,0,131,131,131,,,,,,,,,,,,,,,-1.7578125,-10.341796875,1,0,0,0.886879920959,,,2015_Nov_04_2015,A,facesParametric,16,59.6972371035,
./stim/MorphF10_09_orig.jpg,132,,,,,,,,,0,132,132,132,,,,,,,,,,,,,,,-1.7578125,-10.341796875,1,0,0,1.12014698982,,,2015_Nov_04_2015,A,facesParametric,16,59.6972371035,
./stim/MorphM10_07_orig.jpg,133,,,,,,,,,0,133,133,133,,,,,,,,,,,,,,,-1.7578125,-10.341796875,1,0,0,0.836980104446,,,2015_Nov_04_2015,A,facesParametric,16,59.6972371035,
./stim/MorphM4_00_orig.jpg,134,,,,,,,,,0,134,134,134,,,,,,,,,,,,,,,-1.7578125,-10.341796875,0,0,1,1.37122488022,,,2015_Nov_04_2015,A,facesParametric,16,59.6972371035,
./stim/MorphM6_03_orig.jpg,135,,,,,,,,,0,135,135,135,,,,,,,,,,,,,,,-1.7578125,-10.341796875,0,0,1,0.970916032791,,,2015_Nov_04_2015,A,facesParametric,16,59.6972371035,
./stim/MorphF9_09_orig.jpg,136,,,,,,,,,0,136,136,136,,,,,,,,,,,,,,,-1.7578125,-10.341796875,1,0,0,1.70719313622,,,2015_Nov_04_2015,A,facesParametric,16,59.6972371035,
./stim/MorphM10_00_orig.jpg,137,,,,,,,,,0,137,137,137,,,,,,,,,,,,,,,-1.7578125,-10.341796875,0,0,1,0.769862890244,,,2015_Nov_04_2015,A,facesParametric,16,59.6972371035,
./stim/MorphF7_09_orig.jpg,138,,,,,,,,,0,138,138,138,,,,,,,,,,,,,,,-1.7578125,-10.341796875,1,0,0,0.952280044556,,,2015_Nov_04_2015,A,facesParametric,16,59.6972371035,
./stim/MorphF6_01_orig.jpg,139,,,,,,,,,0,139,139,139,,,,,,,,,,,,,,,-1.7578125,-10.341796875,0,0,1,0.97095990181,,,2015_Nov_04_2015,A,facesParametric,16,59.6972371035,
./stim/MorphF8_06_orig.jpg,140,,,,,,,,,0,140,140,140,,,,,,,,,,,,,,,-1.7578125,-10.341796875,1,0,0,3.51815390587,,,2015_Nov_04_2015,A,facesParametric,16,59.6972371035,
./stim/MorphF1_05_orig.jpg,141,,,,,,,,,0,141,141,141,,,,,,,,,,,,,,,-1.7578125,-10.341796875,1,0,0,2.74770402908,,,2015_Nov_04_2015,A,facesParametric,16,59.6972371035,
./stim/MorphF8_09_orig.jpg,142,,,,,,,,,0,142,142,142,,,,,,,,,,,,,,,-1.7578125,-10.341796875,1,0,0,2.1937379837,,,2015_Nov_04_2015,A,facesParametric,16,59.6972371035,
./stim/MorphF2_03_orig.jpg,143,,,,,,,,,0,143,143,143,,,,,,,,,,,,,,,-1.7578125,-10.341796875,0,0,1,2.37857198715,,,2015_Nov_04_2015,A,facesParametric,16,59.6972371035,
./stim/MorphF8_01_orig.jpg,144,,,,,,,,,0,144,144,144,,,,,,,,,,,,,,,-1.7578125,-10.341796875,0,0,1,1.28898596764,,,2015_Nov_04_2015,A,facesParametric,16,59.6972371035,
./stim/MorphF1_04_orig.jpg,145,,,,,,,,,0,145,145,145,,,,,,,,,,,,,,,-1.7578125,-10.341796875,0,0,1,2.94876384735,,,2015_Nov_04_2015,A,facesParametric,16,59.6972371035,
./stim/MorphM5_00_orig.jpg,146,,,,,,,,,0,146,146,146,,,,,,,,,,,,,,,-1.7578125,-10.341796875,0,0,1,1.84225201607,,,2015_Nov_04_2015,A,facesParametric,16,59.6972371035,
./stim/MorphM2_02_orig.jpg,147,,,,,,,,,0,147,147,147,,,,,,,,,,,,,,,-1.7578125,-10.341796875,0,0,1,0.937403917313,,,2015_Nov_04_2015,A,facesParametric,16,59.6972371035,
./stim/MorphF8_10_orig.jpg,148,,,,,,,,,0,148,148,148,,,,,,,,,,,,,,,-1.7578125,-10.341796875,1,0,0,0.769865036011,,,2015_Nov_04_2015,A,facesParametric,16,59.6972371035,
./stim/MorphM4_09_orig.jpg,149,,,,,,,,,0,149,149,149,,,,,,,,,,,,,,,-1.7578125,-10.341796875,1,0,0,1.05269098282,,,2015_Nov_04_2015,A,facesParametric,16,59.6972371035,
./stim/MorphF5_04_orig.jpg,150,,,,,,,,,0,150,150,150,,,,,,,,,,,,,,,-1.7578125,-10.341796875,0,0,1,2.61365103722,,,2015_Nov_04_2015,A,facesParametric,16,59.6972371035,
./stim/MorphM9_07_orig.jpg,151,,,,,,,,,0,151,151,151,,,,,,,,,,,,,,,-1.7578125,-10.341796875,0,0,1,1.45699596405,,,2015_Nov_04_2015,A,facesParametric,16,59.6972371035,
./stim/MorphF1_02_orig.jpg,152,,,,,,,,,0,152,152,152,,,,,,,,,,,,,,,-1.7578125,-10.341796875,0,0,1,1.70680308342,,,2015_Nov_04_2015,A,facesParametric,16,59.6972371035,
./stim/MorphF5_07_orig.jpg,153,,,,,,,,,0,153,153,153,,,,,,,,,,,,,,,-1.7578125,-10.341796875,1,0,0,1.85929608345,,,2015_Nov_04_2015,A,facesParametric,16,59.6972371035,
./stim/MorphF7_07_orig.jpg,154,,,,,,,,,0,154,154,154,,,,,,,,,,,,,,,-1.7578125,-10.341796875,1,0,0,0.786157846451,,,2015_Nov_04_2015,A,facesParametric,16,59.6972371035,
./stim/MorphF10_06_orig.jpg,155,,,,,,,,,0,155,155,155,,,,,,,,,,,,,,,-1.7578125,-10.341796875,1,0,0,0.770122051239,,,2015_Nov_04_2015,A,facesParametric,16,59.6972371035,
./stim/MorphM1_00_orig.jpg,156,,,,,,,,,0,156,156,156,,,,,,,,,,,,,,,-1.7578125,-10.341796875,0,0,1,1.13823699951,,,2015_Nov_04_2015,A,facesParametric,16,59.6972371035,
./stim/MorphF5_05_orig.jpg,157,,,,,,,,,0,157,157,157,,,,,,,,,,,,,,,-1.7578125,-10.341796875,1,0,0,1.6725461483,,,2015_Nov_04_2015,A,facesParametric,16,59.6972371035,
./stim/MorphF8_05_orig.jpg,158,,,,,,,,,0,158,158,158,,,,,,,,,,,,,,,-1.7578125,-10.341796875,0,0,1,5.47742509842,,,2015_Nov_04_2015,A,facesParametric,16,59.6972371035,
./stim/MorphM4_04_orig.jpg,159,,,,,,,,,0,159,159,159,,,,,,,,,,,,,,,-1.7578125,-10.341796875,0,0,1,1.13879489899,,,2015_Nov_04_2015,A,facesParametric,16,59.6972371035,
./stim/MorphM6_01_orig.jpg,160,,,,,,,,,0,160,160,160,,,,,,,,,,,,,,,-1.7578125,-10.341796875,0,0,1,0.817419052124,,,2015_Nov_04_2015,A,facesParametric,16,59.6972371035,
./stim/MorphM8_06_orig.jpg,161,,,,,,,,,0,161,161,161,,,,,,,,,,,,,,,-1.7578125,-10.341796875,1,0,0,0.819828987122,,,2015_Nov_04_2015,A,facesParametric,16,59.6972371035,
./stim/MorphF1_03_orig.jpg,162,,,,,,,,,0,162,162,162,,,,,,,,,,,,,,,-1.7578125,-10.341796875,0,0,1,3.45108485222,,,2015_Nov_04_2015,A,facesParametric,16,59.6972371035,
./stim/MorphF9_06_orig.jpg,163,,,,,,,,,0,163,163,163,,,,,,,,,,,,,,,-1.7578125,-10.341796875,0,0,1,3.11625695229,,,2015_Nov_04_2015,A,facesParametric,16,59.6972371035,
./stim/MorphM6_06_orig.jpg,164,,,,,,,,,0,164,164,164,,,,,,,,,,,,,,,-1.7578125,-10.341796875,0,0,1,2.26116323471,,,2015_Nov_04_2015,A,facesParametric,16,59.6972371035,
./stim/MorphM5_09_orig.jpg,165,,,,,,,,,0,165,165,165,,,,,,,,,,,,,,,-1.7578125,-10.341796875,1,0,0,3.33385801315,,,2015_Nov_04_2015,A,facesParametric,16,59.6972371035,
./stim/MorphM10_01_orig.jpg,166,,,,,,,,,0,166,166,166,,,,,,,,,,,,,,,-1.7578125,-10.341796875,0,0,1,1.30583810806,,,2015_Nov_04_2015,A,facesParametric,16,59.6972371035,
./stim/MorphF2_10_orig.jpg,167,,,,,,,,,0,167,167,167,,,,,,,,,,,,,,,-1.7578125,-10.341796875,1,0,0,1.00409889221,,,2015_Nov_04_2015,A,facesParametric,16,59.6972371035,
./stim/MorphM2_10_orig.jpg,168,,,,,,,,,0,168,168,168,,,,,,,,,,,,,,,-1.7578125,-10.341796875,1,0,0,0.769387960434,,,2015_Nov_04_2015,A,facesParametric,16,59.6972371035,
./stim/MorphF9_00_orig.jpg,169,,,,,,,,,0,169,169,169,,,,,,,,,,,,,,,-1.7578125,-10.341796875,0,0,1,0.837687015533,,,2015_Nov_04_2015,A,facesParametric,16,59.6972371035,
./stim/MorphM9_09_orig.jpg,170,,,,,,,,,0,170,170,170,,,,,,,,,,,,,,,-1.7578125,-10.341796875,1,0,0,0.919656991959,,,2015_Nov_04_2015,A,facesParametric,16,59.6972371035,
./stim/MorphF3_09_orig.jpg,171,,,,,,,,,0,171,171,171,,,,,,,,,,,,,,,-1.7578125,-10.341796875,1,0,0,5.79720115662,,,2015_Nov_04_2015,A,facesParametric,16,59.6972371035,
./stim/MorphF4_09_orig.jpg,172,,,,,,,,,0,172,172,172,,,,,,,,,,,,,,,-1.7578125,-10.341796875,1,0,0,0.905066013336,,,2015_Nov_04_2015,A,facesParametric,16,59.6972371035,
./stim/MorphF3_03_orig.jpg,173,,,,,,,,,0,173,173,173,,,,,,,,,,,,,,,-1.7578125,-10.341796875,0,0,1,2.81367397308,,,2015_Nov_04_2015,A,facesParametric,16,59.6972371035,
./stim/MorphM7_08_orig.jpg,174,,,,,,,,,0,174,174,174,,,,,,,,,,,,,,,-1.7578125,-10.341796875,1,0,0,0.819844007492,,,2015_Nov_04_2015,A,facesParametric,16,59.6972371035,
./stim/MorphF6_00_orig.jpg,175,,,,,,,,,0,175,175,175,,,,,,,,,,,,,,,-1.7578125,-10.341796875,0,0,1,0.736345767975,,,2015_Nov_04_2015,A,facesParametric,16,59.6972371035,
./stim/MorphM8_04_orig.jpg,176,,,,,,,,,0,176,176,176,,,,,,,,,,,,,,,-1.7578125,-10.341796875,0,0,1,2.24301290512,,,2015_Nov_04_2015,A,facesParametric,16,59.6972371035,
./stim/MorphM3_04_orig.jpg,177,,,,,,,,,0,177,177,177,,,,,,,,,,,,,,,-1.7578125,-10.341796875,0,0,1,1.54066801071,,,2015_Nov_04_2015,A,facesParametric,16,59.6972371035,
./stim/MorphF2_07_orig.jpg,178,,,,,,,,,0,178,178,178,,,,,,,,,,,,,,,-1.7578125,-10.341796875,1,0,0,2.05991482735,,,2015_Nov_04_2015,A,facesParametric,16,59.6972371035,
./stim/MorphM6_07_orig.jpg,179,,,,,,,,,0,179,179,179,,,,,,,,,,,,,,,-1.7578125,-10.341796875,1,0,0,4.69119906425,,,2015_Nov_04_2015,A,facesParametric,16,59.6972371035,
./stim/MorphM4_01_orig.jpg,180,,,,,,,,,0,180,180,180,,,,,,,,,,,,,,,-1.7578125,-10.341796875,0,0,1,1.30606198311,,,2015_Nov_04_2015,A,facesParametric,16,59.6972371035,
./stim/MorphM1_09_orig.jpg,181,,,,,,,,,0,181,181,181,,,,,,,,,,,,,,,-1.7578125,-10.341796875,0,0,1,3.03220295906,,,2015_Nov_04_2015,A,facesParametric,16,59.6972371035,
./stim/MorphF10_02_orig.jpg,182,,,,,,,,,0,182,182,182,,,,,,,,,,,,,,,-1.7578125,-10.341796875,0,0,1,1.13840913773,,,2015_Nov_04_2015,A,facesParametric,16,59.6972371035,
./stim/MorphM5_10_orig.jpg,183,,,,,,,,,0,183,183,183,,,,,,,,,,,,,,,-1.7578125,-10.341796875,1,0,0,3.2334280014,,,2015_Nov_04_2015,A,facesParametric,16,59.6972371035,
./stim/MorphF5_01_orig.jpg,184,,,,,,,,,0,184,184,184,,,,,,,,,,,,,,,-1.7578125,-10.341796875,0,0,1,1.00445008278,,,2015_Nov_04_2015,A,facesParametric,16,59.6972371035,
./stim/MorphM3_05_orig.jpg,185,,,,,,,,,0,185,185,185,,,,,,,,,,,,,,,-1.7578125,-10.341796875,0,0,1,1.80862784386,,,2015_Nov_04_2015,A,facesParametric,16,59.6972371035,
./stim/MorphF10_05_orig.jpg,186,,,,,,,,,0,186,186,186,,,,,,,,,,,,,,,-1.7578125,-10.341796875,0,0,1,4.79053711891,,,2015_Nov_04_2015,A,facesParametric,16,59.6972371035,
./stim/MorphM5_05_orig.jpg,187,,,,,,,,,0,187,187,187,,,,,,,,,,,,,,,-1.7578125,-10.341796875,0,0,1,1.25654101372,,,2015_Nov_04_2015,A,facesParametric,16,59.6972371035,
./stim/MorphF8_07_orig.jpg,188,,,,,,,,,0,188,188,188,,,,,,,,,,,,,,,-1.7578125,-10.341796875,1,0,0,1.13659906387,,,2015_Nov_04_2015,A,facesParametric,16,59.6972371035,
./stim/MorphM7_02_orig.jpg,189,,,,,,,,,0,189,189,189,,,,,,,,,,,,,,,-1.7578125,-10.341796875,0,0,1,9.33380913734,,,2015_Nov_04_2015,A,facesParametric,16,59.6972371035,
./stim/MorphF5_08_orig.jpg,190,,,,,,,,,0,190,190,190,,,,,,,,,,,,,,,-1.69921875,-10.341796875,0,0,1,4.9934399128,,,2015_Nov_04_2015,A,facesParametric,16,59.6972371035,
./stim/MorphM2_03_orig.jpg,191,,,,,,,,,0,191,191,191,,,,,,,,,,,,,,,-1.69921875,-10.341796875,0,0,1,0.734127044678,,,2015_Nov_04_2015,A,facesParametric,16,59.6972371035,
./stim/MorphM10_06_orig.jpg,192,,,,,,,,,0,192,192,192,,,,,,,,,,,,,,,-1.69921875,-10.341796875,1,0,0,1.69167113304,,,2015_Nov_04_2015,A,facesParametric,16,59.6972371035,
./stim/MorphF2_04_orig.jpg,193,,,,,,,,,0,193,193,193,,,,,,,,,,,,,,,-1.69921875,-10.341796875,0,0,1,0.920465946198,,,2015_Nov_04_2015,A,facesParametric,16,59.6972371035,
./stim/MorphM8_10_orig.jpg,194,,,,,,,,,0,194,194,194,,,,,,,,,,,,,,,-1.69921875,-10.341796875,1,0,0,1.89102482796,,,2015_Nov_04_2015,A,facesParametric,16,59.6972371035,
./stim/MorphM9_05_orig.jpg,195,,,,,,,,,0,195,195,195,,,,,,,,,,,,,,,-1.69921875,-10.341796875,0,0,1,1.4741499424,,,2015_Nov_04_2015,A,facesParametric,16,59.6972371035,
./stim/MorphF5_09_orig.jpg,196,,,,,,,,,0,196,196,196,,,,,,,,,,,,,,,-1.69921875,-10.341796875,1,0,0,1.15444087982,,,2015_Nov_04_2015,A,facesParametric,16,59.6972371035,
./stim/MorphF7_04_orig.jpg,197,,,,,,,,,0,197,197,197,,,,,,,,,,,,,,,-1.69921875,-10.341796875,0,0,1,1.18893003464,,,2015_Nov_04_2015,A,facesParametric,16,59.6972371035,
./stim/MorphM3_07_orig.jpg,198,,,,,,,,,0,198,198,198,,,,,,,,,,,,,,,-1.69921875,-10.341796875,1,0,0,2.57906103134,,,2015_Nov_04_2015,A,facesParametric,16,59.6972371035,
./stim/MorphM7_00_orig.jpg,199,,,,,,,,,0,199,199,199,,,,,,,,,,,,,,,-1.69921875,-10.341796875,0,0,1,1.89131593704,,,2015_Nov_04_2015,A,facesParametric,16,59.6972371035,
./stim/MorphF7_05_orig.jpg,200,,,,,,,,,0,200,200,200,,,,,,,,,,,,,,,-1.69921875,-10.341796875,0,0,1,1.25581693649,,,2015_Nov_04_2015,A,facesParametric,16,59.6972371035,
./stim/MorphM8_02_orig.jpg,201,,,,,,,,,0,201,201,201,,,,,,,,,,,,,,,-1.69921875,-10.341796875,0,0,1,1.10506987572,,,2015_Nov_04_2015,A,facesParametric,16,59.6972371035,
./stim/MorphM3_01_orig.jpg,202,,,,,,,,,0,202,202,202,,,,,,,,,,,,,,,-1.69921875,-10.341796875,0,0,1,2.00962400436,,,2015_Nov_04_2015,A,facesParametric,16,59.6972371035,
./stim/MorphF9_03_orig.jpg,203,,,,,,,,,0,203,203,203,,,,,,,,,,,,,,,-1.69921875,-10.341796875,0,0,1,0.751585006714,,,2015_Nov_04_2015,A,facesParametric,16,59.6972371035,
./stim/MorphM7_09_orig.jpg,204,,,,,,,,,0,204,204,204,,,,,,,,,,,,,,,-1.69921875,-10.341796875,1,0,0,0.786231994629,,,2015_Nov_04_2015,A,facesParametric,16,59.6972371035,
./stim/MorphF2_05_orig.jpg,205,,,,,,,,,0,205,205,205,,,,,,,,,,,,,,,-1.69921875,-10.341796875,0,0,1,1.49030995369,,,2015_Nov_04_2015,A,facesParametric,16,59.6972371035,
./stim/MorphM3_03_orig.jpg,206,,,,,,,,,0,206,206,206,,,,,,,,,,,,,,,-1.69921875,-10.341796875,0,0,1,1.28921794891,,,2015_Nov_04_2015,A,facesParametric,16,59.6972371035,
./stim/MorphM10_05_orig.jpg,207,,,,,,,,,0,207,207,207,,,,,,,,,,,,,,,-1.69921875,-10.341796875,1,0,0,1.17191910744,,,2015_Nov_04_2015,A,facesParametric,16,59.6972371035,
./stim/MorphM8_01_orig.jpg,208,,,,,,,,,0,208,208,208,,,,,,,,,,,,,,,-1.69921875,-10.341796875,0,0,1,1.74146509171,,,2015_Nov_04_2015,A,facesParametric,16,59.6972371035,
./stim/MorphF7_06_orig.jpg,209,,,,,,,,,0,209,209,209,,,,,,,,,,,,,,,-1.69921875,-10.341796875,1,0,0,1.64028692245,,,2015_Nov_04_2015,A,facesParametric,16,59.6972371035,
./stim/MorphM3_10_orig.jpg,210,,,,,,,,,0,210,210,210,,,,,,,,,,,,,,,-1.69921875,-10.341796875,1,0,0,3.60186982155,,,2015_Nov_04_2015,A,facesParametric,16,59.6972371035,
./stim/MorphM8_07_orig.jpg,211,,,,,,,,,0,211,211,211,,,,,,,,,,,,,,,-1.69921875,-10.341796875,1,0,0,1.77522706985,,,2015_Nov_04_2015,A,facesParametric,16,59.6972371035,
./stim/MorphF6_06_orig.jpg,212,,,,,,,,,0,212,212,212,,,,,,,,,,,,,,,-1.69921875,-10.341796875,0,0,1,2.99894404411,,,2015_Nov_04_2015,A,facesParametric,16,59.6972371035,
./stim/MorphM5_03_orig.jpg,213,,,,,,,,,0,213,213,213,,,,,,,,,,,,,,,-1.69921875,-10.341796875,0,0,1,1.22240900993,,,2015_Nov_04_2015,A,facesParametric,16,59.6972371035,
./stim/MorphM2_00_orig.jpg,214,,,,,,,,,0,214,214,214,,,,,,,,,,,,,,,-1.69921875,-10.341796875,0,0,1,0.920394897461,,,2015_Nov_04_2015,A,facesParametric,16,59.6972371035,
./stim/MorphM5_08_orig.jpg,215,,,,,,,,,0,215,215,215,,,,,,,,,,,,,,,-1.69921875,-10.341796875,0,0,1,5.10947203636,,,2015_Nov_04_2015,A,facesParametric,16,59.6972371035,
./stim/MorphM8_03_orig.jpg,216,,,,,,,,,0,216,216,216,,,,,,,,,,,,,,,-1.69921875,-10.341796875,0,0,1,4.12171578407,,,2015_Nov_04_2015,A,facesParametric,16,59.6972371035,
./stim/MorphF4_04_orig.jpg,217,,,,,,,,,0,217,217,217,,,,,,,,,,,,,,,-1.69921875,-10.341796875,0,0,1,1.32293200493,,,2015_Nov_04_2015,A,facesParametric,16,59.6972371035,
./stim/MorphF9_01_orig.jpg,218,,,,,,,,,0,218,218,218,,,,,,,,,,,,,,,-1.69921875,-10.341796875,0,0,1,0.903823852539,,,2015_Nov_04_2015,A,facesParametric,16,59.6972371035,
./stim/MorphM8_05_orig.jpg,219,,,,,,,,,0,219,219,219,,,,,,,,,,,,,,,-1.69921875,-10.341796875,1,0,0,0.701595067978,,,2015_Nov_04_2015,A,facesParametric,16,59.6972371035,
