img,num,basicLoop.thisRepN,basicLoop.thisTrialN,basicLoop.thisN,basicLoop.thisIndex,trials.thisRepN,trials.thisTrialN,trials.thisN,trials.thisIndex,trials2.thisRepN,trials2.thisTrialN,trials2.thisN,trials2.thisIndex,key_resp_2.keys,key_resp_2.rt,basicRating1.response,basicRating1.rt,basicRating2.response,basicRating2.rt,basicRating3.response,basicRating3.rt,basicRating4.response,basicRating4.rt,key_resp_3.keys,key_resp_3.rt,key_resp_4.keys,key_resp_4.rt,mouseResp.x,mouseResp.y,mouseResp.leftButton,mouseResp.midButton,mouseResp.rightButton,mouseResp.time,key_resp_5.keys,key_resp_5.rt,key_resp_7.keys,key_resp_7.rt,date,group,expName,participant,frameRate,
,,,,,,,,,,,,,,return,55.1319820881,,,,,,,,,,,,,,,,,,,,,,,2015_Oct_20_1435,G,facesParametric,17,59.6968972388,
./basicStim/21M_SA_C.jpg,,0,0,0,46,,,,,,,,,,,SAD,6.477,None,None,None,None,None,None,,,,,,,,,,,,,,,2015_Oct_20_1435,G,facesParametric,17,59.6968972388,
./basicStim/01F_SA_C.jpg,,0,1,1,4,,,,,,,,,,,SAD,5.281,None,None,None,None,None,None,,,,,,,,,,,,,,,2015_Oct_20_1435,G,facesParametric,17,59.6968972388,
./basicStim/02F_DI_O.jpg,,0,2,2,8,,,,,,,,,,,None,None,None,None,DIS,4.399,None,None,,,,,,,,,,,,,,,2015_Oct_20_1435,G,facesParametric,17,59.6968972388,
./basicStim/06F_SP_O.jpg,,0,3,3,26,,,,,,,,,,,None,None,None,None,SUP,1.879,None,None,,,,,,,,,,,,,,,2015_Oct_20_1435,G,facesParametric,17,59.6968972388,
./basicStim/34M_NE_C.jpg,,0,4,4,76,,,,,,,,,,,None,None,None,None,None,None,NTR,2.317,,,,,,,,,,,,,,,2015_Oct_20_1435,G,facesParametric,17,59.6968972388,
./basicStim/28M_FE_O.jpg,,0,5,5,65,,,,,,,,,,,None,None,FEA,3.556,None,None,None,None,,,,,,,,,,,,,,,2015_Oct_20_1435,G,facesParametric,17,59.6968972388,
./basicStim/06F_SA_C.jpg,,0,6,6,25,,,,,,,,,,,None,None,None,None,SUP,4.092,None,None,,,,,,,,,,,,,,,2015_Oct_20_1435,G,facesParametric,17,59.6968972388,
./basicStim/01F_FE_O.jpg,,0,7,7,2,,,,,,,,,,,None,None,FEA,3.862,None,None,None,None,,,,,,,,,,,,,,,2015_Oct_20_1435,G,facesParametric,17,59.6968972388,
./basicStim/21M_AN_O.jpg,,0,8,8,42,,,,,,,,,,,None,None,ANG,3.289,None,None,None,None,,,,,,,,,,,,,,,2015_Oct_20_1435,G,facesParametric,17,59.6968972388,
./basicStim/28M_DI_O.jpg,,0,9,9,64,,,,,,,,,,,None,None,None,None,DIS,1.811,None,None,,,,,,,,,,,,,,,2015_Oct_20_1435,G,facesParametric,17,59.6968972388,
./basicStim/34M_SP_O.jpg,,0,10,10,75,,,,,,,,,,,None,None,None,None,SUP,2.786,None,None,,,,,,,,,,,,,,,2015_Oct_20_1435,G,facesParametric,17,59.6968972388,
./basicStim/23M_SP_O.jpg,,0,11,11,54,,,,,,,,,,,None,None,None,None,SUP,3.81,None,None,,,,,,,,,,,,,,,2015_Oct_20_1435,G,facesParametric,17,59.6968972388,
./basicStim/36M_FE_O.jpg,,0,12,12,79,,,,,,,,,,,SAD,2.221,None,None,None,None,None,None,,,,,,,,,,,,,,,2015_Oct_20_1435,G,facesParametric,17,59.6968972388,
./basicStim/07F_HA_O.jpg,,0,13,13,31,,,,,,,,,,,HAP,1.967,None,None,None,None,None,None,,,,,,,,,,,,,,,2015_Oct_20_1435,G,facesParametric,17,59.6968972388,
./basicStim/34M_DI_O.jpg,,0,14,14,71,,,,,,,,,,,None,None,None,None,DIS,2.707,None,None,,,,,,,,,,,,,,,2015_Oct_20_1435,G,facesParametric,17,59.6968972388,
./basicStim/28M_AN_O.jpg,,0,15,15,63,,,,,,,,,,,None,None,ANG,3.557,None,None,None,None,,,,,,,,,,,,,,,2015_Oct_20_1435,G,facesParametric,17,59.6968972388,
./basicStim/09F_SP_O.jpg,,0,16,16,40,,,,,,,,,,,None,None,None,None,SUP,3.541,None,None,,,,,,,,,,,,,,,2015_Oct_20_1435,G,facesParametric,17,59.6968972388,
./basicStim/01F_AN_O.jpg,,0,17,17,0,,,,,,,,,,,None,None,ANG,1.884,None,None,None,None,,,,,,,,,,,,,,,2015_Oct_20_1435,G,facesParametric,17,59.6968972388,
./basicStim/24M_HA_O.jpg,,0,18,18,59,,,,,,,,,,,HAP,1.598,None,None,None,None,None,None,,,,,,,,,,,,,,,2015_Oct_20_1435,G,facesParametric,17,59.6968972388,
./basicStim/07F_SP_O.jpg,,0,19,19,33,,,,,,,,,,,None,None,None,None,SUP,1.528,None,None,,,,,,,,,,,,,,,2015_Oct_20_1435,G,facesParametric,17,59.6968972388,
./basicStim/28M_SA_C.jpg,,0,20,20,67,,,,,,,,,,,SAD,2.242,None,None,None,None,None,None,,,,,,,,,,,,,,,2015_Oct_20_1435,G,facesParametric,17,59.6968972388,
./basicStim/21M_FE_O.jpg,,0,21,21,44,,,,,,,,,,,None,None,None,None,SUP,3.923,None,None,,,,,,,,,,,,,,,2015_Oct_20_1435,G,facesParametric,17,59.6968972388,
./basicStim/03F_HA_O.jpg,,0,22,22,17,,,,,,,,,,,HAP,1.097,None,None,None,None,None,None,,,,,,,,,,,,,,,2015_Oct_20_1435,G,facesParametric,17,59.6968972388,
./basicStim/06F_NE_C.jpg,,0,23,23,27,,,,,,,,,,,None,None,None,None,None,None,NTR,1.367,,,,,,,,,,,,,,,2015_Oct_20_1435,G,facesParametric,17,59.6968972388,
./basicStim/06F_FE_O.jpg,,0,24,24,23,,,,,,,,,,,None,None,FEA,4.43,None,None,None,None,,,,,,,,,,,,,,,2015_Oct_20_1435,G,facesParametric,17,59.6968972388,
./basicStim/36M_SP_O.jpg,,0,25,25,82,,,,,,,,,,,None,None,None,None,SUP,2.328,None,None,,,,,,,,,,,,,,,2015_Oct_20_1435,G,facesParametric,17,59.6968972388,
./basicStim/01F_DI_O.jpg,,0,26,26,1,,,,,,,,,,,None,None,None,None,DIS,1.617,None,None,,,,,,,,,,,,,,,2015_Oct_20_1435,G,facesParametric,17,59.6968972388,
./basicStim/02F_HA_O.jpg,,0,27,27,10,,,,,,,,,,,HAP,1.211,None,None,None,None,None,None,,,,,,,,,,,,,,,2015_Oct_20_1435,G,facesParametric,17,59.6968972388,
./basicStim/02F_NE_C.jpg,,0,28,28,13,,,,,,,,,,,None,None,None,None,None,None,NTR,0.876,,,,,,,,,,,,,,,2015_Oct_20_1435,G,facesParametric,17,59.6968972388,
./basicStim/21M_NE_C.jpg,,0,29,29,48,,,,,,,,,,,None,None,None,None,None,None,NTR,1.041,,,,,,,,,,,,,,,2015_Oct_20_1435,G,facesParametric,17,59.6968972388,
./basicStim/09F_SA_C.jpg,,0,30,30,39,,,,,,,,,,,SAD,2.571,None,None,None,None,None,None,,,,,,,,,,,,,,,2015_Oct_20_1435,G,facesParametric,17,59.6968972388,
./basicStim/34M_AN_O.jpg,,0,31,31,70,,,,,,,,,,,None,None,ANG,1.542,None,None,None,None,,,,,,,,,,,,,,,2015_Oct_20_1435,G,facesParametric,17,59.6968972388,
./basicStim/03F_DI_O.jpg,,0,32,32,15,,,,,,,,,,,None,None,None,None,DIS,1.441,None,None,,,,,,,,,,,,,,,2015_Oct_20_1435,G,facesParametric,17,59.6968972388,
./basicStim/03F_NE_C.jpg,,0,33,33,20,,,,,,,,,,,None,None,None,None,None,None,NTR,1.26,,,,,,,,,,,,,,,2015_Oct_20_1435,G,facesParametric,17,59.6968972388,
./basicStim/07F_AN_O.jpg,,0,34,34,28,,,,,,,,,,,None,None,ANG,5.384,None,None,None,None,,,,,,,,,,,,,,,2015_Oct_20_1435,G,facesParametric,17,59.6968972388,
./basicStim/03F_SP_O.jpg,,0,35,35,19,,,,,,,,,,,None,None,None,None,None,None,dummy,3.119,,,,,,,,,,,,,,,2015_Oct_20_1435,G,facesParametric,17,59.6968972388,
./basicStim/09F_HA_O.jpg,,0,36,36,38,,,,,,,,,,,HAP,1.615,None,None,None,None,None,None,,,,,,,,,,,,,,,2015_Oct_20_1435,G,facesParametric,17,59.6968972388,
./basicStim/03F_AN_O.jpg,,0,37,37,14,,,,,,,,,,,None,None,ANG,5.403,None,None,None,None,,,,,,,,,,,,,,,2015_Oct_20_1435,G,facesParametric,17,59.6968972388,
./basicStim/24M_FE_O.jpg,,0,38,38,58,,,,,,,,,,,None,None,None,None,SUP,3.839,None,None,,,,,,,,,,,,,,,2015_Oct_20_1435,G,facesParametric,17,59.6968972388,
./basicStim/24M_SP_O.jpg,,0,39,39,61,,,,,,,,,,,SAD,4.096,None,None,None,None,None,None,,,,,,,,,,,,,,,2015_Oct_20_1435,G,facesParametric,17,59.6968972388,
./basicStim/09F_DI_O.jpg,,0,40,40,36,,,,,,,,,,,None,None,None,None,DIS,2.113,None,None,,,,,,,,,,,,,,,2015_Oct_20_1435,G,facesParametric,17,59.6968972388,
./basicStim/07F_NE_C.jpg,,0,41,41,34,,,,,,,,,,,None,None,None,None,None,None,NTR,1.423,,,,,,,,,,,,,,,2015_Oct_20_1435,G,facesParametric,17,59.6968972388,
./basicStim/34M_SA_C.jpg,,0,42,42,74,,,,,,,,,,,SAD,3.476,None,None,None,None,None,None,,,,,,,,,,,,,,,2015_Oct_20_1435,G,facesParametric,17,59.6968972388,
./basicStim/23M_FE_O.jpg,,0,43,43,51,,,,,,,,,,,None,None,None,None,SUP,1.966,None,None,,,,,,,,,,,,,,,2015_Oct_20_1435,G,facesParametric,17,59.6968972388,
./basicStim/36M_SA_C.jpg,,0,44,44,81,,,,,,,,,,,SAD,0.911,None,None,None,None,None,None,,,,,,,,,,,,,,,2015_Oct_20_1435,G,facesParametric,17,59.6968972388,
./basicStim/02F_SP_O.jpg,,0,45,45,12,,,,,,,,,,,None,None,None,None,SUP,4.178,None,None,,,,,,,,,,,,,,,2015_Oct_20_1435,G,facesParametric,17,59.6968972388,
./basicStim/36M_DI_O.jpg,,0,46,46,78,,,,,,,,,,,None,None,None,None,DIS,3.586,None,None,,,,,,,,,,,,,,,2015_Oct_20_1435,G,facesParametric,17,59.6968972388,
./basicStim/09F_FE_O.jpg,,0,47,47,37,,,,,,,,,,,None,None,FEA,6.657,None,None,None,None,,,,,,,,,,,,,,,2015_Oct_20_1435,G,facesParametric,17,59.6968972388,
./basicStim/09F_NE_C.jpg,,0,48,48,41,,,,,,,,,,,None,None,None,None,None,None,NTR,1.378,,,,,,,,,,,,,,,2015_Oct_20_1435,G,facesParametric,17,59.6968972388,
./basicStim/24M_SA_C.jpg,,0,49,49,60,,,,,,,,,,,SAD,5.418,None,None,None,None,None,None,,,,,,,,,,,,,,,2015_Oct_20_1435,G,facesParametric,17,59.6968972388,
./basicStim/34M_FE_O.jpg,,0,50,50,72,,,,,,,,,,,None,None,FEA,3.506,None,None,None,None,,,,,,,,,,,,,,,2015_Oct_20_1435,G,facesParametric,17,59.6968972388,
./basicStim/07F_FE_O.jpg,,0,51,51,30,,,,,,,,,,,None,None,FEA,1.652,None,None,None,None,,,,,,,,,,,,,,,2015_Oct_20_1435,G,facesParametric,17,59.6968972388,
./basicStim/09F_AN_O.jpg,,0,52,52,35,,,,,,,,,,,None,None,ANG,1.65,None,None,None,None,,,,,,,,,,,,,,,2015_Oct_20_1435,G,facesParametric,17,59.6968972388,
./basicStim/02F_FE_O.jpg,,0,53,53,9,,,,,,,,,,,None,None,FEA,2.317,None,None,None,None,,,,,,,,,,,,,,,2015_Oct_20_1435,G,facesParametric,17,59.6968972388,
./basicStim/03F_FE_O.jpg,,0,54,54,16,,,,,,,,,,,None,None,FEA,0.644,None,None,None,None,,,,,,,,,,,,,,,2015_Oct_20_1435,G,facesParametric,17,59.6968972388,
./basicStim/06F_DI_O.jpg,,0,55,55,22,,,,,,,,,,,None,None,None,None,DIS,1.933,None,None,,,,,,,,,,,,,,,2015_Oct_20_1435,G,facesParametric,17,59.6968972388,
./basicStim/28M_HA_O.jpg,,0,56,56,66,,,,,,,,,,,HAP,1.8,None,None,None,None,None,None,,,,,,,,,,,,,,,2015_Oct_20_1435,G,facesParametric,17,59.6968972388,
./basicStim/06F_AN_O.jpg,,0,57,57,21,,,,,,,,,,,None,None,ANG,3.776,None,None,None,None,,,,,,,,,,,,,,,2015_Oct_20_1435,G,facesParametric,17,59.6968972388,
./basicStim/24M_AN_O.jpg,,0,58,58,56,,,,,,,,,,,None,None,ANG,3.958,None,None,None,None,,,,,,,,,,,,,,,2015_Oct_20_1435,G,facesParametric,17,59.6968972388,
./basicStim/02F_AN_O.jpg,,0,59,59,7,,,,,,,,,,,None,None,ANG,0.556,None,None,None,None,,,,,,,,,,,,,,,2015_Oct_20_1435,G,facesParametric,17,59.6968972388,
./basicStim/36M_NE_C.jpg,,0,60,60,83,,,,,,,,,,,None,None,None,None,None,None,NTR,1.789,,,,,,,,,,,,,,,2015_Oct_20_1435,G,facesParametric,17,59.6968972388,
./basicStim/23M_NE_C.jpg,,0,61,61,55,,,,,,,,,,,None,None,None,None,None,None,NTR,0.753,,,,,,,,,,,,,,,2015_Oct_20_1435,G,facesParametric,17,59.6968972388,
./basicStim/23M_SA_C.jpg,,0,62,62,53,,,,,,,,,,,SAD,2.201,None,None,None,None,None,None,,,,,,,,,,,,,,,2015_Oct_20_1435,G,facesParametric,17,59.6968972388,
./basicStim/28M_SP_O.jpg,,0,63,63,68,,,,,,,,,,,None,None,None,None,SUP,5.87,None,None,,,,,,,,,,,,,,,2015_Oct_20_1435,G,facesParametric,17,59.6968972388,
./basicStim/24M_NE_C.jpg,,0,64,64,62,,,,,,,,,,,None,None,None,None,None,None,NTR,1.729,,,,,,,,,,,,,,,2015_Oct_20_1435,G,facesParametric,17,59.6968972388,
./basicStim/36M_HA_O.jpg,,0,65,65,80,,,,,,,,,,,HAP,1.8,None,None,None,None,None,None,,,,,,,,,,,,,,,2015_Oct_20_1435,G,facesParametric,17,59.6968972388,
./basicStim/01F_NE_C.jpg,,0,66,66,6,,,,,,,,,,,None,None,None,None,None,None,NTR,1.928,,,,,,,,,,,,,,,2015_Oct_20_1435,G,facesParametric,17,59.6968972388,
./basicStim/07F_DI_O.jpg,,0,67,67,29,,,,,,,,,,,None,None,None,None,DIS,1.546,None,None,,,,,,,,,,,,,,,2015_Oct_20_1435,G,facesParametric,17,59.6968972388,
./basicStim/28M_NE_C.jpg,,0,68,68,69,,,,,,,,,,,None,None,None,None,None,None,NTR,0.877,,,,,,,,,,,,,,,2015_Oct_20_1435,G,facesParametric,17,59.6968972388,
./basicStim/24M_DI_O.jpg,,0,69,69,57,,,,,,,,,,,SAD,1.866,None,None,None,None,None,None,,,,,,,,,,,,,,,2015_Oct_20_1435,G,facesParametric,17,59.6968972388,
./basicStim/36M_AN_O.jpg,,0,70,70,77,,,,,,,,,,,None,None,ANG,1.144,None,None,None,None,,,,,,,,,,,,,,,2015_Oct_20_1435,G,facesParametric,17,59.6968972388,
./basicStim/01F_HA_O.jpg,,0,71,71,3,,,,,,,,,,,HAP,1.398,None,None,None,None,None,None,,,,,,,,,,,,,,,2015_Oct_20_1435,G,facesParametric,17,59.6968972388,
./basicStim/23M_AN_O.jpg,,0,72,72,49,,,,,,,,,,,None,None,ANG,1.63,None,None,None,None,,,,,,,,,,,,,,,2015_Oct_20_1435,G,facesParametric,17,59.6968972388,
./basicStim/23M_DI_O.jpg,,0,73,73,50,,,,,,,,,,,SAD,1.933,None,None,None,None,None,None,,,,,,,,,,,,,,,2015_Oct_20_1435,G,facesParametric,17,59.6968972388,
./basicStim/23M_HA_O.jpg,,0,74,74,52,,,,,,,,,,,HAP,1.06,None,None,None,None,None,None,,,,,,,,,,,,,,,2015_Oct_20_1435,G,facesParametric,17,59.6968972388,
./basicStim/03F_SA_C.jpg,,0,75,75,18,,,,,,,,,,,SAD,4.318,None,None,None,None,None,None,,,,,,,,,,,,,,,2015_Oct_20_1435,G,facesParametric,17,59.6968972388,
./basicStim/21M_SP_O.jpg,,0,76,76,47,,,,,,,,,,,None,None,None,None,SUP,1.039,None,None,,,,,,,,,,,,,,,2015_Oct_20_1435,G,facesParametric,17,59.6968972388,
./basicStim/34M_HA_O.jpg,,0,77,77,73,,,,,,,,,,,HAP,1.129,None,None,None,None,None,None,,,,,,,,,,,,,,,2015_Oct_20_1435,G,facesParametric,17,59.6968972388,
./basicStim/01F_SP_O.jpg,,0,78,78,5,,,,,,,,,,,None,None,None,None,SUP,2.684,None,None,,,,,,,,,,,,,,,2015_Oct_20_1435,G,facesParametric,17,59.6968972388,
./basicStim/02F_SA_C.jpg,,0,79,79,11,,,,,,,,,,,SAD,1.967,None,None,None,None,None,None,,,,,,,,,,,,,,,2015_Oct_20_1435,G,facesParametric,17,59.6968972388,
./basicStim/06F_HA_O.jpg,,0,80,80,24,,,,,,,,,,,HAP,2.453,None,None,None,None,None,None,,,,,,,,,,,,,,,2015_Oct_20_1435,G,facesParametric,17,59.6968972388,
./basicStim/21M_HA_O.jpg,,0,81,81,45,,,,,,,,,,,HAP,0.811,None,None,None,None,None,None,,,,,,,,,,,,,,,2015_Oct_20_1435,G,facesParametric,17,59.6968972388,
./basicStim/07F_SA_C.jpg,,0,82,82,32,,,,,,,,,,,SAD,2.57,None,None,None,None,None,None,,,,,,,,,,,,,,,2015_Oct_20_1435,G,facesParametric,17,59.6968972388,
./basicStim/21M_DI_O.jpg,,0,83,83,43,,,,,,,,,,,None,None,None,None,DIS,1.142,None,None,,,,,,,,,,,,,,,2015_Oct_20_1435,G,facesParametric,17,59.6968972388,
,,,,,,,,,,,,,,,,,,,,,,,,return,22.9606809616,,,,,,,,,,,,,2015_Oct_20_1435,G,facesParametric,17,59.6968972388,
,,,,,,,,,,,,,,return,0.971886873245,,,,,,,,,,,,,,,,,,,,,,,2015_Oct_20_1435,G,facesParametric,17,59.6968972388,
,,,,,,,,,,,,,,,,,,,,,,,,return,58.6586539745,,,,,,,,,,,,,2015_Oct_20_1435,G,facesParametric,17,59.6968972388,
,,,,,,,,,,,,,,,,,,,,,,,,,,return,1.17298412323,,,,,,,,,,,2015_Oct_20_1435,G,facesParametric,17,59.6968972388,
./stim/MorphM2_06_orig.jpg,0,,,,,0,0,0,0,,,,,,,,,,,,,,,,,,,-6.03515625,12.861328125,1,0,0,7.33201694489,,,,,2015_Oct_20_1435,G,facesParametric,17,59.6968972388,
./stim/MorphF9_02_orig.jpg,1,,,,,0,1,1,1,,,,,,,,,,,,,,,,,,,-6.4453125,13.18359375,1,0,0,2.84738707542,,,,,2015_Oct_20_1435,G,facesParametric,17,59.6968972388,
./stim/MorphF6_01_orig.jpg,2,,,,,0,2,2,2,,,,,,,,,,,,,,,,,,,-6.181640625,13.18359375,1,0,0,3.66900801659,,,,,2015_Oct_20_1435,G,facesParametric,17,59.6968972388,
./stim/MorphM8_06_orig.jpg,3,,,,,0,3,3,3,,,,,,,,,,,,,,,,,,,-6.15234375,13.18359375,0,0,1,1.15535306931,,,,,2015_Oct_20_1435,G,facesParametric,17,59.6968972388,
./stim/MorphF5_00_orig.jpg,4,,,,,0,4,4,4,,,,,,,,,,,,,,,,,,,-6.15234375,13.18359375,1,0,0,1.75828814507,,,,,2015_Oct_20_1435,G,facesParametric,17,59.6968972388,
./stim/MorphM9_01_orig.jpg,5,,,,,0,5,5,5,,,,,,,,,,,,,,,,,,,-6.15234375,13.18359375,1,0,0,1.12213301659,,,,,2015_Oct_20_1435,G,facesParametric,17,59.6968972388,
./stim/MorphF8_03_orig.jpg,6,,,,,0,6,6,6,,,,,,,,,,,,,,,,,,,-6.15234375,13.18359375,1,0,0,4.08670115471,,,,,2015_Oct_20_1435,G,facesParametric,17,59.6968972388,
./stim/MorphF9_01_orig.jpg,7,,,,,0,7,7,7,,,,,,,,,,,,,,,,,,,-6.15234375,13.18359375,1,0,0,2.14400696754,,,,,2015_Oct_20_1435,G,facesParametric,17,59.6968972388,
./stim/MorphM7_04_orig.jpg,8,,,,,0,8,8,8,,,,,,,,,,,,,,,,,,,-6.15234375,13.18359375,0,0,1,0.836753129959,,,,,2015_Oct_20_1435,G,facesParametric,17,59.6968972388,
./stim/MorphF4_03_orig.jpg,9,,,,,0,9,9,9,,,,,,,,,,,,,,,,,,,-6.15234375,13.18359375,0,0,1,1.2389318943,,,,,2015_Oct_20_1435,G,facesParametric,17,59.6968972388,
./stim/MorphF3_07_orig.jpg,10,,,,,0,10,10,10,,,,,,,,,,,,,,,,,,,-6.15234375,13.18359375,0,0,1,0.736320018768,,,,,2015_Oct_20_1435,G,facesParametric,17,59.6968972388,
./stim/MorphF4_05_orig.jpg,11,,,,,0,11,11,11,,,,,,,,,,,,,,,,,,,-6.123046875,13.18359375,0,0,1,4.03742599487,,,,,2015_Oct_20_1435,G,facesParametric,17,59.6968972388,
./stim/MorphM4_05_orig.jpg,12,,,,,0,12,12,12,,,,,,,,,,,,,,,,,,,-6.123046875,13.18359375,0,0,1,0.752838134766,,,,,2015_Oct_20_1435,G,facesParametric,17,59.6968972388,
./stim/MorphF2_08_orig.jpg,13,,,,,0,13,13,13,,,,,,,,,,,,,,,,,,,-6.2109375,13.154296875,0,0,1,0.853234052658,,,,,2015_Oct_20_1435,G,facesParametric,17,59.6968972388,
./stim/MorphM10_03_orig.jpg,14,,,,,0,14,14,14,,,,,,,,,,,,,,,,,,,-6.240234375,13.154296875,0,0,1,0.601948976517,,,,,2015_Oct_20_1435,G,facesParametric,17,59.6968972388,
./stim/MorphM8_00_orig.jpg,15,,,,,0,15,15,15,,,,,,,,,,,,,,,,,,,-6.26953125,13.125,1,0,0,1.27221417427,,,,,2015_Oct_20_1435,G,facesParametric,17,59.6968972388,
./stim/MorphM9_02_orig.jpg,16,,,,,0,16,16,16,,,,,,,,,,,,,,,,,,,-6.26953125,13.125,1,0,0,1.40632915497,,,,,2015_Oct_20_1435,G,facesParametric,17,59.6968972388,
./stim/MorphF4_01_orig.jpg,17,,,,,0,17,17,17,,,,,,,,,,,,,,,,,,,-6.26953125,13.125,0,0,1,2.02704405785,,,,,2015_Oct_20_1435,G,facesParametric,17,59.6968972388,
./stim/MorphF10_04_orig.jpg,18,,,,,0,18,18,18,,,,,,,,,,,,,,,,,,,-6.26953125,13.125,0,0,1,1.02047204971,,,,,2015_Oct_20_1435,G,facesParametric,17,59.6968972388,
./stim/MorphF3_05_orig.jpg,19,,,,,0,19,19,19,,,,,,,,,,,,,,,,,,,-6.26953125,13.125,1,0,0,7.95951700211,,,,,2015_Oct_20_1435,G,facesParametric,17,59.6968972388,
./stim/MorphM7_06_orig.jpg,20,,,,,0,20,20,20,,,,,,,,,,,,,,,,,,,-6.26953125,13.125,0,0,1,0.685768127441,,,,,2015_Oct_20_1435,G,facesParametric,17,59.6968972388,
./stim/MorphM1_10_orig.jpg,21,,,,,0,21,21,21,,,,,,,,,,,,,,,,,,,-6.26953125,13.125,0,0,1,0.651648044586,,,,,2015_Oct_20_1435,G,facesParametric,17,59.6968972388,
./stim/MorphF7_07_orig.jpg,22,,,,,0,22,22,22,,,,,,,,,,,,,,,,,,,-6.26953125,13.125,0,0,1,0.769973039627,,,,,2015_Oct_20_1435,G,facesParametric,17,59.6968972388,
./stim/MorphM7_00_orig.jpg,23,,,,,0,23,23,23,,,,,,,,,,,,,,,,,,,-6.26953125,13.125,1,0,0,1.50666379929,,,,,2015_Oct_20_1435,G,facesParametric,17,59.6968972388,
./stim/MorphM8_02_orig.jpg,24,,,,,0,24,24,24,,,,,,,,,,,,,,,,,,,-6.26953125,13.125,0,0,1,0.785961866379,,,,,2015_Oct_20_1435,G,facesParametric,17,59.6968972388,
./stim/MorphF7_09_orig.jpg,25,,,,,0,25,25,25,,,,,,,,,,,,,,,,,,,-6.26953125,13.125,0,0,1,0.552057027817,,,,,2015_Oct_20_1435,G,facesParametric,17,59.6968972388,
./stim/MorphM1_01_orig.jpg,26,,,,,0,26,26,26,,,,,,,,,,,,,,,,,,,-6.26953125,13.125,1,0,0,1.10495686531,,,,,2015_Oct_20_1435,G,facesParametric,17,59.6968972388,
./stim/MorphF8_07_orig.jpg,27,,,,,0,27,27,27,,,,,,,,,,,,,,,,,,,-6.26953125,13.125,0,0,1,1.3903169632,,,,,2015_Oct_20_1435,G,facesParametric,17,59.6968972388,
./stim/MorphM1_08_orig.jpg,28,,,,,0,28,28,28,,,,,,,,,,,,,,,,,,,-6.26953125,13.125,1,0,0,8.74672293663,,,,,2015_Oct_20_1435,G,facesParametric,17,59.6968972388,
./stim/MorphF8_02_orig.jpg,29,,,,,0,29,29,29,,,,,,,,,,,,,,,,,,,-6.26953125,13.125,0,0,1,0.819895982742,,,,,2015_Oct_20_1435,G,facesParametric,17,59.6968972388,
./stim/MorphF7_00_orig.jpg,30,,,,,0,30,30,30,,,,,,,,,,,,,,,,,,,-6.26953125,13.125,0,0,1,0.653020858765,,,,,2015_Oct_20_1435,G,facesParametric,17,59.6968972388,
./stim/MorphF4_08_orig.jpg,31,,,,,0,31,31,31,,,,,,,,,,,,,,,,,,,-6.26953125,13.125,0,0,1,1.02036714554,,,,,2015_Oct_20_1435,G,facesParametric,17,59.6968972388,
./stim/MorphM10_00_orig.jpg,32,,,,,0,32,32,32,,,,,,,,,,,,,,,,,,,-6.26953125,13.125,0,0,1,0.719447135925,,,,,2015_Oct_20_1435,G,facesParametric,17,59.6968972388,
./stim/MorphM4_01_orig.jpg,33,,,,,0,33,33,33,,,,,,,,,,,,,,,,,,,-6.26953125,13.125,1,0,0,1.05433893204,,,,,2015_Oct_20_1435,G,facesParametric,17,59.6968972388,
./stim/MorphF9_00_orig.jpg,34,,,,,0,34,34,34,,,,,,,,,,,,,,,,,,,-6.26953125,13.125,1,0,0,1.00437903404,,,,,2015_Oct_20_1435,G,facesParametric,17,59.6968972388,
./stim/MorphM7_03_orig.jpg,35,,,,,0,35,35,35,,,,,,,,,,,,,,,,,,,-6.26953125,13.125,1,0,0,1.52176499367,,,,,2015_Oct_20_1435,G,facesParametric,17,59.6968972388,
./stim/MorphM4_04_orig.jpg,36,,,,,0,36,36,36,,,,,,,,,,,,,,,,,,,-6.26953125,13.125,0,0,1,2.52926206589,,,,,2015_Oct_20_1435,G,facesParametric,17,59.6968972388,
./stim/MorphF4_10_orig.jpg,37,,,,,0,37,37,37,,,,,,,,,,,,,,,,,,,-6.26953125,13.125,0,0,1,0.684288024902,,,,,2015_Oct_20_1435,G,facesParametric,17,59.6968972388,
./stim/MorphF1_04_orig.jpg,38,,,,,0,38,38,38,,,,,,,,,,,,,,,,,,,-6.26953125,13.125,1,0,0,1.20560288429,,,,,2015_Oct_20_1435,G,facesParametric,17,59.6968972388,
./stim/MorphM5_05_orig.jpg,39,,,,,0,39,39,39,,,,,,,,,,,,,,,,,,,-6.26953125,13.125,0,0,1,3.31721901894,,,,,2015_Oct_20_1435,G,facesParametric,17,59.6968972388,
./stim/MorphM9_05_orig.jpg,40,,,,,0,40,40,40,,,,,,,,,,,,,,,,,,,-6.26953125,13.125,0,0,1,2.36185193062,,,,,2015_Oct_20_1435,G,facesParametric,17,59.6968972388,
./stim/MorphM6_00_orig.jpg,41,,,,,0,41,41,41,,,,,,,,,,,,,,,,,,,-6.26953125,13.18359375,1,0,0,3.09727287292,,,,,2015_Oct_20_1435,G,facesParametric,17,59.6968972388,
./stim/MorphM1_04_orig.jpg,42,,,,,0,42,42,42,,,,,,,,,,,,,,,,,,,-6.240234375,13.18359375,1,0,0,0.936578035355,,,,,2015_Oct_20_1435,G,facesParametric,17,59.6968972388,
./stim/MorphF8_04_orig.jpg,43,,,,,0,43,43,43,,,,,,,,,,,,,,,,,,,-6.240234375,13.18359375,0,0,1,0.886996030807,,,,,2015_Oct_20_1435,G,facesParametric,17,59.6968972388,
./stim/MorphM8_10_orig.jpg,44,,,,,0,44,44,44,,,,,,,,,,,,,,,,,,,-6.240234375,13.18359375,0,0,1,1.12093400955,,,,,2015_Oct_20_1435,G,facesParametric,17,59.6968972388,
./stim/MorphM4_06_orig.jpg,45,,,,,0,45,45,45,,,,,,,,,,,,,,,,,,,-6.240234375,13.18359375,0,0,1,0.887082099915,,,,,2015_Oct_20_1435,G,facesParametric,17,59.6968972388,
./stim/MorphM6_03_orig.jpg,46,,,,,0,46,46,46,,,,,,,,,,,,,,,,,,,-6.240234375,13.18359375,1,0,0,1.13808989525,,,,,2015_Oct_20_1435,G,facesParametric,17,59.6968972388,
./stim/MorphM5_04_orig.jpg,47,,,,,0,47,47,47,,,,,,,,,,,,,,,,,,,-6.2109375,13.18359375,1,0,0,3.66876888275,,,,,2015_Oct_20_1435,G,facesParametric,17,59.6968972388,
./stim/MorphF4_00_orig.jpg,48,,,,,0,48,48,48,,,,,,,,,,,,,,,,,,,-6.181640625,13.18359375,1,0,0,0.768620014191,,,,,2015_Oct_20_1435,G,facesParametric,17,59.6968972388,
./stim/MorphF3_01_orig.jpg,49,,,,,0,49,49,49,,,,,,,,,,,,,,,,,,,-6.181640625,13.18359375,1,0,0,0.636076927185,,,,,2015_Oct_20_1435,G,facesParametric,17,59.6968972388,
./stim/MorphF10_01_orig.jpg,50,,,,,0,50,50,50,,,,,,,,,,,,,,,,,,,-6.181640625,13.18359375,1,0,0,1.95887994766,,,,,2015_Oct_20_1435,G,facesParametric,17,59.6968972388,
./stim/MorphM10_01_orig.jpg,51,,,,,0,51,51,51,,,,,,,,,,,,,,,,,,,-6.181640625,13.18359375,1,0,0,1.23886919022,,,,,2015_Oct_20_1435,G,facesParametric,17,59.6968972388,
./stim/MorphF1_02_orig.jpg,52,,,,,0,52,52,52,,,,,,,,,,,,,,,,,,,-6.123046875,13.18359375,1,0,0,7.77548098564,,,,,2015_Oct_20_1435,G,facesParametric,17,59.6968972388,
./stim/MorphF7_03_orig.jpg,53,,,,,0,53,53,53,,,,,,,,,,,,,,,,,,,-6.09375,13.18359375,0,0,1,8.02649402618,,,,,2015_Oct_20_1435,G,facesParametric,17,59.6968972388,
./stim/MorphM4_09_orig.jpg,54,,,,,0,54,54,54,,,,,,,,,,,,,,,,,,,-6.09375,13.18359375,0,0,1,0.819696187973,,,,,2015_Oct_20_1435,G,facesParametric,17,59.6968972388,
./stim/MorphM9_07_orig.jpg,55,,,,,0,55,55,55,,,,,,,,,,,,,,,,,,,-6.09375,13.18359375,1,0,0,2.31193089485,,,,,2015_Oct_20_1435,G,facesParametric,17,59.6968972388,
./stim/MorphM3_05_orig.jpg,56,,,,,0,56,56,56,,,,,,,,,,,,,,,,,,,-6.97265625,13.154296875,0,0,1,5.04197502136,,,,,2015_Oct_20_1435,G,facesParametric,17,59.6968972388,
./stim/MorphF9_03_orig.jpg,57,,,,,0,57,57,57,,,,,,,,,,,,,,,,,,,-6.85546875,13.18359375,1,0,0,1.68997693062,,,,,2015_Oct_20_1435,G,facesParametric,17,59.6968972388,
./stim/MorphM5_00_orig.jpg,58,,,,,0,58,58,58,,,,,,,,,,,,,,,,,,,-6.85546875,13.18359375,1,0,0,1.03735995293,,,,,2015_Oct_20_1435,G,facesParametric,17,59.6968972388,
./stim/MorphM9_00_orig.jpg,59,,,,,0,59,59,59,,,,,,,,,,,,,,,,,,,-6.85546875,13.18359375,1,0,0,0.952979803085,,,,,2015_Oct_20_1435,G,facesParametric,17,59.6968972388,
./stim/MorphF4_06_orig.jpg,60,,,,,0,60,60,60,,,,,,,,,,,,,,,,,,,-6.85546875,13.18359375,0,0,1,1.62406992912,,,,,2015_Oct_20_1435,G,facesParametric,17,59.6968972388,
./stim/MorphF1_06_orig.jpg,61,,,,,0,61,61,61,,,,,,,,,,,,,,,,,,,-6.9140625,13.095703125,1,0,0,1.40674304962,,,,,2015_Oct_20_1435,G,facesParametric,17,59.6968972388,
./stim/MorphF3_02_orig.jpg,62,,,,,0,62,62,62,,,,,,,,,,,,,,,,,,,-6.9140625,13.095703125,1,0,0,0.85347700119,,,,,2015_Oct_20_1435,G,facesParametric,17,59.6968972388,
./stim/MorphF8_10_orig.jpg,63,,,,,0,63,63,63,,,,,,,,,,,,,,,,,,,-6.9140625,13.095703125,0,0,1,1.30522298813,,,,,2015_Oct_20_1435,G,facesParametric,17,59.6968972388,
./stim/MorphF9_10_orig.jpg,64,,,,,0,64,64,64,,,,,,,,,,,,,,,,,,,-6.9140625,13.095703125,0,0,1,1.15512490273,,,,,2015_Oct_20_1435,G,facesParametric,17,59.6968972388,
./stim/MorphF2_04_orig.jpg,65,,,,,0,65,65,65,,,,,,,,,,,,,,,,,,,-6.9140625,13.095703125,0,0,1,1.77443194389,,,,,2015_Oct_20_1435,G,facesParametric,17,59.6968972388,
./stim/MorphF7_06_orig.jpg,66,,,,,0,66,66,66,,,,,,,,,,,,,,,,,,,-6.9140625,13.095703125,0,0,1,0.649751901627,,,,,2015_Oct_20_1435,G,facesParametric,17,59.6968972388,
./stim/MorphF1_03_orig.jpg,67,,,,,0,67,67,67,,,,,,,,,,,,,,,,,,,-6.9140625,13.095703125,1,0,0,0.836359024048,,,,,2015_Oct_20_1435,G,facesParametric,17,59.6968972388,
./stim/MorphF10_06_orig.jpg,68,,,,,0,68,68,68,,,,,,,,,,,,,,,,,,,-6.9140625,13.095703125,0,0,1,1.07001781464,,,,,2015_Oct_20_1435,G,facesParametric,17,59.6968972388,
./stim/MorphM6_05_orig.jpg,69,,,,,0,69,69,69,,,,,,,,,,,,,,,,,,,-6.9140625,13.095703125,0,0,1,4.13731193542,,,,,2015_Oct_20_1435,G,facesParametric,17,59.6968972388,
./stim/MorphF6_08_orig.jpg,70,,,,,0,70,70,70,,,,,,,,,,,,,,,,,,,-6.9140625,13.095703125,0,0,1,2.7447309494,,,,,2015_Oct_20_1435,G,facesParametric,17,59.6968972388,
./stim/MorphM3_07_orig.jpg,71,,,,,0,71,71,71,,,,,,,,,,,,,,,,,,,-6.9140625,13.095703125,0,0,1,0.817809104919,,,,,2015_Oct_20_1435,G,facesParametric,17,59.6968972388,
./stim/MorphF2_06_orig.jpg,72,,,,,0,72,72,72,,,,,,,,,,,,,,,,,,,-6.9140625,13.095703125,0,0,1,1.02139186859,,,,,2015_Oct_20_1435,G,facesParametric,17,59.6968972388,
./stim/MorphF5_06_orig.jpg,73,,,,,0,73,73,73,,,,,,,,,,,,,,,,,,,-6.9140625,13.095703125,0,0,1,1.06994485855,,,,,2015_Oct_20_1435,G,facesParametric,17,59.6968972388,
./stim/MorphF10_02_orig.jpg,74,,,,,0,74,74,74,,,,,,,,,,,,,,,,,,,-6.9140625,13.095703125,0,0,1,1.5068500042,,,,,2015_Oct_20_1435,G,facesParametric,17,59.6968972388,
./stim/MorphF7_05_orig.jpg,75,,,,,0,75,75,75,,,,,,,,,,,,,,,,,,,-6.9140625,13.095703125,0,0,1,0.61887383461,,,,,2015_Oct_20_1435,G,facesParametric,17,59.6968972388,
./stim/MorphF1_05_orig.jpg,76,,,,,0,76,76,76,,,,,,,,,,,,,,,,,,,-6.9140625,13.095703125,1,0,0,1.28740286827,,,,,2015_Oct_20_1435,G,facesParametric,17,59.6968972388,
./stim/MorphF4_02_orig.jpg,77,,,,,0,77,77,77,,,,,,,,,,,,,,,,,,,-6.9140625,13.095703125,0,0,1,0.702326059341,,,,,2015_Oct_20_1435,G,facesParametric,17,59.6968972388,
./stim/MorphF10_07_orig.jpg,78,,,,,0,78,78,78,,,,,,,,,,,,,,,,,,,-7.001953125,13.037109375,0,0,1,2.56284403801,,,,,2015_Oct_20_1435,G,facesParametric,17,59.6968972388,
./stim/MorphM5_09_orig.jpg,79,,,,,0,79,79,79,,,,,,,,,,,,,,,,,,,-6.97265625,13.125,1,0,0,1.97462916374,,,,,2015_Oct_20_1435,G,facesParametric,17,59.6968972388,
./stim/MorphF2_10_orig.jpg,80,,,,,0,80,80,80,,,,,,,,,,,,,,,,,,,-6.97265625,13.125,1,0,0,3.29993104935,,,,,2015_Oct_20_1435,G,facesParametric,17,59.6968972388,
./stim/MorphM6_02_orig.jpg,81,,,,,0,81,81,81,,,,,,,,,,,,,,,,,,,-7.294921875,13.06640625,1,0,0,10.3565089703,,,,,2015_Oct_20_1435,G,facesParametric,17,59.6968972388,
./stim/MorphM3_01_orig.jpg,82,,,,,0,82,82,82,,,,,,,,,,,,,,,,,,,-7.294921875,13.06640625,0,0,1,0.918659925461,,,,,2015_Oct_20_1435,G,facesParametric,17,59.6968972388,
./stim/MorphF6_10_orig.jpg,83,,,,,0,83,83,83,,,,,,,,,,,,,,,,,,,-7.294921875,13.06640625,0,0,1,0.685315847397,,,,,2015_Oct_20_1435,G,facesParametric,17,59.6968972388,
./stim/MorphM2_03_orig.jpg,84,,,,,0,84,84,84,,,,,,,,,,,,,,,,,,,-7.265625,13.06640625,1,0,0,2.27838611603,,,,,2015_Oct_20_1435,G,facesParametric,17,59.6968972388,
./stim/MorphM5_08_orig.jpg,85,,,,,0,85,85,85,,,,,,,,,,,,,,,,,,,-7.265625,13.06640625,0,0,1,2.97964978218,,,,,2015_Oct_20_1435,G,facesParametric,17,59.6968972388,
./stim/MorphM10_08_orig.jpg,86,,,,,0,86,86,86,,,,,,,,,,,,,,,,,,,-7.265625,13.06640625,0,0,1,1.02001810074,,,,,2015_Oct_20_1435,G,facesParametric,17,59.6968972388,
./stim/MorphM3_03_orig.jpg,87,,,,,0,87,87,87,,,,,,,,,,,,,,,,,,,-7.265625,13.06640625,0,0,1,1.57421994209,,,,,2015_Oct_20_1435,G,facesParametric,17,59.6968972388,
./stim/MorphM7_05_orig.jpg,88,,,,,0,88,88,88,,,,,,,,,,,,,,,,,,,-7.32421875,13.0078125,0,0,1,1.07089400291,,,,,2015_Oct_20_1435,G,facesParametric,17,59.6968972388,
./stim/MorphF1_01_orig.jpg,89,,,,,0,89,89,89,,,,,,,,,,,,,,,,,,,-7.353515625,12.978515625,0,0,1,0.769924879074,,,,,2015_Oct_20_1435,G,facesParametric,17,59.6968972388,
./stim/MorphM1_05_orig.jpg,90,,,,,0,90,90,90,,,,,,,,,,,,,,,,,,,-7.353515625,12.94921875,1,0,0,3.1813750267,,,,,2015_Oct_20_1435,G,facesParametric,17,59.6968972388,
./stim/MorphF10_05_orig.jpg,91,,,,,0,91,91,91,,,,,,,,,,,,,,,,,,,-7.353515625,12.94921875,1,0,0,1.72510695457,,,,,2015_Oct_20_1435,G,facesParametric,17,59.6968972388,
./stim/MorphM8_04_orig.jpg,92,,,,,0,92,92,92,,,,,,,,,,,,,,,,,,,-7.177734375,13.06640625,1,0,0,4.17074108124,,,,,2015_Oct_20_1435,G,facesParametric,17,59.6968972388,
./stim/MorphF10_03_orig.jpg,93,,,,,0,93,93,93,,,,,,,,,,,,,,,,,,,-7.177734375,13.06640625,1,0,0,1.57399702072,,,,,2015_Oct_20_1435,G,facesParametric,17,59.6968972388,
./stim/MorphF6_06_orig.jpg,94,,,,,0,94,94,94,,,,,,,,,,,,,,,,,,,-7.177734375,13.06640625,0,0,1,0.902285814285,,,,,2015_Oct_20_1435,G,facesParametric,17,59.6968972388,
./stim/MorphF7_04_orig.jpg,95,,,,,0,95,95,95,,,,,,,,,,,,,,,,,,,-7.177734375,13.06640625,1,0,0,2.86473011971,,,,,2015_Oct_20_1435,G,facesParametric,17,59.6968972388,
./stim/MorphM6_04_orig.jpg,96,,,,,0,96,96,96,,,,,,,,,,,,,,,,,,,-7.177734375,13.095703125,1,0,0,8.94834494591,,,,,2015_Oct_20_1435,G,facesParametric,17,59.6968972388,
./stim/MorphM8_03_orig.jpg,97,,,,,0,97,97,97,,,,,,,,,,,,,,,,,,,-7.177734375,13.095703125,1,0,0,2.44531202316,,,,,2015_Oct_20_1435,G,facesParametric,17,59.6968972388,
./stim/MorphM5_06_orig.jpg,98,,,,,0,98,98,98,,,,,,,,,,,,,,,,,,,-7.177734375,13.095703125,1,0,0,1.05344986916,,,,,2015_Oct_20_1435,G,facesParametric,17,59.6968972388,
./stim/MorphM7_01_orig.jpg,99,,,,,0,99,99,99,,,,,,,,,,,,,,,,,,,-7.177734375,13.18359375,1,0,0,0.970299005508,,,,,2015_Oct_20_1435,G,facesParametric,17,59.6968972388,
./stim/MorphM1_06_orig.jpg,100,,,,,0,100,100,100,,,,,,,,,,,,,,,,,,,-7.177734375,13.18359375,1,0,0,1.42250680923,,,,,2015_Oct_20_1435,G,facesParametric,17,59.6968972388,
./stim/MorphM4_10_orig.jpg,101,,,,,0,101,101,101,,,,,,,,,,,,,,,,,,,-7.1484375,13.154296875,0,0,1,1.18638586998,,,,,2015_Oct_20_1435,G,facesParametric,17,59.6968972388,
./stim/MorphM9_03_orig.jpg,102,,,,,0,102,102,102,,,,,,,,,,,,,,,,,,,-7.1484375,13.154296875,1,0,0,3.80401301384,,,,,2015_Oct_20_1435,G,facesParametric,17,59.6968972388,
./stim/MorphM10_04_orig.jpg,103,,,,,0,103,103,103,,,,,,,,,,,,,,,,,,,-7.1484375,13.154296875,0,0,1,4.10329890251,,,,,2015_Oct_20_1435,G,facesParametric,17,59.6968972388,
./stim/MorphF2_01_orig.jpg,104,,,,,0,104,104,104,,,,,,,,,,,,,,,,,,,-7.1484375,13.154296875,1,0,0,1.1550359726,,,,,2015_Oct_20_1435,G,facesParametric,17,59.6968972388,
./stim/MorphM3_00_orig.jpg,105,,,,,0,105,105,105,,,,,,,,,,,,,,,,,,,-7.1484375,13.154296875,1,0,0,3.06582808495,,,,,2015_Oct_20_1435,G,facesParametric,17,59.6968972388,
./stim/MorphM7_09_orig.jpg,106,,,,,0,106,106,106,,,,,,,,,,,,,,,,,,,-7.1484375,13.154296875,0,0,1,1.00249409676,,,,,2015_Oct_20_1435,G,facesParametric,17,59.6968972388,
./stim/MorphM1_02_orig.jpg,107,,,,,0,107,107,107,,,,,,,,,,,,,,,,,,,-7.1484375,13.154296875,1,0,0,1.33974790573,,,,,2015_Oct_20_1435,G,facesParametric,17,59.6968972388,
./stim/MorphM2_08_orig.jpg,108,,,,,0,108,108,108,,,,,,,,,,,,,,,,,,,-7.1484375,13.154296875,1,0,0,3.98748493195,,,,,2015_Oct_20_1435,G,facesParametric,17,59.6968972388,
./stim/MorphF9_07_orig.jpg,109,,,,,0,109,109,109,,,,,,,,,,,,,,,,,,,-7.1484375,13.154296875,0,0,1,2.11035299301,,,,,2015_Oct_20_1435,G,facesParametric,17,59.6968972388,
./stim/MorphM10_07_orig.jpg,110,,,,,0,110,110,110,,,,,,,,,,,,,,,,,,,-7.1484375,13.154296875,0,0,1,0.937576055527,,,,,2015_Oct_20_1435,G,facesParametric,17,59.6968972388,
./stim/MorphF5_07_orig.jpg,111,,,,,0,111,111,111,,,,,,,,,,,,,,,,,,,-7.1484375,13.154296875,0,0,1,3.16640090942,,,,,2015_Oct_20_1435,G,facesParametric,17,59.6968972388,
./stim/MorphF3_03_orig.jpg,112,,,,,0,112,112,112,,,,,,,,,,,,,,,,,,,-7.1484375,13.154296875,1,0,0,0.903641939163,,,,,2015_Oct_20_1435,G,facesParametric,17,59.6968972388,
./stim/MorphM2_05_orig.jpg,113,,,,,0,113,113,113,,,,,,,,,,,,,,,,,,,-6.884765625,12.919921875,1,0,0,4.82584309578,,,,,2015_Oct_20_1435,G,facesParametric,17,59.6968972388,
./stim/MorphF1_08_orig.jpg,114,,,,,0,114,114,114,,,,,,,,,,,,,,,,,,,-7.060546875,12.94921875,1,0,0,3.97083616257,,,,,2015_Oct_20_1435,G,facesParametric,17,59.6968972388,
./stim/MorphF10_08_orig.jpg,115,,,,,0,115,115,115,,,,,,,,,,,,,,,,,,,-7.060546875,12.94921875,0,0,1,1.02097797394,,,,,2015_Oct_20_1435,G,facesParametric,17,59.6968972388,
./stim/MorphF1_00_orig.jpg,116,,,,,0,116,116,116,,,,,,,,,,,,,,,,,,,-7.060546875,12.94921875,1,0,0,3.90336990356,,,,,2015_Oct_20_1435,G,facesParametric,17,59.6968972388,
./stim/MorphF9_09_orig.jpg,117,,,,,0,117,117,117,,,,,,,,,,,,,,,,,,,-7.03125,12.978515625,0,0,1,4.30391383171,,,,,2015_Oct_20_1435,G,facesParametric,17,59.6968972388,
./stim/MorphF2_07_orig.jpg,118,,,,,0,118,118,118,,,,,,,,,,,,,,,,,,,-7.03125,12.978515625,1,0,0,0.885802984238,,,,,2015_Oct_20_1435,G,facesParametric,17,59.6968972388,
./stim/MorphF3_04_orig.jpg,119,,,,,0,119,119,119,,,,,,,,,,,,,,,,,,,-7.03125,12.978515625,1,0,0,0.617480039597,,,,,2015_Oct_20_1435,G,facesParametric,17,59.6968972388,
./stim/MorphM10_06_orig.jpg,120,,,,,0,120,120,120,,,,,,,,,,,,,,,,,,,-7.03125,12.978515625,0,0,1,1.17101716995,,,,,2015_Oct_20_1435,G,facesParametric,17,59.6968972388,
./stim/MorphM6_09_orig.jpg,121,,,,,0,121,121,121,,,,,,,,,,,,,,,,,,,-7.08984375,12.978515625,1,0,0,6.31700110435,,,,,2015_Oct_20_1435,G,facesParametric,17,59.6968972388,
./stim/MorphM8_01_orig.jpg,122,,,,,0,122,122,122,,,,,,,,,,,,,,,,,,,-7.001953125,13.125,1,0,0,1.50552296638,,,,,2015_Oct_20_1435,G,facesParametric,17,59.6968972388,
./stim/MorphF5_03_orig.jpg,123,,,,,0,123,123,123,,,,,,,,,,,,,,,,,,,-7.001953125,13.125,1,0,0,3.56713199615,,,,,2015_Oct_20_1435,G,facesParametric,17,59.6968972388,
./stim/MorphF4_04_orig.jpg,124,,,,,0,124,124,124,,,,,,,,,,,,,,,,,,,-7.001953125,13.125,1,0,0,2.49617004395,,,,,2015_Oct_20_1435,G,facesParametric,17,59.6968972388,
./stim/MorphM2_04_orig.jpg,125,,,,,0,125,125,125,,,,,,,,,,,,,,,,,,,-7.001953125,13.125,1,0,0,1.27245092392,,,,,2015_Oct_20_1435,G,facesParametric,17,59.6968972388,
./stim/MorphF2_02_orig.jpg,126,,,,,0,126,126,126,,,,,,,,,,,,,,,,,,,-7.001953125,13.125,1,0,0,7.52365493774,,,,,2015_Oct_20_1435,G,facesParametric,17,59.6968972388,
./stim/MorphM3_04_orig.jpg,127,,,,,0,127,127,127,,,,,,,,,,,,,,,,,,,-7.001953125,13.125,1,0,0,3.65221881866,,,,,2015_Oct_20_1435,G,facesParametric,17,59.6968972388,
./stim/MorphM10_09_orig.jpg,128,,,,,0,128,128,128,,,,,,,,,,,,,,,,,,,-7.001953125,13.125,0,0,1,0.651833057404,,,,,2015_Oct_20_1435,G,facesParametric,17,59.6968972388,
./stim/MorphF9_06_orig.jpg,129,,,,,0,129,129,129,,,,,,,,,,,,,,,,,,,-7.1484375,13.095703125,1,0,0,3.98750782013,,,,,2015_Oct_20_1435,G,facesParametric,17,59.6968972388,
./stim/MorphM2_02_orig.jpg,130,,,,,0,130,130,130,,,,,,,,,,,,,,,,,,,-7.1484375,13.095703125,1,0,0,0.702630996704,,,,,2015_Oct_20_1435,G,facesParametric,17,59.6968972388,
./stim/MorphF8_09_orig.jpg,131,,,,,0,131,131,131,,,,,,,,,,,,,,,,,,,-7.20703125,13.06640625,0,0,1,0.887286186218,,,,,2015_Oct_20_1435,G,facesParametric,17,59.6968972388,
./stim/MorphM3_08_orig.jpg,132,,,,,0,132,132,132,,,,,,,,,,,,,,,,,,,-7.20703125,13.06640625,1,0,0,2.71358394623,,,,,2015_Oct_20_1435,G,facesParametric,17,59.6968972388,
./stim/MorphF5_09_orig.jpg,133,,,,,0,133,133,133,,,,,,,,,,,,,,,,,,,-7.20703125,13.06640625,0,0,1,3.35012102127,,,,,2015_Oct_20_1435,G,facesParametric,17,59.6968972388,
./stim/MorphF9_08_orig.jpg,134,,,,,0,134,134,134,,,,,,,,,,,,,,,,,,,-7.20703125,13.06640625,0,0,1,3.83703303337,,,,,2015_Oct_20_1435,G,facesParametric,17,59.6968972388,
./stim/MorphM9_04_orig.jpg,135,,,,,0,135,135,135,,,,,,,,,,,,,,,,,,,-7.20703125,13.06640625,1,0,0,2.0109000206,,,,,2015_Oct_20_1435,G,facesParametric,17,59.6968972388,
./stim/MorphM3_06_orig.jpg,136,,,,,0,136,136,136,,,,,,,,,,,,,,,,,,,-7.20703125,13.06640625,1,0,0,5.89691901207,,,,,2015_Oct_20_1435,G,facesParametric,17,59.6968972388,
./stim/MorphF1_07_orig.jpg,137,,,,,0,137,137,137,,,,,,,,,,,,,,,,,,,-7.20703125,13.06640625,1,0,0,0.71966791153,,,,,2015_Oct_20_1435,G,facesParametric,17,59.6968972388,
./stim/MorphF5_10_orig.jpg,138,,,,,0,138,138,138,,,,,,,,,,,,,,,,,,,-7.20703125,13.06640625,0,0,1,1.50788593292,,,,,2015_Oct_20_1435,G,facesParametric,17,59.6968972388,
./stim/MorphM1_03_orig.jpg,139,,,,,0,139,139,139,,,,,,,,,,,,,,,,,,,-7.1484375,13.18359375,1,0,0,1.23778605461,,,,,2015_Oct_20_1435,G,facesParametric,17,59.6968972388,
./stim/MorphF8_00_orig.jpg,140,,,,,0,140,140,140,,,,,,,,,,,,,,,,,,,-7.1484375,13.18359375,1,0,0,1.1885471344,,,,,2015_Oct_20_1435,G,facesParametric,17,59.6968972388,
./stim/MorphM7_08_orig.jpg,141,,,,,0,141,141,141,,,,,,,,,,,,,,,,,,,-7.1484375,13.18359375,0,0,1,0.736901044846,,,,,2015_Oct_20_1435,G,facesParametric,17,59.6968972388,
./stim/MorphM3_10_orig.jpg,142,,,,,0,142,142,142,,,,,,,,,,,,,,,,,,,-7.1484375,13.18359375,1,0,0,2.10945487022,,,,,2015_Oct_20_1435,G,facesParametric,17,59.6968972388,
./stim/MorphF6_04_orig.jpg,143,,,,,0,143,143,143,,,,,,,,,,,,,,,,,,,-7.1484375,13.18359375,0,0,1,0.903913974762,,,,,2015_Oct_20_1435,G,facesParametric,17,59.6968972388,
./stim/MorphM1_09_orig.jpg,144,,,,,0,144,144,144,,,,,,,,,,,,,,,,,,,-7.1484375,13.18359375,1,0,0,1.05432796478,,,,,2015_Oct_20_1435,G,facesParametric,17,59.6968972388,
./stim/MorphF6_02_orig.jpg,145,,,,,0,145,145,145,,,,,,,,,,,,,,,,,,,-7.1484375,13.18359375,0,0,1,0.803044080734,,,,,2015_Oct_20_1435,G,facesParametric,17,59.6968972388,
./stim/MorphF5_08_orig.jpg,146,,,,,0,146,146,146,,,,,,,,,,,,,,,,,,,-7.177734375,13.095703125,0,0,1,1.50720500946,,,,,2015_Oct_20_1435,G,facesParametric,17,59.6968972388,
./stim/MorphF2_03_orig.jpg,147,,,,,0,147,147,147,,,,,,,,,,,,,,,,,,,-7.177734375,13.095703125,1,0,0,1.288230896,,,,,2015_Oct_20_1435,G,facesParametric,17,59.6968972388,
./stim/MorphM5_01_orig.jpg,148,,,,,0,148,148,148,,,,,,,,,,,,,,,,,,,-7.177734375,13.095703125,1,0,0,1.22189617157,,,,,2015_Oct_20_1435,G,facesParametric,17,59.6968972388,
./stim/MorphF10_09_orig.jpg,149,,,,,0,149,149,149,,,,,,,,,,,,,,,,,,,-7.177734375,13.095703125,0,0,1,1.50799298286,,,,,2015_Oct_20_1435,G,facesParametric,17,59.6968972388,
./stim/MorphF7_01_orig.jpg,150,,,,,0,150,150,150,,,,,,,,,,,,,,,,,,,-7.177734375,13.095703125,1,0,0,1.08769798279,,,,,2015_Oct_20_1435,G,facesParametric,17,59.6968972388,
./stim/MorphF10_00_orig.jpg,151,,,,,0,151,151,151,,,,,,,,,,,,,,,,,,,-7.177734375,13.095703125,1,0,0,0.801805019379,,,,,2015_Oct_20_1435,G,facesParametric,17,59.6968972388,
./stim/MorphF6_07_orig.jpg,152,,,,,0,152,152,152,,,,,,,,,,,,,,,,,,,-7.177734375,13.095703125,0,0,1,0.685216903687,,,,,2015_Oct_20_1435,G,facesParametric,17,59.6968972388,
./stim/MorphF8_06_orig.jpg,153,,,,,0,153,153,153,,,,,,,,,,,,,,,,,,,-7.177734375,13.06640625,1,0,0,6.98734593391,,,,,2015_Oct_20_1435,G,facesParametric,17,59.6968972388,
./stim/MorphM4_02_orig.jpg,154,,,,,0,154,154,154,,,,,,,,,,,,,,,,,,,-7.177734375,13.06640625,1,0,0,4.42141795158,,,,,2015_Oct_20_1435,G,facesParametric,17,59.6968972388,
./stim/MorphF10_10_orig.jpg,155,,,,,0,155,155,155,,,,,,,,,,,,,,,,,,,-7.03125,13.18359375,0,0,1,9.31610918045,,,,,2015_Oct_20_1435,G,facesParametric,17,59.6968972388,
./stim/MorphF3_00_orig.jpg,156,,,,,0,156,156,156,,,,,,,,,,,,,,,,,,,-7.03125,13.18359375,1,0,0,0.902985095978,,,,,2015_Oct_20_1435,G,facesParametric,17,59.6968972388,
./stim/MorphM7_10_orig.jpg,157,,,,,0,157,157,157,,,,,,,,,,,,,,,,,,,-7.03125,13.18359375,0,0,1,5.32746696472,,,,,2015_Oct_20_1435,G,facesParametric,17,59.6968972388,
./stim/MorphM5_07_orig.jpg,158,,,,,0,158,158,158,,,,,,,,,,,,,,,,,,,-8.02734375,12.861328125,1,0,0,9.29982113838,,,,,2015_Oct_20_1435,G,facesParametric,17,59.6968972388,
./stim/MorphF8_05_orig.jpg,159,,,,,0,159,159,159,,,,,,,,,,,,,,,,,,,-8.02734375,12.861328125,1,0,0,0.719917058945,,,,,2015_Oct_20_1435,G,facesParametric,17,59.6968972388,
./stim/MorphM1_07_orig.jpg,160,,,,,0,160,160,160,,,,,,,,,,,,,,,,,,,-8.02734375,12.861328125,1,0,0,0.868752002716,,,,,2015_Oct_20_1435,G,facesParametric,17,59.6968972388,
./stim/MorphM6_08_orig.jpg,161,,,,,0,161,161,161,,,,,,,,,,,,,,,,,,,-8.02734375,12.861328125,1,0,0,7.80889415741,,,,,2015_Oct_20_1435,G,facesParametric,17,59.6968972388,
./stim/MorphM5_10_orig.jpg,162,,,,,0,162,162,162,,,,,,,,,,,,,,,,,,,-8.02734375,12.861328125,0,0,1,1.52369785309,,,,,2015_Oct_20_1435,G,facesParametric,17,59.6968972388,
./stim/MorphM4_03_orig.jpg,163,,,,,0,163,163,163,,,,,,,,,,,,,,,,,,,-8.02734375,12.861328125,1,0,0,1.70771598816,,,,,2015_Oct_20_1435,G,facesParametric,17,59.6968972388,
./stim/MorphF4_09_orig.jpg,164,,,,,0,164,164,164,,,,,,,,,,,,,,,,,,,-8.02734375,12.861328125,0,0,1,1.43939399719,,,,,2015_Oct_20_1435,G,facesParametric,17,59.6968972388,
./stim/MorphM8_09_orig.jpg,165,,,,,0,165,165,165,,,,,,,,,,,,,,,,,,,-8.02734375,12.861328125,0,0,1,3.88815617561,,,,,2015_Oct_20_1435,G,facesParametric,17,59.6968972388,
./stim/MorphF2_09_orig.jpg,166,,,,,0,166,166,166,,,,,,,,,,,,,,,,,,,-8.02734375,12.861328125,0,0,1,2.07532787323,,,,,2015_Oct_20_1435,G,facesParametric,17,59.6968972388,
./stim/MorphM6_06_orig.jpg,167,,,,,0,167,167,167,,,,,,,,,,,,,,,,,,,-7.998046875,12.83203125,1,0,0,0.970557928085,,,,,2015_Oct_20_1435,G,facesParametric,17,59.6968972388,
./stim/MorphF1_10_orig.jpg,168,,,,,0,168,168,168,,,,,,,,,,,,,,,,,,,-7.998046875,12.83203125,1,0,0,1.92499184608,,,,,2015_Oct_20_1435,G,facesParametric,17,59.6968972388,
./stim/MorphM6_10_orig.jpg,169,,,,,0,169,169,169,,,,,,,,,,,,,,,,,,,-7.998046875,12.83203125,0,0,1,3.95422911644,,,,,2015_Oct_20_1435,G,facesParametric,17,59.6968972388,
./stim/MorphM2_01_orig.jpg,170,,,,,0,170,170,170,,,,,,,,,,,,,,,,,,,-7.998046875,12.83203125,1,0,0,1.95955705643,,,,,2015_Oct_20_1435,G,facesParametric,17,59.6968972388,
./stim/MorphF9_05_orig.jpg,171,,,,,0,171,171,171,,,,,,,,,,,,,,,,,,,-7.998046875,12.919921875,1,0,0,1.33955097198,,,,,2015_Oct_20_1435,G,facesParametric,17,59.6968972388,
./stim/MorphF6_05_orig.jpg,172,,,,,0,172,172,172,,,,,,,,,,,,,,,,,,,-8.02734375,12.94921875,0,0,1,0.768742084503,,,,,2015_Oct_20_1435,G,facesParametric,17,59.6968972388,
./stim/MorphM9_06_orig.jpg,173,,,,,0,173,173,173,,,,,,,,,,,,,,,,,,,-8.02734375,13.0078125,1,0,0,7.7247440815,,,,,2015_Oct_20_1435,G,facesParametric,17,59.6968972388,
./stim/MorphM10_05_orig.jpg,174,,,,,0,174,174,174,,,,,,,,,,,,,,,,,,,-8.02734375,13.0078125,0,0,1,0.819692134857,,,,,2015_Oct_20_1435,G,facesParametric,17,59.6968972388,
./stim/MorphF6_09_orig.jpg,175,,,,,0,175,175,175,,,,,,,,,,,,,,,,,,,-8.02734375,13.0078125,0,0,1,0.652072906494,,,,,2015_Oct_20_1435,G,facesParametric,17,59.6968972388,
./stim/MorphF3_06_orig.jpg,176,,,,,0,176,176,176,,,,,,,,,,,,,,,,,,,-8.02734375,13.0078125,1,0,0,1.92517709732,,,,,2015_Oct_20_1435,G,facesParametric,17,59.6968972388,
./stim/MorphM7_02_orig.jpg,177,,,,,0,177,177,177,,,,,,,,,,,,,,,,,,,-8.02734375,13.0078125,1,0,0,0.986788034439,,,,,2015_Oct_20_1435,G,facesParametric,17,59.6968972388,
./stim/MorphF5_02_orig.jpg,178,,,,,0,178,178,178,,,,,,,,,,,,,,,,,,,-8.02734375,13.0078125,1,0,0,1.10318207741,,,,,2015_Oct_20_1435,G,facesParametric,17,59.6968972388,
./stim/MorphM10_02_orig.jpg,179,,,,,0,179,179,179,,,,,,,,,,,,,,,,,,,-8.02734375,13.0078125,1,0,0,1.30608701706,,,,,2015_Oct_20_1435,G,facesParametric,17,59.6968972388,
./stim/MorphF8_01_orig.jpg,180,,,,,0,180,180,180,,,,,,,,,,,,,,,,,,,-8.02734375,13.0078125,1,0,0,1.02099299431,,,,,2015_Oct_20_1435,G,facesParametric,17,59.6968972388,
./stim/MorphF7_02_orig.jpg,181,,,,,0,181,181,181,,,,,,,,,,,,,,,,,,,-8.02734375,13.0078125,1,0,0,1.42272591591,,,,,2015_Oct_20_1435,G,facesParametric,17,59.6968972388,
./stim/MorphF3_09_orig.jpg,182,,,,,0,182,182,182,,,,,,,,,,,,,,,,,,,-8.02734375,13.0078125,0,0,1,6.16627216339,,,,,2015_Oct_20_1435,G,facesParametric,17,59.6968972388,
./stim/MorphM2_00_orig.jpg,183,,,,,0,183,183,183,,,,,,,,,,,,,,,,,,,-7.880859375,13.0078125,1,0,0,2.64692497253,,,,,2015_Oct_20_1435,G,facesParametric,17,59.6968972388,
./stim/MorphF7_10_orig.jpg,184,,,,,0,184,184,184,,,,,,,,,,,,,,,,,,,-7.880859375,13.0078125,0,0,1,1.00218009949,,,,,2015_Oct_20_1435,G,facesParametric,17,59.6968972388,
./stim/MorphF5_04_orig.jpg,185,,,,,0,185,185,185,,,,,,,,,,,,,,,,,,,-7.8515625,12.978515625,1,0,0,1.50701403618,,,,,2015_Oct_20_1435,G,facesParametric,17,59.6968972388,
./stim/MorphM8_05_orig.jpg,186,,,,,0,186,186,186,,,,,,,,,,,,,,,,,,,-7.8515625,12.978515625,1,0,0,7.94293093681,,,,,2015_Oct_20_1435,G,facesParametric,17,59.6968972388,
./stim/MorphF4_07_orig.jpg,187,,,,,0,187,187,187,,,,,,,,,,,,,,,,,,,-7.8515625,12.978515625,0,0,1,4.94305515289,,,,,2015_Oct_20_1435,G,facesParametric,17,59.6968972388,
./stim/MorphM9_08_orig.jpg,188,,,,,0,188,188,188,,,,,,,,,,,,,,,,,,,-7.8515625,12.978515625,0,0,1,0.937165975571,,,,,2015_Oct_20_1435,G,facesParametric,17,59.6968972388,
./stim/MorphM8_08_orig.jpg,189,,,,,0,189,189,189,,,,,,,,,,,,,,,,,,,-7.8515625,12.94921875,0,0,1,5.66303706169,,,,,2015_Oct_20_1435,G,facesParametric,17,59.6968972388,
./stim/MorphM7_07_orig.jpg,190,,,,,0,190,190,190,,,,,,,,,,,,,,,,,,,-7.763671875,13.037109375,0,0,1,3.20027208328,,,,,2015_Oct_20_1435,G,facesParametric,17,59.6968972388,
./stim/MorphF1_09_orig.jpg,191,,,,,0,191,191,191,,,,,,,,,,,,,,,,,,,-7.763671875,13.037109375,1,0,0,2.27817988396,,,,,2015_Oct_20_1435,G,facesParametric,17,59.6968972388,
./stim/MorphM3_02_orig.jpg,192,,,,,0,192,192,192,,,,,,,,,,,,,,,,,,,-7.763671875,13.037109375,1,0,0,1.23891782761,,,,,2015_Oct_20_1435,G,facesParametric,17,59.6968972388,
./stim/MorphM5_02_orig.jpg,193,,,,,0,193,193,193,,,,,,,,,,,,,,,,,,,-7.763671875,13.037109375,1,0,0,1.35646390915,,,,,2015_Oct_20_1435,G,facesParametric,17,59.6968972388,
./stim/MorphM2_07_orig.jpg,194,,,,,0,194,194,194,,,,,,,,,,,,,,,,,,,-7.79296875,13.06640625,1,0,0,2.10877895355,,,,,2015_Oct_20_1435,G,facesParametric,17,59.6968972388,
./stim/MorphF7_08_orig.jpg,195,,,,,0,195,195,195,,,,,,,,,,,,,,,,,,,-7.79296875,13.095703125,0,0,1,1.32169699669,,,,,2015_Oct_20_1435,G,facesParametric,17,59.6968972388,
./stim/MorphF9_04_orig.jpg,196,,,,,0,196,196,196,,,,,,,,,,,,,,,,,,,-7.79296875,13.037109375,1,0,0,0.885844945908,,,,,2015_Oct_20_1435,G,facesParametric,17,59.6968972388,
./stim/MorphM10_10_orig.jpg,197,,,,,0,197,197,197,,,,,,,,,,,,,,,,,,,-7.79296875,13.037109375,0,0,1,0.802280902863,,,,,2015_Oct_20_1435,G,facesParametric,17,59.6968972388,
./stim/MorphM2_10_orig.jpg,198,,,,,0,198,198,198,,,,,,,,,,,,,,,,,,,-7.79296875,13.037109375,1,0,0,2.00753498077,,,,,2015_Oct_20_1435,G,facesParametric,17,59.6968972388,
./stim/MorphF6_00_orig.jpg,199,,,,,0,199,199,199,,,,,,,,,,,,,,,,,,,-7.646484375,13.154296875,1,0,0,3.71821784973,,,,,2015_Oct_20_1435,G,facesParametric,17,59.6968972388,
./stim/MorphM9_10_orig.jpg,200,,,,,0,200,200,200,,,,,,,,,,,,,,,,,,,-7.646484375,13.154296875,0,0,1,1.22071695328,,,,,2015_Oct_20_1435,G,facesParametric,17,59.6968972388,
./stim/MorphM8_07_orig.jpg,201,,,,,0,201,201,201,,,,,,,,,,,,,,,,,,,-7.6171875,13.18359375,0,0,1,6.71870303154,,,,,2015_Oct_20_1435,G,facesParametric,17,59.6968972388,
./stim/MorphF3_10_orig.jpg,202,,,,,0,202,202,202,,,,,,,,,,,,,,,,,,,-7.6171875,13.18359375,0,0,1,3.36596488953,,,,,2015_Oct_20_1435,G,facesParametric,17,59.6968972388,
./stim/MorphM4_00_orig.jpg,203,,,,,0,203,203,203,,,,,,,,,,,,,,,,,,,-7.55859375,13.18359375,1,0,0,1.12054109573,,,,,2015_Oct_20_1435,G,facesParametric,17,59.6968972388,
./stim/MorphF3_08_orig.jpg,204,,,,,0,204,204,204,,,,,,,,,,,,,,,,,,,-7.55859375,13.18359375,0,0,1,2.19343996048,,,,,2015_Oct_20_1435,G,facesParametric,17,59.6968972388,
./stim/MorphF5_05_orig.jpg,205,,,,,0,205,205,205,,,,,,,,,,,,,,,,,,,-7.55859375,13.18359375,1,0,0,2.37895178795,,,,,2015_Oct_20_1435,G,facesParametric,17,59.6968972388,
./stim/MorphF8_08_orig.jpg,206,,,,,0,206,206,206,,,,,,,,,,,,,,,,,,,-7.55859375,13.18359375,0,0,1,1.15434598923,,,,,2015_Oct_20_1435,G,facesParametric,17,59.6968972388,
./stim/MorphM3_09_orig.jpg,207,,,,,0,207,207,207,,,,,,,,,,,,,,,,,,,-7.55859375,13.18359375,1,0,0,0.969314098358,,,,,2015_Oct_20_1435,G,facesParametric,17,59.6968972388,
./stim/MorphM5_03_orig.jpg,208,,,,,0,208,208,208,,,,,,,,,,,,,,,,,,,-7.55859375,13.18359375,1,0,0,0.851660966873,,,,,2015_Oct_20_1435,G,facesParametric,17,59.6968972388,
./stim/MorphF2_00_orig.jpg,209,,,,,0,209,209,209,,,,,,,,,,,,,,,,,,,-7.55859375,13.18359375,1,0,0,1.95991301537,,,,,2015_Oct_20_1435,G,facesParametric,17,59.6968972388,
./stim/MorphM4_07_orig.jpg,210,,,,,0,210,210,210,,,,,,,,,,,,,,,,,,,-7.55859375,13.18359375,0,0,1,1.22116518021,,,,,2015_Oct_20_1435,G,facesParametric,17,59.6968972388,
./stim/MorphM1_00_orig.jpg,211,,,,,0,211,211,211,,,,,,,,,,,,,,,,,,,-7.55859375,13.18359375,1,0,0,1.08850502968,,,,,2015_Oct_20_1435,G,facesParametric,17,59.6968972388,
./stim/MorphM6_07_orig.jpg,212,,,,,0,212,212,212,,,,,,,,,,,,,,,,,,,-7.55859375,13.18359375,1,0,0,2.39337682724,,,,,2015_Oct_20_1435,G,facesParametric,17,59.6968972388,
./stim/MorphF5_01_orig.jpg,213,,,,,0,213,213,213,,,,,,,,,,,,,,,,,,,-7.55859375,13.18359375,1,0,0,1.2222840786,,,,,2015_Oct_20_1435,G,facesParametric,17,59.6968972388,
./stim/MorphM6_01_orig.jpg,214,,,,,0,214,214,214,,,,,,,,,,,,,,,,,,,-7.55859375,13.18359375,1,0,0,1.42112398148,,,,,2015_Oct_20_1435,G,facesParametric,17,59.6968972388,
./stim/MorphM9_09_orig.jpg,215,,,,,0,215,215,215,,,,,,,,,,,,,,,,,,,-7.55859375,13.18359375,0,0,1,0.903627872467,,,,,2015_Oct_20_1435,G,facesParametric,17,59.6968972388,
./stim/MorphM2_09_orig.jpg,216,,,,,0,216,216,216,,,,,,,,,,,,,,,,,,,-7.55859375,13.18359375,0,0,1,3.38380503654,,,,,2015_Oct_20_1435,G,facesParametric,17,59.6968972388,
./stim/MorphF6_03_orig.jpg,217,,,,,0,217,217,217,,,,,,,,,,,,,,,,,,,-7.55859375,13.154296875,1,0,0,1.44008994102,,,,,2015_Oct_20_1435,G,facesParametric,17,59.6968972388,
./stim/MorphM4_08_orig.jpg,218,,,,,0,218,218,218,,,,,,,,,,,,,,,,,,,-7.5,12.890625,1,0,0,7.42115402222,,,,,2015_Oct_20_1435,G,facesParametric,17,59.6968972388,
./stim/MorphF2_05_orig.jpg,219,,,,,0,219,219,219,,,,,,,,,,,,,,,,,,,-7.44140625,12.919921875,1,0,0,8.71391391754,,,,,2015_Oct_20_1435,G,facesParametric,17,59.6968972388,
,,,,,,,,,,,,,,,,,,,,,,,,,,,,,,,,,,return,85.8265280724,,,2015_Oct_20_1435,G,facesParametric,17,59.6968972388,
./stim/MorphF4_10_orig.jpg,0,,,,,,,,,0,0,0,0,,,,,,,,,,,,,,,22.646484375,8.02734375,0,0,1,9.49104595184,,,,,2015_Oct_20_1435,G,facesParametric,17,59.6968972388,
./stim/MorphF7_07_orig.jpg,1,,,,,,,,,0,1,1,1,,,,,,,,,,,,,,,17.98828125,-12.041015625,0,0,1,33.0485351086,,,,,2015_Oct_20_1435,G,facesParametric,17,59.6968972388,
./stim/MorphM7_03_orig.jpg,2,,,,,,,,,0,2,2,2,,,,,,,,,,,,,,,23.26171875,-13.154296875,1,0,0,4.57296180725,,,,,2015_Oct_20_1435,G,facesParametric,17,59.6968972388,
./stim/MorphF5_05_orig.jpg,3,,,,,,,,,0,3,3,3,,,,,,,,,,,,,,,23.291015625,-13.154296875,0,0,1,3.43403816223,,,,,2015_Oct_20_1435,G,facesParametric,17,59.6968972388,
./stim/MorphM4_05_orig.jpg,4,,,,,,,,,0,4,4,4,,,,,,,,,,,,,,,23.232421875,-13.125,1,0,0,4.50752496719,,,,,2015_Oct_20_1435,G,facesParametric,17,59.6968972388,
./stim/MorphM7_02_orig.jpg,5,,,,,,,,,0,5,5,5,,,,,,,,,,,,,,,18.310546875,0.205078125,1,0,0,27.6690318584,,,,,2015_Oct_20_1435,G,facesParametric,17,59.6968972388,
./stim/MorphF6_07_orig.jpg,6,,,,,,,,,0,6,6,6,,,,,,,,,,,,,,,20.91796875,2.783203125,0,0,1,37.9933390617,,,,,2015_Oct_20_1435,G,facesParametric,17,59.6968972388,
./stim/MorphF5_08_orig.jpg,7,,,,,,,,,0,7,7,7,,,,,,,,,,,,,,,13.271484375,13.18359375,0,0,1,6.46693396568,,,,,2015_Oct_20_1435,G,facesParametric,17,59.6968972388,
./stim/MorphM7_04_orig.jpg,8,,,,,,,,,0,8,8,8,,,,,,,,,,,,,,,13.330078125,13.125,1,0,0,1.33953785896,,,,,2015_Oct_20_1435,G,facesParametric,17,59.6968972388,
./stim/MorphM2_02_orig.jpg,9,,,,,,,,,0,9,9,9,,,,,,,,,,,,,,,13.271484375,12.919921875,1,0,0,1.94288611412,,,,,2015_Oct_20_1435,G,facesParametric,17,59.6968972388,
./stim/MorphM3_01_orig.jpg,10,,,,,,,,,0,10,10,10,,,,,,,,,,,,,,,13.095703125,12.5390625,1,0,0,6.61908912659,,,,,2015_Oct_20_1435,G,facesParametric,17,59.6968972388,
./stim/MorphM7_08_orig.jpg,11,,,,,,,,,0,11,11,11,,,,,,,,,,,,,,,13.681640625,12.919921875,1,0,0,1.75694203377,,,,,2015_Oct_20_1435,G,facesParametric,17,59.6968972388,
./stim/MorphM5_01_orig.jpg,12,,,,,,,,,0,12,12,12,,,,,,,,,,,,,,,13.681640625,12.919921875,1,0,0,1.02081108093,,,,,2015_Oct_20_1435,G,facesParametric,17,59.6968972388,
./stim/MorphM1_04_orig.jpg,13,,,,,,,,,0,13,13,13,,,,,,,,,,,,,,,13.681640625,12.919921875,0,0,1,0.970241069794,,,,,2015_Oct_20_1435,G,facesParametric,17,59.6968972388,
./stim/MorphF4_06_orig.jpg,14,,,,,,,,,0,14,14,14,,,,,,,,,,,,,,,13.623046875,13.095703125,0,0,1,3.97092914581,,,,,2015_Oct_20_1435,G,facesParametric,17,59.6968972388,
./stim/MorphM6_02_orig.jpg,15,,,,,,,,,0,15,15,15,,,,,,,,,,,,,,,13.623046875,13.095703125,1,0,0,0.817919015884,,,,,2015_Oct_20_1435,G,facesParametric,17,59.6968972388,
./stim/MorphF4_02_orig.jpg,16,,,,,,,,,0,16,16,16,,,,,,,,,,,,,,,13.623046875,13.095703125,1,0,0,1.30643200874,,,,,2015_Oct_20_1435,G,facesParametric,17,59.6968972388,
./stim/MorphM5_05_orig.jpg,17,,,,,,,,,0,17,17,17,,,,,,,,,,,,,,,13.623046875,13.095703125,1,0,0,0.80103802681,,,,,2015_Oct_20_1435,G,facesParametric,17,59.6968972388,
./stim/MorphM2_05_orig.jpg,18,,,,,,,,,0,18,18,18,,,,,,,,,,,,,,,13.59375,13.125,1,0,0,2.14378118515,,,,,2015_Oct_20_1435,G,facesParametric,17,59.6968972388,
./stim/MorphF10_00_orig.jpg,19,,,,,,,,,0,19,19,19,,,,,,,,,,,,,,,13.59375,13.125,1,0,0,2.27826404572,,,,,2015_Oct_20_1435,G,facesParametric,17,59.6968972388,
./stim/MorphM3_08_orig.jpg,20,,,,,,,,,0,20,20,20,,,,,,,,,,,,,,,13.59375,13.154296875,0,0,1,1.59089493752,,,,,2015_Oct_20_1435,G,facesParametric,17,59.6968972388,
./stim/MorphM9_01_orig.jpg,21,,,,,,,,,0,21,21,21,,,,,,,,,,,,,,,13.59375,13.154296875,1,0,0,1.0208530426,,,,,2015_Oct_20_1435,G,facesParametric,17,59.6968972388,
./stim/MorphM3_05_orig.jpg,22,,,,,,,,,0,22,22,22,,,,,,,,,,,,,,,13.59375,13.154296875,0,0,1,1.12097001076,,,,,2015_Oct_20_1435,G,facesParametric,17,59.6968972388,
./stim/MorphM2_10_orig.jpg,23,,,,,,,,,0,23,23,23,,,,,,,,,,,,,,,13.59375,13.154296875,0,0,1,2.67746305466,,,,,2015_Oct_20_1435,G,facesParametric,17,59.6968972388,
./stim/MorphM4_04_orig.jpg,24,,,,,,,,,0,24,24,24,,,,,,,,,,,,,,,13.59375,13.154296875,1,0,0,1.06984210014,,,,,2015_Oct_20_1435,G,facesParametric,17,59.6968972388,
./stim/MorphF2_08_orig.jpg,25,,,,,,,,,0,25,25,25,,,,,,,,,,,,,,,13.59375,13.154296875,1,0,0,1.52418088913,,,,,2015_Oct_20_1435,G,facesParametric,17,59.6968972388,
./stim/MorphF1_04_orig.jpg,26,,,,,,,,,0,26,26,26,,,,,,,,,,,,,,,13.59375,13.154296875,1,0,0,2.026293993,,,,,2015_Oct_20_1435,G,facesParametric,17,59.6968972388,
./stim/MorphF5_01_orig.jpg,27,,,,,,,,,0,27,27,27,,,,,,,,,,,,,,,13.59375,13.154296875,1,0,0,2.26147198677,,,,,2015_Oct_20_1435,G,facesParametric,17,59.6968972388,
./stim/MorphF6_00_orig.jpg,28,,,,,,,,,0,28,28,28,,,,,,,,,,,,,,,13.76953125,13.18359375,1,0,0,5.00814414024,,,,,2015_Oct_20_1435,G,facesParametric,17,59.6968972388,
./stim/MorphM10_01_orig.jpg,29,,,,,,,,,0,29,29,29,,,,,,,,,,,,,,,13.76953125,13.18359375,1,0,0,3.86826896667,,,,,2015_Oct_20_1435,G,facesParametric,17,59.6968972388,
./stim/MorphF10_03_orig.jpg,30,,,,,,,,,0,30,30,30,,,,,,,,,,,,,,,13.76953125,13.18359375,0,0,1,4.85960388184,,,,,2015_Oct_20_1435,G,facesParametric,17,59.6968972388,
./stim/MorphM8_03_orig.jpg,31,,,,,,,,,0,31,31,31,,,,,,,,,,,,,,,13.76953125,13.18359375,1,0,0,1.37113595009,,,,,2015_Oct_20_1435,G,facesParametric,17,59.6968972388,
./stim/MorphF3_08_orig.jpg,32,,,,,,,,,0,32,32,32,,,,,,,,,,,,,,,13.76953125,13.18359375,0,0,1,2.04377293587,,,,,2015_Oct_20_1435,G,facesParametric,17,59.6968972388,
./stim/MorphM4_03_orig.jpg,33,,,,,,,,,0,33,33,33,,,,,,,,,,,,,,,13.76953125,13.18359375,1,0,0,0.95387506485,,,,,2015_Oct_20_1435,G,facesParametric,17,59.6968972388,
./stim/MorphM3_06_orig.jpg,34,,,,,,,,,0,34,34,34,,,,,,,,,,,,,,,13.76953125,13.18359375,0,0,1,2.09333610535,,,,,2015_Oct_20_1435,G,facesParametric,17,59.6968972388,
./stim/MorphM8_10_orig.jpg,35,,,,,,,,,0,35,35,35,,,,,,,,,,,,,,,13.76953125,13.18359375,0,0,1,1.92618107796,,,,,2015_Oct_20_1435,G,facesParametric,17,59.6968972388,
./stim/MorphF4_04_orig.jpg,36,,,,,,,,,0,36,36,36,,,,,,,,,,,,,,,13.76953125,13.18359375,1,0,0,0.851778030396,,,,,2015_Oct_20_1435,G,facesParametric,17,59.6968972388,
./stim/MorphM6_03_orig.jpg,37,,,,,,,,,0,37,37,37,,,,,,,,,,,,,,,13.76953125,13.18359375,1,0,0,1.289539814,,,,,2015_Oct_20_1435,G,facesParametric,17,59.6968972388,
./stim/MorphM2_09_orig.jpg,38,,,,,,,,,0,38,38,38,,,,,,,,,,,,,,,13.76953125,13.18359375,0,0,1,1.15531516075,,,,,2015_Oct_20_1435,G,facesParametric,17,59.6968972388,
./stim/MorphM5_07_orig.jpg,39,,,,,,,,,0,39,39,39,,,,,,,,,,,,,,,13.76953125,13.18359375,0,0,1,2.46252799034,,,,,2015_Oct_20_1435,G,facesParametric,17,59.6968972388,
./stim/MorphF7_03_orig.jpg,40,,,,,,,,,0,40,40,40,,,,,,,,,,,,,,,13.76953125,13.18359375,1,0,0,2.98173999786,,,,,2015_Oct_20_1435,G,facesParametric,17,59.6968972388,
./stim/MorphM9_04_orig.jpg,41,,,,,,,,,0,41,41,41,,,,,,,,,,,,,,,13.76953125,13.18359375,1,0,0,1.10478496552,,,,,2015_Oct_20_1435,G,facesParametric,17,59.6968972388,
./stim/MorphF4_03_orig.jpg,42,,,,,,,,,0,42,42,42,,,,,,,,,,,,,,,13.76953125,13.18359375,1,0,0,1.22208809853,,,,,2015_Oct_20_1435,G,facesParametric,17,59.6968972388,
./stim/MorphF3_06_orig.jpg,43,,,,,,,,,0,43,43,43,,,,,,,,,,,,,,,13.740234375,13.154296875,0,0,1,1.13832211494,,,,,2015_Oct_20_1435,G,facesParametric,17,59.6968972388,
./stim/MorphM4_07_orig.jpg,44,,,,,,,,,0,44,44,44,,,,,,,,,,,,,,,13.740234375,13.154296875,0,0,1,0.635848045349,,,,,2015_Oct_20_1435,G,facesParametric,17,59.6968972388,
./stim/MorphM10_05_orig.jpg,45,,,,,,,,,0,45,45,45,,,,,,,,,,,,,,,13.65234375,12.94921875,0,0,1,0.752880811691,,,,,2015_Oct_20_1435,G,facesParametric,17,59.6968972388,
./stim/MorphF6_02_orig.jpg,46,,,,,,,,,0,46,46,46,,,,,,,,,,,,,,,13.65234375,12.94921875,0,0,1,0.753180027008,,,,,2015_Oct_20_1435,G,facesParametric,17,59.6968972388,
./stim/MorphM10_06_orig.jpg,47,,,,,,,,,0,47,47,47,,,,,,,,,,,,,,,13.65234375,12.94921875,0,0,1,1.3881418705,,,,,2015_Oct_20_1435,G,facesParametric,17,59.6968972388,
./stim/MorphF1_10_orig.jpg,48,,,,,,,,,0,48,48,48,,,,,,,,,,,,,,,13.623046875,12.919921875,0,0,1,1.24037098885,,,,,2015_Oct_20_1435,G,facesParametric,17,59.6968972388,
./stim/MorphM1_00_orig.jpg,49,,,,,,,,,0,49,49,49,,,,,,,,,,,,,,,13.623046875,12.919921875,1,0,0,0.834435939789,,,,,2015_Oct_20_1435,G,facesParametric,17,59.6968972388,
./stim/MorphM9_07_orig.jpg,50,,,,,,,,,0,50,50,50,,,,,,,,,,,,,,,13.623046875,12.919921875,0,0,1,0.986124992371,,,,,2015_Oct_20_1435,G,facesParametric,17,59.6968972388,
./stim/MorphM10_08_orig.jpg,51,,,,,,,,,0,51,51,51,,,,,,,,,,,,,,,13.623046875,12.919921875,0,0,1,0.903319835663,,,,,2015_Oct_20_1435,G,facesParametric,17,59.6968972388,
./stim/MorphF1_06_orig.jpg,52,,,,,,,,,0,52,52,52,,,,,,,,,,,,,,,13.623046875,12.919921875,1,0,0,1.74134707451,,,,,2015_Oct_20_1435,G,facesParametric,17,59.6968972388,
./stim/MorphF3_10_orig.jpg,53,,,,,,,,,0,53,53,53,,,,,,,,,,,,,,,13.623046875,12.919921875,0,0,1,1.10544705391,,,,,2015_Oct_20_1435,G,facesParametric,17,59.6968972388,
./stim/MorphF1_00_orig.jpg,54,,,,,,,,,0,54,54,54,,,,,,,,,,,,,,,13.623046875,12.919921875,1,0,0,1.17088890076,,,,,2015_Oct_20_1435,G,facesParametric,17,59.6968972388,
./stim/MorphF9_05_orig.jpg,55,,,,,,,,,0,55,55,55,,,,,,,,,,,,,,,13.65234375,13.125,0,0,1,1.87595295906,,,,,2015_Oct_20_1435,G,facesParametric,17,59.6968972388,
./stim/MorphM10_04_orig.jpg,56,,,,,,,,,0,56,56,56,,,,,,,,,,,,,,,13.65234375,12.509765625,0,0,1,0.668715000153,,,,,2015_Oct_20_1435,G,facesParametric,17,59.6968972388,
./stim/MorphM7_09_orig.jpg,57,,,,,,,,,0,57,57,57,,,,,,,,,,,,,,,13.65234375,12.5390625,0,0,1,0.919308900833,,,,,2015_Oct_20_1435,G,facesParametric,17,59.6968972388,
./stim/MorphM6_04_orig.jpg,58,,,,,,,,,0,58,58,58,,,,,,,,,,,,,,,13.65234375,12.5390625,1,0,0,0.8702647686,,,,,2015_Oct_20_1435,G,facesParametric,17,59.6968972388,
./stim/MorphF3_03_orig.jpg,59,,,,,,,,,0,59,59,59,,,,,,,,,,,,,,,13.65234375,12.5390625,1,0,0,3.36722588539,,,,,2015_Oct_20_1435,G,facesParametric,17,59.6968972388,
./stim/MorphF2_06_orig.jpg,60,,,,,,,,,0,60,60,60,,,,,,,,,,,,,,,13.65234375,12.5390625,0,0,1,1.08816313744,,,,,2015_Oct_20_1435,G,facesParametric,17,59.6968972388,
./stim/MorphF8_00_orig.jpg,61,,,,,,,,,0,61,61,61,,,,,,,,,,,,,,,13.65234375,12.5390625,1,0,0,1.0545129776,,,,,2015_Oct_20_1435,G,facesParametric,17,59.6968972388,
./stim/MorphM7_06_orig.jpg,62,,,,,,,,,0,62,62,62,,,,,,,,,,,,,,,13.65234375,12.5390625,0,0,1,1.08785700798,,,,,2015_Oct_20_1435,G,facesParametric,17,59.6968972388,
./stim/MorphM6_05_orig.jpg,63,,,,,,,,,0,63,63,63,,,,,,,,,,,,,,,13.681640625,12.978515625,1,0,0,2.78102207184,,,,,2015_Oct_20_1435,G,facesParametric,17,59.6968972388,
./stim/MorphF5_03_orig.jpg,64,,,,,,,,,0,64,64,64,,,,,,,,,,,,,,,13.681640625,12.978515625,1,0,0,1.40678191185,,,,,2015_Oct_20_1435,G,facesParametric,17,59.6968972388,
./stim/MorphM9_08_orig.jpg,65,,,,,,,,,0,65,65,65,,,,,,,,,,,,,,,13.681640625,13.06640625,0,0,1,0.803451061249,,,,,2015_Oct_20_1435,G,facesParametric,17,59.6968972388,
./stim/MorphM1_08_orig.jpg,66,,,,,,,,,0,66,66,66,,,,,,,,,,,,,,,13.7109375,13.095703125,0,0,1,0.752768993378,,,,,2015_Oct_20_1435,G,facesParametric,17,59.6968972388,
./stim/MorphF6_01_orig.jpg,67,,,,,,,,,0,67,67,67,,,,,,,,,,,,,,,13.7109375,13.0078125,0,0,1,0.618679046631,,,,,2015_Oct_20_1435,G,facesParametric,17,59.6968972388,
./stim/MorphM2_03_orig.jpg,68,,,,,,,,,0,68,68,68,,,,,,,,,,,,,,,13.7109375,12.919921875,0,0,1,0.618743896484,,,,,2015_Oct_20_1435,G,facesParametric,17,59.6968972388,
./stim/MorphM10_10_orig.jpg,69,,,,,,,,,0,69,69,69,,,,,,,,,,,,,,,13.740234375,12.978515625,0,0,1,0.601944923401,,,,,2015_Oct_20_1435,G,facesParametric,17,59.6968972388,
./stim/MorphF8_06_orig.jpg,70,,,,,,,,,0,70,70,70,,,,,,,,,,,,,,,13.798828125,13.0078125,0,0,1,0.635737895966,,,,,2015_Oct_20_1435,G,facesParametric,17,59.6968972388,
./stim/MorphM10_03_orig.jpg,71,,,,,,,,,0,71,71,71,,,,,,,,,,,,,,,13.65234375,12.744140625,0,0,1,0.55170583725,,,,,2015_Oct_20_1435,G,facesParametric,17,59.6968972388,
./stim/MorphM2_04_orig.jpg,72,,,,,,,,,0,72,72,72,,,,,,,,,,,,,,,13.740234375,13.18359375,1,0,0,0.954287052155,,,,,2015_Oct_20_1435,G,facesParametric,17,59.6968972388,
./stim/MorphM4_08_orig.jpg,73,,,,,,,,,0,73,73,73,,,,,,,,,,,,,,,13.740234375,13.18359375,0,0,1,0.686054944992,,,,,2015_Oct_20_1435,G,facesParametric,17,59.6968972388,
./stim/MorphF6_03_orig.jpg,74,,,,,,,,,0,74,74,74,,,,,,,,,,,,,,,13.740234375,13.18359375,0,0,1,0.618835926056,,,,,2015_Oct_20_1435,G,facesParametric,17,59.6968972388,
./stim/MorphM1_09_orig.jpg,75,,,,,,,,,0,75,75,75,,,,,,,,,,,,,,,13.740234375,13.18359375,0,0,1,0.568217992783,,,,,2015_Oct_20_1435,G,facesParametric,17,59.6968972388,
./stim/MorphM6_10_orig.jpg,76,,,,,,,,,0,76,76,76,,,,,,,,,,,,,,,13.740234375,13.18359375,0,0,1,1.38992905617,,,,,2015_Oct_20_1435,G,facesParametric,17,59.6968972388,
./stim/MorphF7_08_orig.jpg,77,,,,,,,,,0,77,77,77,,,,,,,,,,,,,,,13.740234375,13.18359375,0,0,1,0.870434045792,,,,,2015_Oct_20_1435,G,facesParametric,17,59.6968972388,
./stim/MorphF10_07_orig.jpg,78,,,,,,,,,0,78,78,78,,,,,,,,,,,,,,,13.740234375,13.18359375,0,0,1,0.535358190536,,,,,2015_Oct_20_1435,G,facesParametric,17,59.6968972388,
./stim/MorphF7_10_orig.jpg,79,,,,,,,,,0,79,79,79,,,,,,,,,,,,,,,13.740234375,13.18359375,0,0,1,0.618170976639,,,,,2015_Oct_20_1435,G,facesParametric,17,59.6968972388,
./stim/MorphM3_02_orig.jpg,80,,,,,,,,,0,80,80,80,,,,,,,,,,,,,,,13.740234375,13.18359375,1,0,0,2.84819793701,,,,,2015_Oct_20_1435,G,facesParametric,17,59.6968972388,
./stim/MorphF6_09_orig.jpg,81,,,,,,,,,0,81,81,81,,,,,,,,,,,,,,,13.740234375,13.18359375,0,0,1,0.668043136597,,,,,2015_Oct_20_1435,G,facesParametric,17,59.6968972388,
./stim/MorphM5_10_orig.jpg,82,,,,,,,,,0,82,82,82,,,,,,,,,,,,,,,13.740234375,13.18359375,0,0,1,0.920366048813,,,,,2015_Oct_20_1435,G,facesParametric,17,59.6968972388,
./stim/MorphF7_02_orig.jpg,83,,,,,,,,,0,83,83,83,,,,,,,,,,,,,,,13.740234375,13.18359375,0,0,1,0.601589918137,,,,,2015_Oct_20_1435,G,facesParametric,17,59.6968972388,
./stim/MorphM5_00_orig.jpg,84,,,,,,,,,0,84,84,84,,,,,,,,,,,,,,,13.740234375,13.18359375,1,0,0,1.54025602341,,,,,2015_Oct_20_1435,G,facesParametric,17,59.6968972388,
./stim/MorphM6_00_orig.jpg,85,,,,,,,,,0,85,85,85,,,,,,,,,,,,,,,13.740234375,13.18359375,1,0,0,3.01527309418,,,,,2015_Oct_20_1435,G,facesParametric,17,59.6968972388,
./stim/MorphM9_09_orig.jpg,86,,,,,,,,,0,86,86,86,,,,,,,,,,,,,,,13.740234375,13.18359375,0,0,1,0.870135068893,,,,,2015_Oct_20_1435,G,facesParametric,17,59.6968972388,
./stim/MorphF1_02_orig.jpg,87,,,,,,,,,0,87,87,87,,,,,,,,,,,,,,,13.740234375,13.18359375,1,0,0,1.07126998901,,,,,2015_Oct_20_1435,G,facesParametric,17,59.6968972388,
./stim/MorphM4_00_orig.jpg,88,,,,,,,,,0,88,88,88,,,,,,,,,,,,,,,13.740234375,13.18359375,1,0,0,0.887109041214,,,,,2015_Oct_20_1435,G,facesParametric,17,59.6968972388,
./stim/MorphM8_08_orig.jpg,89,,,,,,,,,0,89,89,89,,,,,,,,,,,,,,,13.740234375,13.18359375,0,0,1,1.49018216133,,,,,2015_Oct_20_1435,G,facesParametric,17,59.6968972388,
./stim/MorphM3_00_orig.jpg,90,,,,,,,,,0,90,90,90,,,,,,,,,,,,,,,13.740234375,13.18359375,1,0,0,1.90887117386,,,,,2015_Oct_20_1435,G,facesParametric,17,59.6968972388,
./stim/MorphM7_10_orig.jpg,91,,,,,,,,,0,91,91,91,,,,,,,,,,,,,,,13.740234375,13.18359375,0,0,1,0.935204982758,,,,,2015_Oct_20_1435,G,facesParametric,17,59.6968972388,
./stim/MorphM8_01_orig.jpg,92,,,,,,,,,0,92,92,92,,,,,,,,,,,,,,,13.740234375,13.18359375,1,0,0,1.28924608231,,,,,2015_Oct_20_1435,G,facesParametric,17,59.6968972388,
./stim/MorphM4_02_orig.jpg,93,,,,,,,,,0,93,93,93,,,,,,,,,,,,,,,13.740234375,13.18359375,1,0,0,1.37258386612,,,,,2015_Oct_20_1435,G,facesParametric,17,59.6968972388,
./stim/MorphF4_00_orig.jpg,94,,,,,,,,,0,94,94,94,,,,,,,,,,,,,,,13.7109375,13.18359375,1,0,0,0.852242946625,,,,,2015_Oct_20_1435,G,facesParametric,17,59.6968972388,
./stim/MorphM6_08_orig.jpg,95,,,,,,,,,0,95,95,95,,,,,,,,,,,,,,,14.677734375,12.041015625,1,0,0,8.68061089516,,,,,2015_Oct_20_1435,G,facesParametric,17,59.6968972388,
./stim/MorphF10_05_orig.jpg,96,,,,,,,,,0,96,96,96,,,,,,,,,,,,,,,14.70703125,12.333984375,1,0,0,1.62315797806,,,,,2015_Oct_20_1435,G,facesParametric,17,59.6968972388,
./stim/MorphM3_07_orig.jpg,97,,,,,,,,,0,97,97,97,,,,,,,,,,,,,,,14.70703125,12.421875,1,0,0,2.3450460434,,,,,2015_Oct_20_1435,G,facesParametric,17,59.6968972388,
./stim/MorphF5_07_orig.jpg,98,,,,,,,,,0,98,98,98,,,,,,,,,,,,,,,14.677734375,12.568359375,0,0,1,2.99689412117,,,,,2015_Oct_20_1435,G,facesParametric,17,59.6968972388,
./stim/MorphM3_10_orig.jpg,99,,,,,,,,,0,99,99,99,,,,,,,,,,,,,,,14.677734375,12.568359375,1,0,0,2.02590203285,,,,,2015_Oct_20_1435,G,facesParametric,17,59.6968972388,
./stim/MorphM7_07_orig.jpg,100,,,,,,,,,0,100,100,100,,,,,,,,,,,,,,,14.677734375,12.59765625,0,0,1,1.59034085274,,,,,2015_Oct_20_1435,G,facesParametric,17,59.6968972388,
./stim/MorphF3_02_orig.jpg,101,,,,,,,,,0,101,101,101,,,,,,,,,,,,,,,14.677734375,12.59765625,1,0,0,2.31025314331,,,,,2015_Oct_20_1435,G,facesParametric,17,59.6968972388,
./stim/MorphM2_07_orig.jpg,102,,,,,,,,,0,102,102,102,,,,,,,,,,,,,,,14.677734375,12.71484375,1,0,0,1.59072399139,,,,,2015_Oct_20_1435,G,facesParametric,17,59.6968972388,
./stim/MorphF1_05_orig.jpg,103,,,,,,,,,0,103,103,103,,,,,,,,,,,,,,,14.677734375,12.71484375,1,0,0,1.33978796005,,,,,2015_Oct_20_1435,G,facesParametric,17,59.6968972388,
./stim/MorphF9_10_orig.jpg,104,,,,,,,,,0,104,104,104,,,,,,,,,,,,,,,14.82421875,13.037109375,0,0,1,4.37252092361,,,,,2015_Oct_20_1435,G,facesParametric,17,59.6968972388,
./stim/MorphF3_09_orig.jpg,105,,,,,,,,,0,105,105,105,,,,,,,,,,,,,,,14.82421875,13.037109375,0,0,1,1.35540795326,,,,,2015_Oct_20_1435,G,facesParametric,17,59.6968972388,
./stim/MorphF10_06_orig.jpg,106,,,,,,,,,0,106,106,106,,,,,,,,,,,,,,,14.82421875,13.037109375,1,0,0,7.05463814735,,,,,2015_Oct_20_1435,G,facesParametric,17,59.6968972388,
./stim/MorphF3_05_orig.jpg,107,,,,,,,,,0,107,107,107,,,,,,,,,,,,,,,14.82421875,13.037109375,0,0,1,4.87552499771,,,,,2015_Oct_20_1435,G,facesParametric,17,59.6968972388,
./stim/MorphM8_06_orig.jpg,108,,,,,,,,,0,108,108,108,,,,,,,,,,,,,,,14.82421875,13.037109375,0,0,1,0.98768901825,,,,,2015_Oct_20_1435,G,facesParametric,17,59.6968972388,
./stim/MorphF2_00_orig.jpg,109,,,,,,,,,0,109,109,109,,,,,,,,,,,,,,,14.82421875,13.037109375,0,0,1,0.736496925354,,,,,2015_Oct_20_1435,G,facesParametric,17,59.6968972388,
./stim/MorphF10_10_orig.jpg,110,,,,,,,,,0,110,110,110,,,,,,,,,,,,,,,14.794921875,13.0078125,0,0,1,1.13842701912,,,,,2015_Oct_20_1435,G,facesParametric,17,59.6968972388,
./stim/MorphF8_09_orig.jpg,111,,,,,,,,,0,111,111,111,,,,,,,,,,,,,,,14.619140625,12.71484375,0,0,1,3.43256187439,,,,,2015_Oct_20_1435,G,facesParametric,17,59.6968972388,
./stim/MorphF7_05_orig.jpg,112,,,,,,,,,0,112,112,112,,,,,,,,,,,,,,,14.619140625,12.71484375,1,0,0,1.50583100319,,,,,2015_Oct_20_1435,G,facesParametric,17,59.6968972388,
./stim/MorphF3_07_orig.jpg,113,,,,,,,,,0,113,113,113,,,,,,,,,,,,,,,14.619140625,12.71484375,0,0,1,1.60524010658,,,,,2015_Oct_20_1435,G,facesParametric,17,59.6968972388,
./stim/MorphM8_05_orig.jpg,114,,,,,,,,,0,114,114,114,,,,,,,,,,,,,,,14.619140625,12.71484375,0,0,1,0.786411046982,,,,,2015_Oct_20_1435,G,facesParametric,17,59.6968972388,
./stim/MorphF9_06_orig.jpg,115,,,,,,,,,0,115,115,115,,,,,,,,,,,,,,,8.02734375,4.74609375,1,0,0,4.84225296974,,,,,2015_Oct_20_1435,G,facesParametric,17,59.6968972388,
./stim/MorphF6_06_orig.jpg,116,,,,,,,,,0,116,116,116,,,,,,,,,,,,,,,7.91015625,4.775390625,0,0,1,1.20486307144,,,,,2015_Oct_20_1435,G,facesParametric,17,59.6968972388,
./stim/MorphM6_06_orig.jpg,117,,,,,,,,,0,117,117,117,,,,,,,,,,,,,,,7.8515625,4.775390625,0,0,1,2.00915503502,,,,,2015_Oct_20_1435,G,facesParametric,17,59.6968972388,
./stim/MorphF5_04_orig.jpg,118,,,,,,,,,0,118,118,118,,,,,,,,,,,,,,,7.8515625,4.775390625,1,0,0,0.753265142441,,,,,2015_Oct_20_1435,G,facesParametric,17,59.6968972388,
./stim/MorphM8_07_orig.jpg,119,,,,,,,,,0,119,119,119,,,,,,,,,,,,,,,4.130859375,3.779296875,1,0,0,16.2219891548,,,,,2015_Oct_20_1435,G,facesParametric,17,59.6968972388,
./stim/MorphF9_08_orig.jpg,120,,,,,,,,,0,120,120,120,,,,,,,,,,,,,,,3.92578125,5.009765625,0,0,1,3.46631288528,,,,,2015_Oct_20_1435,G,facesParametric,17,59.6968972388,
./stim/MorphM4_09_orig.jpg,121,,,,,,,,,0,121,121,121,,,,,,,,,,,,,,,6.943359375,5.888671875,0,0,1,8.1776099205,,,,,2015_Oct_20_1435,G,facesParametric,17,59.6968972388,
./stim/MorphM9_06_orig.jpg,122,,,,,,,,,0,122,122,122,,,,,,,,,,,,,,,6.884765625,5.80078125,1,0,0,4.73998498917,,,,,2015_Oct_20_1435,G,facesParametric,17,59.6968972388,
./stim/MorphF8_04_orig.jpg,123,,,,,,,,,0,123,123,123,,,,,,,,,,,,,,,6.884765625,5.80078125,0,0,1,0.836612224579,,,,,2015_Oct_20_1435,G,facesParametric,17,59.6968972388,
./stim/MorphF9_09_orig.jpg,124,,,,,,,,,0,124,124,124,,,,,,,,,,,,,,,6.796875,5.56640625,0,0,1,0.585000038147,,,,,2015_Oct_20_1435,G,facesParametric,17,59.6968972388,
./stim/MorphF5_06_orig.jpg,125,,,,,,,,,0,125,125,125,,,,,,,,,,,,,,,6.708984375,5.419921875,0,0,1,0.735812187195,,,,,2015_Oct_20_1435,G,facesParametric,17,59.6968972388,
./stim/MorphM3_09_orig.jpg,126,,,,,,,,,0,126,126,126,,,,,,,,,,,,,,,7.060546875,6.85546875,0,0,1,1.38960814476,,,,,2015_Oct_20_1435,G,facesParametric,17,59.6968972388,
./stim/MorphM9_02_orig.jpg,127,,,,,,,,,0,127,127,127,,,,,,,,,,,,,,,7.353515625,6.73828125,1,0,0,1.32108998299,,,,,2015_Oct_20_1435,G,facesParametric,17,59.6968972388,
./stim/MorphF1_03_orig.jpg,128,,,,,,,,,0,128,128,128,,,,,,,,,,,,,,,7.353515625,6.73828125,0,0,1,1.23802495003,,,,,2015_Oct_20_1435,G,facesParametric,17,59.6968972388,
./stim/MorphM9_10_orig.jpg,129,,,,,,,,,0,129,129,129,,,,,,,,,,,,,,,7.353515625,6.73828125,0,0,1,0.750952959061,,,,,2015_Oct_20_1435,G,facesParametric,17,59.6968972388,
./stim/MorphF5_09_orig.jpg,130,,,,,,,,,0,130,130,130,,,,,,,,,,,,,,,7.353515625,6.73828125,0,0,1,0.769554138184,,,,,2015_Oct_20_1435,G,facesParametric,17,59.6968972388,
./stim/MorphF4_09_orig.jpg,131,,,,,,,,,0,131,131,131,,,,,,,,,,,,,,,7.353515625,6.73828125,0,0,1,1.40654492378,,,,,2015_Oct_20_1435,G,facesParametric,17,59.6968972388,
./stim/MorphF7_06_orig.jpg,132,,,,,,,,,0,132,132,132,,,,,,,,,,,,,,,7.470703125,6.826171875,0,0,1,2.37886691093,,,,,2015_Oct_20_1435,G,facesParametric,17,59.6968972388,
./stim/MorphM4_01_orig.jpg,133,,,,,,,,,0,133,133,133,,,,,,,,,,,,,,,7.470703125,6.826171875,1,0,0,1.05434417725,,,,,2015_Oct_20_1435,G,facesParametric,17,59.6968972388,
./stim/MorphM8_02_orig.jpg,134,,,,,,,,,0,134,134,134,,,,,,,,,,,,,,,7.470703125,6.826171875,1,0,0,7.15542292595,,,,,2015_Oct_20_1435,G,facesParametric,17,59.6968972388,
./stim/MorphM6_07_orig.jpg,135,,,,,,,,,0,135,135,135,,,,,,,,,,,,,,,7.470703125,6.85546875,1,0,0,9.18289995193,,,,,2015_Oct_20_1435,G,facesParametric,17,59.6968972388,
./stim/MorphM3_03_orig.jpg,136,,,,,,,,,0,136,136,136,,,,,,,,,,,,,,,7.3828125,6.650390625,1,0,0,8.7639670372,,,,,2015_Oct_20_1435,G,facesParametric,17,59.6968972388,
./stim/MorphF4_07_orig.jpg,137,,,,,,,,,0,137,137,137,,,,,,,,,,,,,,,7.412109375,6.650390625,1,0,0,7.33951997757,,,,,2015_Oct_20_1435,G,facesParametric,17,59.6968972388,
./stim/MorphF10_08_orig.jpg,138,,,,,,,,,0,138,138,138,,,,,,,,,,,,,,,7.3828125,6.6796875,0,0,1,4.7907781601,,,,,2015_Oct_20_1435,G,facesParametric,17,59.6968972388,
./stim/MorphF7_04_orig.jpg,139,,,,,,,,,0,139,139,139,,,,,,,,,,,,,,,7.3828125,6.6796875,1,0,0,1.05451011658,,,,,2015_Oct_20_1435,G,facesParametric,17,59.6968972388,
./stim/MorphF6_04_orig.jpg,140,,,,,,,,,0,140,140,140,,,,,,,,,,,,,,,7.470703125,6.62109375,0,0,1,2.39542508125,,,,,2015_Oct_20_1435,G,facesParametric,17,59.6968972388,
./stim/MorphF3_04_orig.jpg,141,,,,,,,,,0,141,141,141,,,,,,,,,,,,,,,7.412109375,6.796875,1,0,0,7.45673394203,,,,,2015_Oct_20_1435,G,facesParametric,17,59.6968972388,
./stim/MorphF9_03_orig.jpg,142,,,,,,,,,0,142,142,142,,,,,,,,,,,,,,,7.412109375,6.796875,1,0,0,0.835546016693,,,,,2015_Oct_20_1435,G,facesParametric,17,59.6968972388,
./stim/MorphM5_03_orig.jpg,143,,,,,,,,,0,143,143,143,,,,,,,,,,,,,,,2.255859375,4.423828125,1,0,0,16.0376260281,,,,,2015_Oct_20_1435,G,facesParametric,17,59.6968972388,
./stim/MorphF5_02_orig.jpg,144,,,,,,,,,0,144,144,144,,,,,,,,,,,,,,,2.28515625,4.39453125,1,0,0,0.717367172241,,,,,2015_Oct_20_1435,G,facesParametric,17,59.6968972388,
./stim/MorphM4_06_orig.jpg,145,,,,,,,,,0,145,145,145,,,,,,,,,,,,,,,2.28515625,4.39453125,1,0,0,1.12207698822,,,,,2015_Oct_20_1435,G,facesParametric,17,59.6968972388,
./stim/MorphF2_10_orig.jpg,146,,,,,,,,,0,146,146,146,,,,,,,,,,,,,,,2.28515625,4.39453125,0,0,1,0.985096931458,,,,,2015_Oct_20_1435,G,facesParametric,17,59.6968972388,
./stim/MorphF7_00_orig.jpg,147,,,,,,,,,0,147,147,147,,,,,,,,,,,,,,,2.28515625,4.39453125,1,0,0,0.769747018814,,,,,2015_Oct_20_1435,G,facesParametric,17,59.6968972388,
./stim/MorphF8_07_orig.jpg,148,,,,,,,,,0,148,148,148,,,,,,,,,,,,,,,2.28515625,4.39453125,1,0,0,1.13640117645,,,,,2015_Oct_20_1435,G,facesParametric,17,59.6968972388,
./stim/MorphM2_08_orig.jpg,149,,,,,,,,,0,149,149,149,,,,,,,,,,,,,,,2.28515625,4.39453125,0,0,1,0.952934980392,,,,,2015_Oct_20_1435,G,facesParametric,17,59.6968972388,
./stim/MorphF3_01_orig.jpg,150,,,,,,,,,0,150,150,150,,,,,,,,,,,,,,,2.958984375,4.072265625,1,0,0,20.999022007,,,,,2015_Oct_20_1435,G,facesParametric,17,59.6968972388,
./stim/MorphF8_01_orig.jpg,151,,,,,,,,,0,151,151,151,,,,,,,,,,,,,,,2.98828125,4.16015625,1,0,0,2.74711298943,,,,,2015_Oct_20_1435,G,facesParametric,17,59.6968972388,
./stim/MorphF7_09_orig.jpg,152,,,,,,,,,0,152,152,152,,,,,,,,,,,,,,,2.98828125,4.16015625,0,0,1,0.4680519104,,,,,2015_Oct_20_1435,G,facesParametric,17,59.6968972388,
./stim/MorphF10_01_orig.jpg,153,,,,,,,,,0,153,153,153,,,,,,,,,,,,,,,2.98828125,4.16015625,0,0,1,0.869622945786,,,,,2015_Oct_20_1435,G,facesParametric,17,59.6968972388,
./stim/MorphF5_00_orig.jpg,154,,,,,,,,,0,154,154,154,,,,,,,,,,,,,,,2.98828125,4.16015625,1,0,0,1.22014093399,,,,,2015_Oct_20_1435,G,facesParametric,17,59.6968972388,
./stim/MorphF9_00_orig.jpg,155,,,,,,,,,0,155,155,155,,,,,,,,,,,,,,,2.958984375,4.189453125,1,0,0,0.903172969818,,,,,2015_Oct_20_1435,G,facesParametric,17,59.6968972388,
./stim/MorphF8_03_orig.jpg,156,,,,,,,,,0,156,156,156,,,,,,,,,,,,,,,2.9296875,4.189453125,0,0,1,1.18763208389,,,,,2015_Oct_20_1435,G,facesParametric,17,59.6968972388,
./stim/MorphM8_04_orig.jpg,157,,,,,,,,,0,157,157,157,,,,,,,,,,,,,,,2.900390625,4.21875,1,0,0,1.22216820717,,,,,2015_Oct_20_1435,G,facesParametric,17,59.6968972388,
./stim/MorphM9_03_orig.jpg,158,,,,,,,,,0,158,158,158,,,,,,,,,,,,,,,3.720703125,5.126953125,1,0,0,4.67460393906,,,,,2015_Oct_20_1435,G,facesParametric,17,59.6968972388,
./stim/MorphM10_02_orig.jpg,159,,,,,,,,,0,159,159,159,,,,,,,,,,,,,,,3.720703125,5.126953125,1,0,0,1.5744240284,,,,,2015_Oct_20_1435,G,facesParametric,17,59.6968972388,
./stim/MorphF8_05_orig.jpg,160,,,,,,,,,0,160,160,160,,,,,,,,,,,,,,,3.720703125,5.126953125,0,0,1,1.02099704742,,,,,2015_Oct_20_1435,G,facesParametric,17,59.6968972388,
./stim/MorphF9_02_orig.jpg,161,,,,,,,,,0,161,161,161,,,,,,,,,,,,,,,3.720703125,5.126953125,1,0,0,0.701421976089,,,,,2015_Oct_20_1435,G,facesParametric,17,59.6968972388,
./stim/MorphM6_01_orig.jpg,162,,,,,,,,,0,162,162,162,,,,,,,,,,,,,,,3.720703125,5.126953125,1,0,0,1.97440695763,,,,,2015_Oct_20_1435,G,facesParametric,17,59.6968972388,
./stim/MorphF4_08_orig.jpg,163,,,,,,,,,0,163,163,163,,,,,,,,,,,,,,,3.720703125,5.126953125,1,0,0,0.93706703186,,,,,2015_Oct_20_1435,G,facesParametric,17,59.6968972388,
./stim/MorphM5_02_orig.jpg,164,,,,,,,,,0,164,164,164,,,,,,,,,,,,,,,3.720703125,5.126953125,1,0,0,0.969496011734,,,,,2015_Oct_20_1435,G,facesParametric,17,59.6968972388,
./stim/MorphM7_01_orig.jpg,165,,,,,,,,,0,165,165,165,,,,,,,,,,,,,,,3.720703125,5.126953125,1,0,0,1.2205760479,,,,,2015_Oct_20_1435,G,facesParametric,17,59.6968972388,
./stim/MorphF2_02_orig.jpg,166,,,,,,,,,0,166,166,166,,,,,,,,,,,,,,,3.69140625,5.244140625,0,0,1,0.718333005905,,,,,2015_Oct_20_1435,G,facesParametric,17,59.6968972388,
./stim/MorphM7_05_orig.jpg,167,,,,,,,,,0,167,167,167,,,,,,,,,,,,,,,3.69140625,5.2734375,1,0,0,0.73472905159,,,,,2015_Oct_20_1435,G,facesParametric,17,59.6968972388,
./stim/MorphM8_09_orig.jpg,168,,,,,,,,,0,168,168,168,,,,,,,,,,,,,,,3.69140625,5.2734375,0,0,1,1.92605996132,,,,,2015_Oct_20_1435,G,facesParametric,17,59.6968972388,
./stim/MorphF8_02_orig.jpg,169,,,,,,,,,0,169,169,169,,,,,,,,,,,,,,,3.69140625,5.2734375,1,0,0,0.350603103638,,,,,2015_Oct_20_1435,G,facesParametric,17,59.6968972388,
./stim/MorphF1_07_orig.jpg,170,,,,,,,,,0,170,170,170,,,,,,,,,,,,,,,3.69140625,5.2734375,1,0,0,1.37329888344,,,,,2015_Oct_20_1435,G,facesParametric,17,59.6968972388,
./stim/MorphM1_10_orig.jpg,171,,,,,,,,,0,171,171,171,,,,,,,,,,,,,,,3.69140625,5.2734375,0,0,1,0.535075902939,,,,,2015_Oct_20_1435,G,facesParametric,17,59.6968972388,
./stim/MorphF7_01_orig.jpg,172,,,,,,,,,0,172,172,172,,,,,,,,,,,,,,,3.69140625,5.2734375,1,0,0,0.667928934097,,,,,2015_Oct_20_1435,G,facesParametric,17,59.6968972388,
./stim/MorphF4_01_orig.jpg,173,,,,,,,,,0,173,173,173,,,,,,,,,,,,,,,3.69140625,5.2734375,0,0,1,0.501351118088,,,,,2015_Oct_20_1435,G,facesParametric,17,59.6968972388,
./stim/MorphF2_03_orig.jpg,174,,,,,,,,,0,174,174,174,,,,,,,,,,,,,,,3.69140625,5.2734375,1,0,0,0.836810827255,,,,,2015_Oct_20_1435,G,facesParametric,17,59.6968972388,
./stim/MorphM7_00_orig.jpg,175,,,,,,,,,0,175,175,175,,,,,,,,,,,,,,,3.779296875,5.21484375,1,0,0,3.23326587677,,,,,2015_Oct_20_1435,G,facesParametric,17,59.6968972388,
./stim/MorphM3_04_orig.jpg,176,,,,,,,,,0,176,176,176,,,,,,,,,,,,,,,3.779296875,5.21484375,0,0,1,0.937054157257,,,,,2015_Oct_20_1435,G,facesParametric,17,59.6968972388,
./stim/MorphM1_06_orig.jpg,177,,,,,,,,,0,177,177,177,,,,,,,,,,,,,,,4.39453125,6.50390625,1,0,0,30.4514620304,,,,,2015_Oct_20_1435,G,facesParametric,17,59.6968972388,
./stim/MorphM10_07_orig.jpg,178,,,,,,,,,0,178,178,178,,,,,,,,,,,,,,,4.306640625,6.650390625,0,0,1,0.784224033356,,,,,2015_Oct_20_1435,G,facesParametric,17,59.6968972388,
./stim/MorphM1_01_orig.jpg,179,,,,,,,,,0,179,179,179,,,,,,,,,,,,,,,4.27734375,6.6796875,1,0,0,0.90393614769,,,,,2015_Oct_20_1435,G,facesParametric,17,59.6968972388,
./stim/MorphM5_08_orig.jpg,180,,,,,,,,,0,180,180,180,,,,,,,,,,,,,,,4.27734375,6.6796875,0,0,1,0.986746788025,,,,,2015_Oct_20_1435,G,facesParametric,17,59.6968972388,
./stim/MorphF5_10_orig.jpg,181,,,,,,,,,0,181,181,181,,,,,,,,,,,,,,,4.27734375,6.650390625,1,0,0,0.819984912872,,,,,2015_Oct_20_1435,G,facesParametric,17,59.6968972388,
./stim/MorphF2_04_orig.jpg,182,,,,,,,,,0,182,182,182,,,,,,,,,,,,,,,4.306640625,6.62109375,1,0,0,1.07122802734,,,,,2015_Oct_20_1435,G,facesParametric,17,59.6968972388,
./stim/MorphF6_08_orig.jpg,183,,,,,,,,,0,183,183,183,,,,,,,,,,,,,,,4.3359375,6.767578125,1,0,0,1.20520997047,,,,,2015_Oct_20_1435,G,facesParametric,17,59.6968972388,
./stim/MorphM1_07_orig.jpg,184,,,,,,,,,0,184,184,184,,,,,,,,,,,,,,,4.365234375,6.796875,1,0,0,0.602167844772,,,,,2015_Oct_20_1435,G,facesParametric,17,59.6968972388,
./stim/MorphM10_09_orig.jpg,185,,,,,,,,,0,185,185,185,,,,,,,,,,,,,,,4.39453125,6.767578125,1,0,0,0.97062587738,,,,,2015_Oct_20_1435,G,facesParametric,17,59.6968972388,
./stim/MorphF10_02_orig.jpg,186,,,,,,,,,0,186,186,186,,,,,,,,,,,,,,,4.39453125,6.767578125,0,0,1,0.384644985199,,,,,2015_Oct_20_1435,G,facesParametric,17,59.6968972388,
./stim/MorphF8_10_orig.jpg,187,,,,,,,,,0,187,187,187,,,,,,,,,,,,,,,4.39453125,6.767578125,1,0,0,0.752820014954,,,,,2015_Oct_20_1435,G,facesParametric,17,59.6968972388,
./stim/MorphF1_08_orig.jpg,188,,,,,,,,,0,188,188,188,,,,,,,,,,,,,,,4.39453125,6.767578125,1,0,0,1.2395260334,,,,,2015_Oct_20_1435,G,facesParametric,17,59.6968972388,
./stim/MorphF2_01_orig.jpg,189,,,,,,,,,0,189,189,189,,,,,,,,,,,,,,,4.423828125,6.73828125,1,0,0,0.936372995377,,,,,2015_Oct_20_1435,G,facesParametric,17,59.6968972388,
./stim/MorphM4_10_orig.jpg,190,,,,,,,,,0,190,190,190,,,,,,,,,,,,,,,4.423828125,6.73828125,1,0,0,0.718095064163,,,,,2015_Oct_20_1435,G,facesParametric,17,59.6968972388,
./stim/MorphM10_00_orig.jpg,191,,,,,,,,,0,191,191,191,,,,,,,,,,,,,,,4.423828125,6.73828125,0,0,1,0.616633892059,,,,,2015_Oct_20_1435,G,facesParametric,17,59.6968972388,
./stim/MorphF9_07_orig.jpg,192,,,,,,,,,0,192,192,192,,,,,,,,,,,,,,,4.423828125,6.73828125,1,0,0,0.853574991226,,,,,2015_Oct_20_1435,G,facesParametric,17,59.6968972388,
./stim/MorphM2_00_orig.jpg,193,,,,,,,,,0,193,193,193,,,,,,,,,,,,,,,4.423828125,6.73828125,0,0,1,0.584506988525,,,,,2015_Oct_20_1435,G,facesParametric,17,59.6968972388,
./stim/MorphF2_07_orig.jpg,194,,,,,,,,,0,194,194,194,,,,,,,,,,,,,,,4.423828125,6.73828125,1,0,0,0.350555896759,,,,,2015_Oct_20_1435,G,facesParametric,17,59.6968972388,
./stim/MorphM2_01_orig.jpg,195,,,,,,,,,0,195,195,195,,,,,,,,,,,,,,,4.423828125,6.73828125,1,0,0,0.753771066666,,,,,2015_Oct_20_1435,G,facesParametric,17,59.6968972388,
./stim/MorphF9_04_orig.jpg,196,,,,,,,,,0,196,196,196,,,,,,,,,,,,,,,4.423828125,6.73828125,1,0,0,1.42322492599,,,,,2015_Oct_20_1435,G,facesParametric,17,59.6968972388,
./stim/MorphM8_00_orig.jpg,197,,,,,,,,,0,197,197,197,,,,,,,,,,,,,,,4.423828125,6.73828125,0,0,1,0.366891145706,,,,,2015_Oct_20_1435,G,facesParametric,17,59.6968972388,
./stim/MorphF8_08_orig.jpg,198,,,,,,,,,0,198,198,198,,,,,,,,,,,,,,,4.39453125,6.708984375,1,0,0,6.13265800476,,,,,2015_Oct_20_1435,G,facesParametric,17,59.6968972388,
./stim/MorphM5_04_orig.jpg,199,,,,,,,,,0,199,199,199,,,,,,,,,,,,,,,4.39453125,6.708984375,0,0,1,1.57378101349,,,,,2015_Oct_20_1435,G,facesParametric,17,59.6968972388,
./stim/MorphF4_05_orig.jpg,200,,,,,,,,,0,200,200,200,,,,,,,,,,,,,,,4.39453125,6.708984375,1,0,0,0.601624011993,,,,,2015_Oct_20_1435,G,facesParametric,17,59.6968972388,
./stim/MorphF6_10_orig.jpg,201,,,,,,,,,0,201,201,201,,,,,,,,,,,,,,,4.27734375,6.6796875,0,0,1,1.82546305656,,,,,2015_Oct_20_1435,G,facesParametric,17,59.6968972388,
./stim/MorphF2_09_orig.jpg,202,,,,,,,,,0,202,202,202,,,,,,,,,,,,,,,4.189453125,6.767578125,1,0,0,0.904039144516,,,,,2015_Oct_20_1435,G,facesParametric,17,59.6968972388,
./stim/MorphF10_04_orig.jpg,203,,,,,,,,,0,203,203,203,,,,,,,,,,,,,,,4.189453125,6.767578125,1,0,0,0.970633029938,,,,,2015_Oct_20_1435,G,facesParametric,17,59.6968972388,
./stim/MorphF6_05_orig.jpg,204,,,,,,,,,0,204,204,204,,,,,,,,,,,,,,,4.189453125,6.767578125,1,0,0,1.28988695145,,,,,2015_Oct_20_1435,G,facesParametric,17,59.6968972388,
./stim/MorphM2_06_orig.jpg,205,,,,,,,,,0,205,205,205,,,,,,,,,,,,,,,4.189453125,6.767578125,0,0,1,0.602421998978,,,,,2015_Oct_20_1435,G,facesParametric,17,59.6968972388,
./stim/MorphM5_06_orig.jpg,206,,,,,,,,,0,206,206,206,,,,,,,,,,,,,,,4.189453125,6.767578125,1,0,0,2.0754711628,,,,,2015_Oct_20_1435,G,facesParametric,17,59.6968972388,
./stim/MorphM9_00_orig.jpg,207,,,,,,,,,0,207,207,207,,,,,,,,,,,,,,,4.189453125,6.85546875,0,0,1,0.636071920395,,,,,2015_Oct_20_1435,G,facesParametric,17,59.6968972388,
./stim/MorphM1_03_orig.jpg,208,,,,,,,,,0,208,208,208,,,,,,,,,,,,,,,4.21875,6.826171875,1,0,0,0.450568914413,,,,,2015_Oct_20_1435,G,facesParametric,17,59.6968972388,
./stim/MorphF3_00_orig.jpg,209,,,,,,,,,0,209,209,209,,,,,,,,,,,,,,,4.716796875,6.15234375,1,0,0,1.17063808441,,,,,2015_Oct_20_1435,G,facesParametric,17,59.6968972388,
./stim/MorphF9_01_orig.jpg,210,,,,,,,,,0,210,210,210,,,,,,,,,,,,,,,4.716796875,6.240234375,0,0,1,1.05456805229,,,,,2015_Oct_20_1435,G,facesParametric,17,59.6968972388,
./stim/MorphF1_01_orig.jpg,211,,,,,,,,,0,211,211,211,,,,,,,,,,,,,,,4.716796875,6.240234375,0,0,1,0.417726039886,,,,,2015_Oct_20_1435,G,facesParametric,17,59.6968972388,
./stim/MorphM5_09_orig.jpg,212,,,,,,,,,0,212,212,212,,,,,,,,,,,,,,,4.6875,6.26953125,1,0,0,0.785106182098,,,,,2015_Oct_20_1435,G,facesParametric,17,59.6968972388,
./stim/MorphM1_05_orig.jpg,213,,,,,,,,,0,213,213,213,,,,,,,,,,,,,,,4.6875,6.26953125,1,0,0,0.819164991379,,,,,2015_Oct_20_1435,G,facesParametric,17,59.6968972388,
./stim/MorphF10_09_orig.jpg,214,,,,,,,,,0,214,214,214,,,,,,,,,,,,,,,4.6875,6.26953125,1,0,0,0.870054960251,,,,,2015_Oct_20_1435,G,facesParametric,17,59.6968972388,
./stim/MorphF2_05_orig.jpg,215,,,,,,,,,0,215,215,215,,,,,,,,,,,,,,,4.6875,6.26953125,0,0,1,0.919190883636,,,,,2015_Oct_20_1435,G,facesParametric,17,59.6968972388,
./stim/MorphM1_02_orig.jpg,216,,,,,,,,,0,216,216,216,,,,,,,,,,,,,,,4.62890625,6.26953125,1,0,0,0.652626991272,,,,,2015_Oct_20_1435,G,facesParametric,17,59.6968972388,
./stim/MorphM9_05_orig.jpg,217,,,,,,,,,0,217,217,217,,,,,,,,,,,,,,,4.62890625,6.26953125,1,0,0,1.80735111237,,,,,2015_Oct_20_1435,G,facesParametric,17,59.6968972388,
./stim/MorphM6_09_orig.jpg,218,,,,,,,,,0,218,218,218,,,,,,,,,,,,,,,4.599609375,6.357421875,0,0,1,0.534778118134,,,,,2015_Oct_20_1435,G,facesParametric,17,59.6968972388,
./stim/MorphF1_09_orig.jpg,219,,,,,,,,,0,219,219,219,,,,,,,,,,,,,,,4.599609375,6.357421875,1,0,0,0.434908151627,,,,,2015_Oct_20_1435,G,facesParametric,17,59.6968972388,
,,,,,,,,,,,,,,,,,,,,,,,,,,,,,,,,,,,,return,84.1791231632,2015_Oct_20_1435,G,facesParametric,17,59.6968972388,
