img,num,basicLoop.thisRepN,basicLoop.thisTrialN,basicLoop.thisN,basicLoop.thisIndex,trials.thisRepN,trials.thisTrialN,trials.thisN,trials.thisIndex,trials2.thisRepN,trials2.thisTrialN,trials2.thisN,trials2.thisIndex,key_resp_2.keys,key_resp_2.rt,basicRating1.response,basicRating1.rt,basicRating2.response,basicRating2.rt,basicRating3.response,basicRating3.rt,basicRating4.response,basicRating4.rt,key_resp_3.keys,key_resp_3.rt,key_resp_4.keys,key_resp_4.rt,mouseResp.x,mouseResp.y,mouseResp.leftButton,mouseResp.midButton,mouseResp.rightButton,mouseResp.time,key_resp_5.keys,key_resp_5.rt,date,group,expName,participant,frameRate,
,,,,,,,,,,,,,,return,48.2595658302,,,,,,,,,,,,,,,,,,,,,2015_Aug_23_1225,A,facesParametric,1,59.8211201456,
./basicStim/23M_HA_O.jpg,,0,0,0,52,,,,,,,,,,,HAP,5.641,None,None,None,None,None,None,,,,,,,,,,,,,2015_Aug_23_1225,A,facesParametric,1,59.8211201456,
./basicStim/34M_FE_O.jpg,,0,1,1,72,,,,,,,,,,,None,None,FEA,3.339,None,None,None,None,,,,,,,,,,,,,2015_Aug_23_1225,A,facesParametric,1,59.8211201456,
./basicStim/24M_HA_O.jpg,,0,2,2,59,,,,,,,,,,,HAP,2.5,None,None,None,None,None,None,,,,,,,,,,,,,2015_Aug_23_1225,A,facesParametric,1,59.8211201456,
./basicStim/06F_FE_O.jpg,,0,3,3,23,,,,,,,,,,,None,None,None,None,SUP,2.266,None,None,,,,,,,,,,,,,2015_Aug_23_1225,A,facesParametric,1,59.8211201456,
./basicStim/24M_FE_O.jpg,,0,4,4,58,,,,,,,,,,,None,None,None,None,DIS,1.694,None,None,,,,,,,,,,,,,2015_Aug_23_1225,A,facesParametric,1,59.8211201456,
./basicStim/36M_HA_O.jpg,,0,5,5,80,,,,,,,,,,,HAP,1.564,None,None,None,None,None,None,,,,,,,,,,,,,2015_Aug_23_1225,A,facesParametric,1,59.8211201456,
./basicStim/23M_SP_O.jpg,,0,6,6,54,,,,,,,,,,,None,None,None,None,SUP,1.447,None,None,,,,,,,,,,,,,2015_Aug_23_1225,A,facesParametric,1,59.8211201456,
./basicStim/21M_FE_O.jpg,,0,7,7,44,,,,,,,,,,,None,None,ANG,2.067,None,None,None,None,,,,,,,,,,,,,2015_Aug_23_1225,A,facesParametric,1,59.8211201456,
./basicStim/34M_NE_C.jpg,,0,8,8,76,,,,,,,,,,,SAD,10.781,None,None,None,None,None,None,,,,,,,,,,,,,2015_Aug_23_1225,A,facesParametric,1,59.8211201456,
./basicStim/02F_FE_O.jpg,,0,9,9,9,,,,,,,,,,,None,None,None,None,DIS,1.699,None,None,,,,,,,,,,,,,2015_Aug_23_1225,A,facesParametric,1,59.8211201456,
./basicStim/21M_SA_C.jpg,,0,10,10,46,,,,,,,,,,,None,None,ANG,5.406,None,None,None,None,,,,,,,,,,,,,2015_Aug_23_1225,A,facesParametric,1,59.8211201456,
./basicStim/36M_AN_O.jpg,,0,11,11,77,,,,,,,,,,,None,None,ANG,1.491,None,None,None,None,,,,,,,,,,,,,2015_Aug_23_1225,A,facesParametric,1,59.8211201456,
./basicStim/34M_SP_O.jpg,,0,12,12,75,,,,,,,,,,,None,None,None,None,SUP,1.293,None,None,,,,,,,,,,,,,2015_Aug_23_1225,A,facesParametric,1,59.8211201456,
./basicStim/28M_FE_O.jpg,,0,13,13,65,,,,,,,,,,,None,None,None,None,DIS,3.387,None,None,,,,,,,,,,,,,2015_Aug_23_1225,A,facesParametric,1,59.8211201456,
./basicStim/03F_HA_O.jpg,,0,14,14,17,,,,,,,,,,,HAP,1.347,None,None,None,None,None,None,,,,,,,,,,,,,2015_Aug_23_1225,A,facesParametric,1,59.8211201456,
./basicStim/09F_NE_C.jpg,,0,15,15,41,,,,,,,,,,,SAD,2.32,None,None,None,None,None,None,,,,,,,,,,,,,2015_Aug_23_1225,A,facesParametric,1,59.8211201456,
./basicStim/03F_SA_C.jpg,,0,16,16,18,,,,,,,,,,,SAD,1.246,None,None,None,None,None,None,,,,,,,,,,,,,2015_Aug_23_1225,A,facesParametric,1,59.8211201456,
./basicStim/36M_FE_O.jpg,,0,17,17,79,,,,,,,,,,,None,None,None,None,DIS,3.746,None,None,,,,,,,,,,,,,2015_Aug_23_1225,A,facesParametric,1,59.8211201456,
./basicStim/03F_DI_O.jpg,,0,18,18,15,,,,,,,,,,,None,None,None,None,DIS,1.309,None,None,,,,,,,,,,,,,2015_Aug_23_1225,A,facesParametric,1,59.8211201456,
./basicStim/28M_NE_C.jpg,,0,19,19,69,,,,,,,,,,,SAD,4.362,None,None,None,None,None,None,,,,,,,,,,,,,2015_Aug_23_1225,A,facesParametric,1,59.8211201456,
./basicStim/28M_AN_O.jpg,,0,20,20,63,,,,,,,,,,,None,None,ANG,3.391,None,None,None,None,,,,,,,,,,,,,2015_Aug_23_1225,A,facesParametric,1,59.8211201456,
./basicStim/07F_SP_O.jpg,,0,21,21,33,,,,,,,,,,,None,None,None,None,SUP,1.728,None,None,,,,,,,,,,,,,2015_Aug_23_1225,A,facesParametric,1,59.8211201456,
./basicStim/06F_HA_O.jpg,,0,22,22,24,,,,,,,,,,,HAP,1.701,None,None,None,None,None,None,,,,,,,,,,,,,2015_Aug_23_1225,A,facesParametric,1,59.8211201456,
./basicStim/34M_SA_C.jpg,,0,23,23,74,,,,,,,,,,,SAD,2.203,None,None,None,None,None,None,,,,,,,,,,,,,2015_Aug_23_1225,A,facesParametric,1,59.8211201456,
./basicStim/28M_DI_O.jpg,,0,24,24,64,,,,,,,,,,,None,None,None,None,DIS,1.224,None,None,,,,,,,,,,,,,2015_Aug_23_1225,A,facesParametric,1,59.8211201456,
./basicStim/28M_HA_O.jpg,,0,25,25,66,,,,,,,,,,,HAP,1.198,None,None,None,None,None,None,,,,,,,,,,,,,2015_Aug_23_1225,A,facesParametric,1,59.8211201456,
./basicStim/34M_HA_O.jpg,,0,26,26,73,,,,,,,,,,,HAP,0.749,None,None,None,None,None,None,,,,,,,,,,,,,2015_Aug_23_1225,A,facesParametric,1,59.8211201456,
./basicStim/23M_NE_C.jpg,,0,27,27,55,,,,,,,,,,,None,None,None,None,None,None,NTR,4.058,,,,,,,,,,,,,2015_Aug_23_1225,A,facesParametric,1,59.8211201456,
./basicStim/07F_SA_C.jpg,,0,28,28,32,,,,,,,,,,,None,None,None,None,SUP,3.087,None,None,,,,,,,,,,,,,2015_Aug_23_1225,A,facesParametric,1,59.8211201456,
./basicStim/21M_DI_O.jpg,,0,29,29,43,,,,,,,,,,,None,None,None,None,DIS,1.578,None,None,,,,,,,,,,,,,2015_Aug_23_1225,A,facesParametric,1,59.8211201456,
./basicStim/07F_FE_O.jpg,,0,30,30,30,,,,,,,,,,,None,None,FEA,1.849,None,None,None,None,,,,,,,,,,,,,2015_Aug_23_1225,A,facesParametric,1,59.8211201456,
./basicStim/23M_AN_O.jpg,,0,31,31,49,,,,,,,,,,,None,None,ANG,0.962,None,None,None,None,,,,,,,,,,,,,2015_Aug_23_1225,A,facesParametric,1,59.8211201456,
./basicStim/02F_SP_O.jpg,,0,32,32,12,,,,,,,,,,,None,None,None,None,SUP,1.391,None,None,,,,,,,,,,,,,2015_Aug_23_1225,A,facesParametric,1,59.8211201456,
./basicStim/03F_AN_O.jpg,,0,33,33,14,,,,,,,,,,,None,None,ANG,1.447,None,None,None,None,,,,,,,,,,,,,2015_Aug_23_1225,A,facesParametric,1,59.8211201456,
./basicStim/36M_SP_O.jpg,,0,34,34,82,,,,,,,,,,,None,None,None,None,SUP,1.46,None,None,,,,,,,,,,,,,2015_Aug_23_1225,A,facesParametric,1,59.8211201456,
./basicStim/28M_SP_O.jpg,,0,35,35,68,,,,,,,,,,,None,None,FEA,1.179,None,None,None,None,,,,,,,,,,,,,2015_Aug_23_1225,A,facesParametric,1,59.8211201456,
./basicStim/06F_SP_O.jpg,,0,36,36,26,,,,,,,,,,,None,None,FEA,1.478,None,None,None,None,,,,,,,,,,,,,2015_Aug_23_1225,A,facesParametric,1,59.8211201456,
./basicStim/02F_SA_C.jpg,,0,37,37,11,,,,,,,,,,,SAD,2.137,None,None,None,None,None,None,,,,,,,,,,,,,2015_Aug_23_1225,A,facesParametric,1,59.8211201456,
./basicStim/28M_SA_C.jpg,,0,38,38,67,,,,,,,,,,,SAD,7.309,None,None,None,None,None,None,,,,,,,,,,,,,2015_Aug_23_1225,A,facesParametric,1,59.8211201456,
./basicStim/03F_SP_O.jpg,,0,39,39,19,,,,,,,,,,,None,None,None,None,SUP,1.867,None,None,,,,,,,,,,,,,2015_Aug_23_1225,A,facesParametric,1,59.8211201456,
./basicStim/02F_DI_O.jpg,,0,40,40,8,,,,,,,,,,,None,None,None,None,DIS,1.682,None,None,,,,,,,,,,,,,2015_Aug_23_1225,A,facesParametric,1,59.8211201456,
./basicStim/01F_NE_C.jpg,,0,41,41,6,,,,,,,,,,,SAD,2.605,None,None,None,None,None,None,,,,,,,,,,,,,2015_Aug_23_1225,A,facesParametric,1,59.8211201456,
./basicStim/03F_FE_O.jpg,,0,42,42,16,,,,,,,,,,,None,None,None,None,SUP,2.818,None,None,,,,,,,,,,,,,2015_Aug_23_1225,A,facesParametric,1,59.8211201456,
./basicStim/21M_SP_O.jpg,,0,43,43,47,,,,,,,,,,,None,None,None,None,SUP,2.769,None,None,,,,,,,,,,,,,2015_Aug_23_1225,A,facesParametric,1,59.8211201456,
./basicStim/34M_DI_O.jpg,,0,44,44,71,,,,,,,,,,,None,None,None,None,DIS,3.872,None,None,,,,,,,,,,,,,2015_Aug_23_1225,A,facesParametric,1,59.8211201456,
./basicStim/06F_AN_O.jpg,,0,45,45,21,,,,,,,,,,,None,None,ANG,2.088,None,None,None,None,,,,,,,,,,,,,2015_Aug_23_1225,A,facesParametric,1,59.8211201456,
./basicStim/34M_AN_O.jpg,,0,46,46,70,,,,,,,,,,,None,None,ANG,1.665,None,None,None,None,,,,,,,,,,,,,2015_Aug_23_1225,A,facesParametric,1,59.8211201456,
./basicStim/02F_NE_C.jpg,,0,47,47,13,,,,,,,,,,,SAD,1.264,None,None,None,None,None,None,,,,,,,,,,,,,2015_Aug_23_1225,A,facesParametric,1,59.8211201456,
./basicStim/23M_SA_C.jpg,,0,48,48,53,,,,,,,,,,,SAD,3.14,None,None,None,None,None,None,,,,,,,,,,,,,2015_Aug_23_1225,A,facesParametric,1,59.8211201456,
./basicStim/01F_SP_O.jpg,,0,49,49,5,,,,,,,,,,,None,None,None,None,SUP,2.152,None,None,,,,,,,,,,,,,2015_Aug_23_1225,A,facesParametric,1,59.8211201456,
./basicStim/06F_NE_C.jpg,,0,50,50,27,,,,,,,,,,,SAD,1.936,None,None,None,None,None,None,,,,,,,,,,,,,2015_Aug_23_1225,A,facesParametric,1,59.8211201456,
./basicStim/01F_HA_O.jpg,,0,51,51,3,,,,,,,,,,,HAP,1.545,None,None,None,None,None,None,,,,,,,,,,,,,2015_Aug_23_1225,A,facesParametric,1,59.8211201456,
./basicStim/09F_SA_C.jpg,,0,52,52,39,,,,,,,,,,,None,None,ANG,4.1,None,None,None,None,,,,,,,,,,,,,2015_Aug_23_1225,A,facesParametric,1,59.8211201456,
./basicStim/01F_AN_O.jpg,,0,53,53,0,,,,,,,,,,,None,None,ANG,0.709,None,None,None,None,,,,,,,,,,,,,2015_Aug_23_1225,A,facesParametric,1,59.8211201456,
./basicStim/07F_NE_C.jpg,,0,54,54,34,,,,,,,,,,,SAD,5.824,None,None,None,None,None,None,,,,,,,,,,,,,2015_Aug_23_1225,A,facesParametric,1,59.8211201456,
./basicStim/23M_FE_O.jpg,,0,55,55,51,,,,,,,,,,,None,None,FEA,2.767,None,None,None,None,,,,,,,,,,,,,2015_Aug_23_1225,A,facesParametric,1,59.8211201456,
./basicStim/21M_AN_O.jpg,,0,56,56,42,,,,,,,,,,,None,None,ANG,1.711,None,None,None,None,,,,,,,,,,,,,2015_Aug_23_1225,A,facesParametric,1,59.8211201456,
./basicStim/07F_HA_O.jpg,,0,57,57,31,,,,,,,,,,,HAP,1.428,None,None,None,None,None,None,,,,,,,,,,,,,2015_Aug_23_1225,A,facesParametric,1,59.8211201456,
./basicStim/24M_NE_C.jpg,,0,58,58,62,,,,,,,,,,,None,None,None,None,None,None,NTR,4.875,,,,,,,,,,,,,2015_Aug_23_1225,A,facesParametric,1,59.8211201456,
./basicStim/21M_NE_C.jpg,,0,59,59,48,,,,,,,,,,,SAD,6.913,None,None,None,None,None,None,,,,,,,,,,,,,2015_Aug_23_1225,A,facesParametric,1,59.8211201456,
./basicStim/01F_DI_O.jpg,,0,60,60,1,,,,,,,,,,,None,None,ANG,2.655,None,None,None,None,,,,,,,,,,,,,2015_Aug_23_1225,A,facesParametric,1,59.8211201456,
./basicStim/07F_AN_O.jpg,,0,61,61,28,,,,,,,,,,,None,None,ANG,0.949,None,None,None,None,,,,,,,,,,,,,2015_Aug_23_1225,A,facesParametric,1,59.8211201456,
./basicStim/36M_SA_C.jpg,,0,62,62,81,,,,,,,,,,,SAD,1.77,None,None,None,None,None,None,,,,,,,,,,,,,2015_Aug_23_1225,A,facesParametric,1,59.8211201456,
./basicStim/24M_AN_O.jpg,,0,63,63,56,,,,,,,,,,,None,None,ANG,1.469,None,None,None,None,,,,,,,,,,,,,2015_Aug_23_1225,A,facesParametric,1,59.8211201456,
./basicStim/01F_SA_C.jpg,,0,64,64,4,,,,,,,,,,,SAD,5.744,None,None,None,None,None,None,,,,,,,,,,,,,2015_Aug_23_1225,A,facesParametric,1,59.8211201456,
./basicStim/36M_NE_C.jpg,,0,65,65,83,,,,,,,,,,,None,None,None,None,None,None,NTR,4.995,,,,,,,,,,,,,2015_Aug_23_1225,A,facesParametric,1,59.8211201456,
./basicStim/02F_HA_O.jpg,,0,66,66,10,,,,,,,,,,,HAP,1.536,None,None,None,None,None,None,,,,,,,,,,,,,2015_Aug_23_1225,A,facesParametric,1,59.8211201456,
./basicStim/09F_AN_O.jpg,,0,67,67,35,,,,,,,,,,,None,None,ANG,1.937,None,None,None,None,,,,,,,,,,,,,2015_Aug_23_1225,A,facesParametric,1,59.8211201456,
./basicStim/09F_FE_O.jpg,,0,68,68,37,,,,,,,,,,,None,None,FEA,1.721,None,None,None,None,,,,,,,,,,,,,2015_Aug_23_1225,A,facesParametric,1,59.8211201456,
./basicStim/36M_DI_O.jpg,,0,69,69,78,,,,,,,,,,,None,None,None,None,DIS,1.343,None,None,,,,,,,,,,,,,2015_Aug_23_1225,A,facesParametric,1,59.8211201456,
./basicStim/03F_NE_C.jpg,,0,70,70,20,,,,,,,,,,,None,None,None,None,None,None,NTR,2.732,,,,,,,,,,,,,2015_Aug_23_1225,A,facesParametric,1,59.8211201456,
./basicStim/01F_FE_O.jpg,,0,71,71,2,,,,,,,,,,,None,None,FEA,3.671,None,None,None,None,,,,,,,,,,,,,2015_Aug_23_1225,A,facesParametric,1,59.8211201456,
./basicStim/09F_HA_O.jpg,,0,72,72,38,,,,,,,,,,,HAP,0.862,None,None,None,None,None,None,,,,,,,,,,,,,2015_Aug_23_1225,A,facesParametric,1,59.8211201456,
./basicStim/24M_SA_C.jpg,,0,73,73,60,,,,,,,,,,,SAD,3.363,None,None,None,None,None,None,,,,,,,,,,,,,2015_Aug_23_1225,A,facesParametric,1,59.8211201456,
./basicStim/09F_DI_O.jpg,,0,74,74,36,,,,,,,,,,,None,None,None,None,DIS,1.261,None,None,,,,,,,,,,,,,2015_Aug_23_1225,A,facesParametric,1,59.8211201456,
./basicStim/02F_AN_O.jpg,,0,75,75,7,,,,,,,,,,,None,None,ANG,1.886,None,None,None,None,,,,,,,,,,,,,2015_Aug_23_1225,A,facesParametric,1,59.8211201456,
./basicStim/06F_SA_C.jpg,,0,76,76,25,,,,,,,,,,,None,None,None,None,DIS,5.349,None,None,,,,,,,,,,,,,2015_Aug_23_1225,A,facesParametric,1,59.8211201456,
./basicStim/24M_DI_O.jpg,,0,77,77,57,,,,,,,,,,,None,None,ANG,5.317,None,None,None,None,,,,,,,,,,,,,2015_Aug_23_1225,A,facesParametric,1,59.8211201456,
./basicStim/06F_DI_O.jpg,,0,78,78,22,,,,,,,,,,,None,None,None,None,DIS,1.359,None,None,,,,,,,,,,,,,2015_Aug_23_1225,A,facesParametric,1,59.8211201456,
./basicStim/24M_SP_O.jpg,,0,79,79,61,,,,,,,,,,,None,None,None,None,SUP,2.047,None,None,,,,,,,,,,,,,2015_Aug_23_1225,A,facesParametric,1,59.8211201456,
./basicStim/23M_DI_O.jpg,,0,80,80,50,,,,,,,,,,,None,None,None,None,DIS,2.688,None,None,,,,,,,,,,,,,2015_Aug_23_1225,A,facesParametric,1,59.8211201456,
./basicStim/09F_SP_O.jpg,,0,81,81,40,,,,,,,,,,,None,None,None,None,SUP,3.638,None,None,,,,,,,,,,,,,2015_Aug_23_1225,A,facesParametric,1,59.8211201456,
./basicStim/07F_DI_O.jpg,,0,82,82,29,,,,,,,,,,,None,None,None,None,DIS,4.232,None,None,,,,,,,,,,,,,2015_Aug_23_1225,A,facesParametric,1,59.8211201456,
./basicStim/21M_HA_O.jpg,,0,83,83,45,,,,,,,,,,,HAP,2.266,None,None,None,None,None,None,,,,,,,,,,,,,2015_Aug_23_1225,A,facesParametric,1,59.8211201456,
,,,,,,,,,,,,,,,,,,,,,,,,return,70.5421688557,,,,,,,,,,,2015_Aug_23_1225,A,facesParametric,1,59.8211201456,
,,,,,,,,,,,,,,return,16.4573459625,,,,,,,,,,,,,,,,,,,,,2015_Aug_23_1225,A,facesParametric,1,59.8211201456,
,,,,,,,,,,,,,,,,,,,,,,,,return,40.7103960514,,,,,,,,,,,2015_Aug_23_1225,A,facesParametric,1,59.8211201456,
,,,,,,,,,,,,,,,,,,,,,,,,,,return,6.30083012581,,,,,,,,,2015_Aug_23_1225,A,facesParametric,1,59.8211201456,
./stim/MorphM6_10_orig.jpg,0,,,,,0,0,0,0,,,,,,,,,,,,,,,,,,,-7.67578125,-13.06640625,0,0,1,9.16474413872,,,2015_Aug_23_1225,A,facesParametric,1,59.8211201456,
./stim/MorphF9_04_orig.jpg,1,,,,,0,1,1,1,,,,,,,,,,,,,,,,,,,-7.67578125,-13.06640625,1,0,0,2.00951290131,,,2015_Aug_23_1225,A,facesParametric,1,59.8211201456,
./stim/MorphM3_03_orig.jpg,2,,,,,0,2,2,2,,,,,,,,,,,,,,,,,,,-7.67578125,-13.06640625,1,0,0,1.45493912697,,,2015_Aug_23_1225,A,facesParametric,1,59.8211201456,
./stim/MorphM1_00_orig.jpg,3,,,,,0,3,3,3,,,,,,,,,,,,,,,,,,,-7.67578125,-13.037109375,1,0,0,1.57543921471,,,2015_Aug_23_1225,A,facesParametric,1,59.8211201456,
./stim/MorphM6_09_orig.jpg,4,,,,,0,4,4,4,,,,,,,,,,,,,,,,,,,-7.67578125,-13.037109375,0,0,1,1.72372221947,,,2015_Aug_23_1225,A,facesParametric,1,59.8211201456,
./stim/MorphM10_02_orig.jpg,5,,,,,0,5,5,5,,,,,,,,,,,,,,,,,,,-7.6171875,-13.037109375,0,0,1,1.48925805092,,,2015_Aug_23_1225,A,facesParametric,1,59.8211201456,
./stim/MorphM3_06_orig.jpg,6,,,,,0,6,6,6,,,,,,,,,,,,,,,,,,,-7.587890625,-13.037109375,0,0,1,1.59061288834,,,2015_Aug_23_1225,A,facesParametric,1,59.8211201456,
./stim/MorphM7_08_orig.jpg,7,,,,,0,7,7,7,,,,,,,,,,,,,,,,,,,-7.44140625,-12.978515625,0,0,1,1.0539431572,,,2015_Aug_23_1225,A,facesParametric,1,59.8211201456,
./stim/MorphM6_04_orig.jpg,8,,,,,0,8,8,8,,,,,,,,,,,,,,,,,,,-7.3828125,-12.978515625,1,0,0,1.23837089539,,,2015_Aug_23_1225,A,facesParametric,1,59.8211201456,
./stim/MorphM2_05_orig.jpg,9,,,,,0,9,9,9,,,,,,,,,,,,,,,,,,,-7.353515625,-12.94921875,1,0,0,1.38863682747,,,2015_Aug_23_1225,A,facesParametric,1,59.8211201456,
./stim/MorphM3_01_orig.jpg,10,,,,,0,10,10,10,,,,,,,,,,,,,,,,,,,-7.353515625,-12.94921875,1,0,0,1.44004416466,,,2015_Aug_23_1225,A,facesParametric,1,59.8211201456,
./stim/MorphF1_03_orig.jpg,11,,,,,0,11,11,11,,,,,,,,,,,,,,,,,,,-7.353515625,-12.94921875,1,0,0,1.13678407669,,,2015_Aug_23_1225,A,facesParametric,1,59.8211201456,
./stim/MorphF8_09_orig.jpg,12,,,,,0,12,12,12,,,,,,,,,,,,,,,,,,,-7.32421875,-12.919921875,0,0,1,1.23769807816,,,2015_Aug_23_1225,A,facesParametric,1,59.8211201456,
./stim/MorphF3_01_orig.jpg,13,,,,,0,13,13,13,,,,,,,,,,,,,,,,,,,-7.177734375,-12.978515625,1,0,0,1.55653095245,,,2015_Aug_23_1225,A,facesParametric,1,59.8211201456,
./stim/MorphF7_03_orig.jpg,14,,,,,0,14,14,14,,,,,,,,,,,,,,,,,,,-7.08984375,-12.919921875,1,0,0,2.16120314598,,,2015_Aug_23_1225,A,facesParametric,1,59.8211201456,
./stim/MorphM1_05_orig.jpg,15,,,,,0,15,15,15,,,,,,,,,,,,,,,,,,,-7.08984375,-12.919921875,1,0,0,1.42095398903,,,2015_Aug_23_1225,A,facesParametric,1,59.8211201456,
./stim/MorphM5_08_orig.jpg,16,,,,,0,16,16,16,,,,,,,,,,,,,,,,,,,-7.08984375,-12.919921875,0,0,1,4.22252011299,,,2015_Aug_23_1225,A,facesParametric,1,59.8211201456,
./stim/MorphF7_01_orig.jpg,17,,,,,0,17,17,17,,,,,,,,,,,,,,,,,,,-7.08984375,-12.919921875,1,0,0,1.40685915947,,,2015_Aug_23_1225,A,facesParametric,1,59.8211201456,
./stim/MorphF1_10_orig.jpg,18,,,,,0,18,18,18,,,,,,,,,,,,,,,,,,,-7.08984375,-12.919921875,0,0,1,2.62774610519,,,2015_Aug_23_1225,A,facesParametric,1,59.8211201456,
./stim/MorphF9_06_orig.jpg,19,,,,,0,19,19,19,,,,,,,,,,,,,,,,,,,-7.08984375,-12.919921875,0,0,1,2.07543611526,,,2015_Aug_23_1225,A,facesParametric,1,59.8211201456,
./stim/MorphM4_00_orig.jpg,20,,,,,0,20,20,20,,,,,,,,,,,,,,,,,,,-7.08984375,-12.919921875,1,0,0,1.13869380951,,,2015_Aug_23_1225,A,facesParametric,1,59.8211201456,
./stim/MorphM10_08_orig.jpg,21,,,,,0,21,21,21,,,,,,,,,,,,,,,,,,,-7.001953125,-12.861328125,0,0,1,1.60754609108,,,2015_Aug_23_1225,A,facesParametric,1,59.8211201456,
./stim/MorphF8_07_orig.jpg,22,,,,,0,22,22,22,,,,,,,,,,,,,,,,,,,-7.001953125,-12.861328125,0,0,1,1.22234106064,,,2015_Aug_23_1225,A,facesParametric,1,59.8211201456,
./stim/MorphF6_02_orig.jpg,23,,,,,0,23,23,23,,,,,,,,,,,,,,,,,,,-6.97265625,-12.861328125,1,0,0,2.17755913734,,,2015_Aug_23_1225,A,facesParametric,1,59.8211201456,
./stim/MorphM2_08_orig.jpg,24,,,,,0,24,24,24,,,,,,,,,,,,,,,,,,,-6.97265625,-12.861328125,0,0,1,4.49059605598,,,2015_Aug_23_1225,A,facesParametric,1,59.8211201456,
./stim/MorphF9_05_orig.jpg,25,,,,,0,25,25,25,,,,,,,,,,,,,,,,,,,-6.97265625,-12.861328125,1,0,0,5.82892894745,,,2015_Aug_23_1225,A,facesParametric,1,59.8211201456,
./stim/MorphF1_08_orig.jpg,26,,,,,0,26,26,26,,,,,,,,,,,,,,,,,,,-6.97265625,-12.861328125,0,0,1,3.73628401756,,,2015_Aug_23_1225,A,facesParametric,1,59.8211201456,
./stim/MorphF6_09_orig.jpg,27,,,,,0,27,27,27,,,,,,,,,,,,,,,,,,,-6.97265625,-12.861328125,0,0,1,0.853235006332,,,2015_Aug_23_1225,A,facesParametric,1,59.8211201456,
./stim/MorphF2_09_orig.jpg,28,,,,,0,28,28,28,,,,,,,,,,,,,,,,,,,-7.001953125,-12.890625,0,0,1,0.887817144394,,,2015_Aug_23_1225,A,facesParametric,1,59.8211201456,
./stim/MorphF1_04_orig.jpg,29,,,,,0,29,29,29,,,,,,,,,,,,,,,,,,,-7.001953125,-12.890625,1,0,0,3.4672369957,,,2015_Aug_23_1225,A,facesParametric,1,59.8211201456,
./stim/MorphM4_06_orig.jpg,30,,,,,0,30,30,30,,,,,,,,,,,,,,,,,,,-7.001953125,-12.890625,0,0,1,1.02115988731,,,2015_Aug_23_1225,A,facesParametric,1,59.8211201456,
./stim/MorphM5_04_orig.jpg,31,,,,,0,31,31,31,,,,,,,,,,,,,,,,,,,-7.001953125,-12.890625,1,0,0,2.52925682068,,,2015_Aug_23_1225,A,facesParametric,1,59.8211201456,
./stim/MorphF10_02_orig.jpg,32,,,,,0,32,32,32,,,,,,,,,,,,,,,,,,,-7.001953125,-12.890625,1,0,0,3.08154010773,,,2015_Aug_23_1225,A,facesParametric,1,59.8211201456,
./stim/MorphF6_05_orig.jpg,33,,,,,0,33,33,33,,,,,,,,,,,,,,,,,,,-7.001953125,-12.890625,1,0,0,1.39027404785,,,2015_Aug_23_1225,A,facesParametric,1,59.8211201456,
./stim/MorphF8_01_orig.jpg,34,,,,,0,34,34,34,,,,,,,,,,,,,,,,,,,-6.97265625,-12.890625,1,0,0,1.6580760479,,,2015_Aug_23_1225,A,facesParametric,1,59.8211201456,
./stim/MorphM2_06_orig.jpg,35,,,,,0,35,35,35,,,,,,,,,,,,,,,,,,,-6.943359375,-12.890625,0,0,1,1.95949101448,,,2015_Aug_23_1225,A,facesParametric,1,59.8211201456,
./stim/MorphM9_02_orig.jpg,36,,,,,0,36,36,36,,,,,,,,,,,,,,,,,,,-6.884765625,-12.83203125,1,0,0,1.37288284302,,,2015_Aug_23_1225,A,facesParametric,1,59.8211201456,
./stim/MorphM5_03_orig.jpg,37,,,,,0,37,37,37,,,,,,,,,,,,,,,,,,,-7.08984375,-12.861328125,1,0,0,6.61702108383,,,2015_Aug_23_1225,A,facesParametric,1,59.8211201456,
./stim/MorphM4_01_orig.jpg,38,,,,,0,38,38,38,,,,,,,,,,,,,,,,,,,-7.060546875,-12.83203125,1,0,0,1.17186379433,,,2015_Aug_23_1225,A,facesParametric,1,59.8211201456,
./stim/MorphM6_05_orig.jpg,39,,,,,0,39,39,39,,,,,,,,,,,,,,,,,,,-7.001953125,-12.802734375,1,0,0,1.99347710609,,,2015_Aug_23_1225,A,facesParametric,1,59.8211201456,
./stim/MorphF4_02_orig.jpg,40,,,,,0,40,40,40,,,,,,,,,,,,,,,,,,,-6.943359375,-12.7734375,1,0,0,1.38798117638,,,2015_Aug_23_1225,A,facesParametric,1,59.8211201456,
./stim/MorphM9_03_orig.jpg,41,,,,,0,41,41,41,,,,,,,,,,,,,,,,,,,-6.943359375,-12.7734375,1,0,0,2.27690815926,,,2015_Aug_23_1225,A,facesParametric,1,59.8211201456,
./stim/MorphF4_06_orig.jpg,42,,,,,0,42,42,42,,,,,,,,,,,,,,,,,,,-6.943359375,-12.7734375,0,0,1,1.08843278885,,,2015_Aug_23_1225,A,facesParametric,1,59.8211201456,
./stim/MorphF5_00_orig.jpg,43,,,,,0,43,43,43,,,,,,,,,,,,,,,,,,,-6.943359375,-12.7734375,1,0,0,2.0246629715,,,2015_Aug_23_1225,A,facesParametric,1,59.8211201456,
./stim/MorphM7_04_orig.jpg,44,,,,,0,44,44,44,,,,,,,,,,,,,,,,,,,-6.9140625,-12.744140625,0,0,1,2.09315395355,,,2015_Aug_23_1225,A,facesParametric,1,59.8211201456,
./stim/MorphF1_07_orig.jpg,45,,,,,0,45,45,45,,,,,,,,,,,,,,,,,,,-6.884765625,-12.71484375,0,0,1,1.55655384064,,,2015_Aug_23_1225,A,facesParametric,1,59.8211201456,
./stim/MorphF7_02_orig.jpg,46,,,,,0,46,46,46,,,,,,,,,,,,,,,,,,,-6.884765625,-12.71484375,1,0,0,4.72526311874,,,2015_Aug_23_1225,A,facesParametric,1,59.8211201456,
./stim/MorphF3_08_orig.jpg,47,,,,,0,47,47,47,,,,,,,,,,,,,,,,,,,-6.884765625,-12.71484375,0,0,1,1.33994984627,,,2015_Aug_23_1225,A,facesParametric,1,59.8211201456,
./stim/MorphM4_03_orig.jpg,48,,,,,0,48,48,48,,,,,,,,,,,,,,,,,,,-6.884765625,-12.71484375,0,0,1,1.37078619003,,,2015_Aug_23_1225,A,facesParametric,1,59.8211201456,
./stim/MorphM7_05_orig.jpg,49,,,,,0,49,49,49,,,,,,,,,,,,,,,,,,,-6.85546875,-12.744140625,0,0,1,1.65804815292,,,2015_Aug_23_1225,A,facesParametric,1,59.8211201456,
./stim/MorphM4_08_orig.jpg,50,,,,,0,50,50,50,,,,,,,,,,,,,,,,,,,-6.85546875,-12.744140625,0,0,1,1.05552005768,,,2015_Aug_23_1225,A,facesParametric,1,59.8211201456,
./stim/MorphM2_03_orig.jpg,51,,,,,0,51,51,51,,,,,,,,,,,,,,,,,,,-6.85546875,-12.744140625,1,0,0,1.28822517395,,,2015_Aug_23_1225,A,facesParametric,1,59.8211201456,
./stim/MorphF3_10_orig.jpg,52,,,,,0,52,52,52,,,,,,,,,,,,,,,,,,,-6.85546875,-12.744140625,0,0,1,1.25376701355,,,2015_Aug_23_1225,A,facesParametric,1,59.8211201456,
./stim/MorphF6_08_orig.jpg,53,,,,,0,53,53,53,,,,,,,,,,,,,,,,,,,-6.85546875,-12.744140625,0,0,1,1.07139182091,,,2015_Aug_23_1225,A,facesParametric,1,59.8211201456,
./stim/MorphM3_10_orig.jpg,54,,,,,0,54,54,54,,,,,,,,,,,,,,,,,,,-6.85546875,-12.744140625,0,0,1,1.12128400803,,,2015_Aug_23_1225,A,facesParametric,1,59.8211201456,
./stim/MorphM10_03_orig.jpg,55,,,,,0,55,55,55,,,,,,,,,,,,,,,,,,,-6.85546875,-12.744140625,1,0,0,1.85928916931,,,2015_Aug_23_1225,A,facesParametric,1,59.8211201456,
./stim/MorphF2_03_orig.jpg,56,,,,,0,56,56,56,,,,,,,,,,,,,,,,,,,-6.85546875,-12.744140625,1,0,0,2.09348011017,,,2015_Aug_23_1225,A,facesParametric,1,59.8211201456,
./stim/MorphM7_10_orig.jpg,57,,,,,0,57,57,57,,,,,,,,,,,,,,,,,,,-6.85546875,-12.744140625,0,0,1,1.15379309654,,,2015_Aug_23_1225,A,facesParametric,1,59.8211201456,
./stim/MorphF8_00_orig.jpg,58,,,,,0,58,58,58,,,,,,,,,,,,,,,,,,,-6.826171875,-12.71484375,1,0,0,1.32123398781,,,2015_Aug_23_1225,A,facesParametric,1,59.8211201456,
./stim/MorphF7_07_orig.jpg,59,,,,,0,59,59,59,,,,,,,,,,,,,,,,,,,-6.826171875,-12.71484375,0,0,1,1.02008700371,,,2015_Aug_23_1225,A,facesParametric,1,59.8211201456,
./stim/MorphM8_09_orig.jpg,60,,,,,0,60,60,60,,,,,,,,,,,,,,,,,,,-6.826171875,-12.71484375,0,0,1,0.970203876495,,,2015_Aug_23_1225,A,facesParametric,1,59.8211201456,
./stim/MorphF5_08_orig.jpg,61,,,,,0,61,61,61,,,,,,,,,,,,,,,,,,,-6.826171875,-12.71484375,0,0,1,1.18935894966,,,2015_Aug_23_1225,A,facesParametric,1,59.8211201456,
./stim/MorphM8_00_orig.jpg,62,,,,,0,62,62,62,,,,,,,,,,,,,,,,,,,-6.796875,-12.685546875,1,0,0,4.00400590897,,,2015_Aug_23_1225,A,facesParametric,1,59.8211201456,
./stim/MorphF4_04_orig.jpg,63,,,,,0,63,63,63,,,,,,,,,,,,,,,,,,,-6.796875,-12.685546875,1,0,0,0.903898954391,,,2015_Aug_23_1225,A,facesParametric,1,59.8211201456,
./stim/MorphM8_05_orig.jpg,64,,,,,0,64,64,64,,,,,,,,,,,,,,,,,,,-6.796875,-12.685546875,0,0,1,1.30557703972,,,2015_Aug_23_1225,A,facesParametric,1,59.8211201456,
./stim/MorphM1_09_orig.jpg,65,,,,,0,65,65,65,,,,,,,,,,,,,,,,,,,-6.796875,-12.685546875,0,0,1,0.95408987999,,,2015_Aug_23_1225,A,facesParametric,1,59.8211201456,
./stim/MorphF8_04_orig.jpg,66,,,,,0,66,66,66,,,,,,,,,,,,,,,,,,,-6.796875,-12.685546875,1,0,0,2.09360408783,,,2015_Aug_23_1225,A,facesParametric,1,59.8211201456,
./stim/MorphM10_07_orig.jpg,67,,,,,0,67,67,67,,,,,,,,,,,,,,,,,,,-6.796875,-12.685546875,0,0,1,1.97643303871,,,2015_Aug_23_1225,A,facesParametric,1,59.8211201456,
./stim/MorphM5_05_orig.jpg,68,,,,,0,68,68,68,,,,,,,,,,,,,,,,,,,-6.767578125,-12.685546875,1,0,0,5.94848012924,,,2015_Aug_23_1225,A,facesParametric,1,59.8211201456,
./stim/MorphM3_02_orig.jpg,69,,,,,0,69,69,69,,,,,,,,,,,,,,,,,,,-6.708984375,-12.65625,0,0,1,1.05285692215,,,2015_Aug_23_1225,A,facesParametric,1,59.8211201456,
./stim/MorphF2_08_orig.jpg,70,,,,,0,70,70,70,,,,,,,,,,,,,,,,,,,-6.6796875,-12.65625,0,0,1,0.818068981171,,,2015_Aug_23_1225,A,facesParametric,1,59.8211201456,
./stim/MorphM5_00_orig.jpg,71,,,,,0,71,71,71,,,,,,,,,,,,,,,,,,,-6.6796875,-12.65625,1,0,0,4.82553887367,,,2015_Aug_23_1225,A,facesParametric,1,59.8211201456,
./stim/MorphF6_07_orig.jpg,72,,,,,0,72,72,72,,,,,,,,,,,,,,,,,,,-6.62109375,-12.568359375,0,0,1,0.986410856247,,,2015_Aug_23_1225,A,facesParametric,1,59.8211201456,
./stim/MorphM7_07_orig.jpg,73,,,,,0,73,73,73,,,,,,,,,,,,,,,,,,,-6.62109375,-12.568359375,0,0,1,0.953974962234,,,2015_Aug_23_1225,A,facesParametric,1,59.8211201456,
./stim/MorphM4_05_orig.jpg,74,,,,,0,74,74,74,,,,,,,,,,,,,,,,,,,-6.650390625,-12.5390625,0,0,1,3.9849190712,,,2015_Aug_23_1225,A,facesParametric,1,59.8211201456,
./stim/MorphF1_02_orig.jpg,75,,,,,0,75,75,75,,,,,,,,,,,,,,,,,,,-6.650390625,-12.568359375,1,0,0,1.77523303032,,,2015_Aug_23_1225,A,facesParametric,1,59.8211201456,
./stim/MorphM1_03_orig.jpg,76,,,,,0,76,76,76,,,,,,,,,,,,,,,,,,,-6.650390625,-12.568359375,1,0,0,1.07179713249,,,2015_Aug_23_1225,A,facesParametric,1,59.8211201456,
./stim/MorphM6_01_orig.jpg,77,,,,,0,77,77,77,,,,,,,,,,,,,,,,,,,-6.650390625,-12.568359375,1,0,0,0.886949062347,,,2015_Aug_23_1225,A,facesParametric,1,59.8211201456,
./stim/MorphF5_05_orig.jpg,78,,,,,0,78,78,78,,,,,,,,,,,,,,,,,,,-6.650390625,-12.568359375,1,0,0,2.32784605026,,,2015_Aug_23_1225,A,facesParametric,1,59.8211201456,
./stim/MorphF4_10_orig.jpg,79,,,,,0,79,79,79,,,,,,,,,,,,,,,,,,,-6.650390625,-12.568359375,0,0,1,1.08694505692,,,2015_Aug_23_1225,A,facesParametric,1,59.8211201456,
./stim/MorphF9_03_orig.jpg,80,,,,,0,80,80,80,,,,,,,,,,,,,,,,,,,-6.650390625,-12.59765625,1,0,0,2.62995696068,,,2015_Aug_23_1225,A,facesParametric,1,59.8211201456,
./stim/MorphM8_04_orig.jpg,81,,,,,0,81,81,81,,,,,,,,,,,,,,,,,,,-6.650390625,-12.59765625,1,0,0,4.35597681999,,,2015_Aug_23_1225,A,facesParametric,1,59.8211201456,
./stim/MorphF2_04_orig.jpg,82,,,,,0,82,82,82,,,,,,,,,,,,,,,,,,,-6.650390625,-12.59765625,1,0,0,1.07178401947,,,2015_Aug_23_1225,A,facesParametric,1,59.8211201456,
./stim/MorphM10_01_orig.jpg,83,,,,,0,83,83,83,,,,,,,,,,,,,,,,,,,-6.650390625,-12.59765625,1,0,0,1.37291693687,,,2015_Aug_23_1225,A,facesParametric,1,59.8211201456,
./stim/MorphF6_10_orig.jpg,84,,,,,0,84,84,84,,,,,,,,,,,,,,,,,,,-6.62109375,-12.65625,0,0,1,0.920220136642,,,2015_Aug_23_1225,A,facesParametric,1,59.8211201456,
./stim/MorphF10_00_orig.jpg,85,,,,,0,85,85,85,,,,,,,,,,,,,,,,,,,-6.62109375,-12.65625,1,0,0,3.78631401062,,,2015_Aug_23_1225,A,facesParametric,1,59.8211201456,
./stim/MorphM10_04_orig.jpg,86,,,,,0,86,86,86,,,,,,,,,,,,,,,,,,,-6.62109375,-12.65625,0,0,1,3.41794586182,,,2015_Aug_23_1225,A,facesParametric,1,59.8211201456,
./stim/MorphM4_07_orig.jpg,87,,,,,0,87,87,87,,,,,,,,,,,,,,,,,,,-6.62109375,-12.65625,0,0,1,1.18859815598,,,2015_Aug_23_1225,A,facesParametric,1,59.8211201456,
./stim/MorphF10_07_orig.jpg,88,,,,,0,88,88,88,,,,,,,,,,,,,,,,,,,-6.650390625,-12.685546875,0,0,1,0.752678871155,,,2015_Aug_23_1225,A,facesParametric,1,59.8211201456,
./stim/MorphF8_02_orig.jpg,89,,,,,0,89,89,89,,,,,,,,,,,,,,,,,,,-6.708984375,-12.71484375,1,0,0,1.00454807281,,,2015_Aug_23_1225,A,facesParametric,1,59.8211201456,
./stim/MorphM10_06_orig.jpg,90,,,,,0,90,90,90,,,,,,,,,,,,,,,,,,,-6.708984375,-12.71484375,0,0,1,1.13670897484,,,2015_Aug_23_1225,A,facesParametric,1,59.8211201456,
./stim/MorphF6_06_orig.jpg,91,,,,,0,91,91,91,,,,,,,,,,,,,,,,,,,-6.708984375,-12.71484375,0,0,1,1.08743190765,,,2015_Aug_23_1225,A,facesParametric,1,59.8211201456,
./stim/MorphF2_07_orig.jpg,92,,,,,0,92,92,92,,,,,,,,,,,,,,,,,,,-6.650390625,-12.744140625,0,0,1,1.40527296066,,,2015_Aug_23_1225,A,facesParametric,1,59.8211201456,
./stim/MorphF3_04_orig.jpg,93,,,,,0,93,93,93,,,,,,,,,,,,,,,,,,,-6.591796875,-12.802734375,1,0,0,1.8901078701,,,2015_Aug_23_1225,A,facesParametric,1,59.8211201456,
./stim/MorphM10_10_orig.jpg,94,,,,,0,94,94,94,,,,,,,,,,,,,,,,,,,-6.5625,-12.7734375,0,0,1,0.920831918716,,,2015_Aug_23_1225,A,facesParametric,1,59.8211201456,
./stim/MorphF3_06_orig.jpg,95,,,,,0,95,95,95,,,,,,,,,,,,,,,,,,,-6.533203125,-12.7734375,0,0,1,2.34327292442,,,2015_Aug_23_1225,A,facesParametric,1,59.8211201456,
./stim/MorphM8_06_orig.jpg,96,,,,,0,96,96,96,,,,,,,,,,,,,,,,,,,-6.50390625,-12.802734375,0,0,1,3.63568997383,,,2015_Aug_23_1225,A,facesParametric,1,59.8211201456,
./stim/MorphM4_02_orig.jpg,97,,,,,0,97,97,97,,,,,,,,,,,,,,,,,,,-6.50390625,-12.802734375,1,0,0,1.45691299438,,,2015_Aug_23_1225,A,facesParametric,1,59.8211201456,
./stim/MorphF9_08_orig.jpg,98,,,,,0,98,98,98,,,,,,,,,,,,,,,,,,,-6.533203125,-12.802734375,1,0,0,1.79164004326,,,2015_Aug_23_1225,A,facesParametric,1,59.8211201456,
./stim/MorphF3_07_orig.jpg,99,,,,,0,99,99,99,,,,,,,,,,,,,,,,,,,-6.533203125,-12.802734375,1,0,0,1.82544207573,,,2015_Aug_23_1225,A,facesParametric,1,59.8211201456,
./stim/MorphM10_09_orig.jpg,100,,,,,0,100,100,100,,,,,,,,,,,,,,,,,,,-6.533203125,-12.802734375,0,0,1,0.886775970459,,,2015_Aug_23_1225,A,facesParametric,1,59.8211201456,
./stim/MorphM4_04_orig.jpg,101,,,,,0,101,101,101,,,,,,,,,,,,,,,,,,,-6.5625,-12.83203125,0,0,1,1.44020295143,,,2015_Aug_23_1225,A,facesParametric,1,59.8211201456,
./stim/MorphM6_07_orig.jpg,102,,,,,0,102,102,102,,,,,,,,,,,,,,,,,,,-6.5625,-12.83203125,0,0,1,2.89849901199,,,2015_Aug_23_1225,A,facesParametric,1,59.8211201456,
./stim/MorphF4_01_orig.jpg,103,,,,,0,103,103,103,,,,,,,,,,,,,,,,,,,-6.474609375,-12.83203125,1,0,0,1.07101488113,,,2015_Aug_23_1225,A,facesParametric,1,59.8211201456,
./stim/MorphF10_06_orig.jpg,104,,,,,0,104,104,104,,,,,,,,,,,,,,,,,,,-6.474609375,-12.83203125,0,0,1,1.22263288498,,,2015_Aug_23_1225,A,facesParametric,1,59.8211201456,
./stim/MorphM3_00_orig.jpg,105,,,,,0,105,105,105,,,,,,,,,,,,,,,,,,,-6.474609375,-12.83203125,1,0,0,2.96494102478,,,2015_Aug_23_1225,A,facesParametric,1,59.8211201456,
./stim/MorphF7_08_orig.jpg,106,,,,,0,106,106,106,,,,,,,,,,,,,,,,,,,-6.50390625,-12.802734375,0,0,1,0.95486497879,,,2015_Aug_23_1225,A,facesParametric,1,59.8211201456,
./stim/MorphF1_06_orig.jpg,107,,,,,0,107,107,107,,,,,,,,,,,,,,,,,,,-6.50390625,-12.802734375,0,0,1,2.10966491699,,,2015_Aug_23_1225,A,facesParametric,1,59.8211201456,
./stim/MorphM7_02_orig.jpg,108,,,,,0,108,108,108,,,,,,,,,,,,,,,,,,,-6.50390625,-12.802734375,1,0,0,4.0361328125,,,2015_Aug_23_1225,A,facesParametric,1,59.8211201456,
./stim/MorphM5_02_orig.jpg,109,,,,,0,109,109,109,,,,,,,,,,,,,,,,,,,-6.474609375,-12.802734375,1,0,0,1.39010119438,,,2015_Aug_23_1225,A,facesParametric,1,59.8211201456,
./stim/MorphM6_08_orig.jpg,110,,,,,0,110,110,110,,,,,,,,,,,,,,,,,,,-6.474609375,-12.802734375,0,0,1,2.27796292305,,,2015_Aug_23_1225,A,facesParametric,1,59.8211201456,
./stim/MorphF6_01_orig.jpg,111,,,,,0,111,111,111,,,,,,,,,,,,,,,,,,,-6.474609375,-12.802734375,1,0,0,1.17135095596,,,2015_Aug_23_1225,A,facesParametric,1,59.8211201456,
./stim/MorphM3_08_orig.jpg,112,,,,,0,112,112,112,,,,,,,,,,,,,,,,,,,-6.474609375,-12.802734375,0,0,1,1.05500793457,,,2015_Aug_23_1225,A,facesParametric,1,59.8211201456,
./stim/MorphF2_06_orig.jpg,113,,,,,0,113,113,113,,,,,,,,,,,,,,,,,,,-6.474609375,-12.802734375,0,0,1,0.936772823334,,,2015_Aug_23_1225,A,facesParametric,1,59.8211201456,
./stim/MorphM9_05_orig.jpg,114,,,,,0,114,114,114,,,,,,,,,,,,,,,,,,,-6.416015625,-12.83203125,1,0,0,2.66353607178,,,2015_Aug_23_1225,A,facesParametric,1,59.8211201456,
./stim/MorphM7_06_orig.jpg,115,,,,,0,115,115,115,,,,,,,,,,,,,,,,,,,-6.38671875,-12.83203125,0,0,1,3.26705288887,,,2015_Aug_23_1225,A,facesParametric,1,59.8211201456,
./stim/MorphF7_00_orig.jpg,116,,,,,0,116,116,116,,,,,,,,,,,,,,,,,,,-6.38671875,-12.83203125,1,0,0,1.23942303658,,,2015_Aug_23_1225,A,facesParametric,1,59.8211201456,
./stim/MorphM7_00_orig.jpg,117,,,,,0,117,117,117,,,,,,,,,,,,,,,,,,,-6.38671875,-12.83203125,1,0,0,3.06564903259,,,2015_Aug_23_1225,A,facesParametric,1,59.8211201456,
./stim/MorphM6_02_orig.jpg,118,,,,,0,118,118,118,,,,,,,,,,,,,,,,,,,-6.38671875,-12.83203125,1,0,0,1.08813905716,,,2015_Aug_23_1225,A,facesParametric,1,59.8211201456,
./stim/MorphF7_04_orig.jpg,119,,,,,0,119,119,119,,,,,,,,,,,,,,,,,,,-6.38671875,-12.83203125,1,0,0,1.54042387009,,,2015_Aug_23_1225,A,facesParametric,1,59.8211201456,
./stim/MorphF4_00_orig.jpg,120,,,,,0,120,120,120,,,,,,,,,,,,,,,,,,,-6.38671875,-12.83203125,1,0,0,0.901525974274,,,2015_Aug_23_1225,A,facesParametric,1,59.8211201456,
./stim/MorphF9_07_orig.jpg,121,,,,,0,121,121,121,,,,,,,,,,,,,,,,,,,-6.357421875,-12.83203125,0,0,1,1.33960294724,,,2015_Aug_23_1225,A,facesParametric,1,59.8211201456,
./stim/MorphF4_05_orig.jpg,122,,,,,0,122,122,122,,,,,,,,,,,,,,,,,,,-6.2109375,-12.7734375,1,0,0,1.82569408417,,,2015_Aug_23_1225,A,facesParametric,1,59.8211201456,
./stim/MorphF5_10_orig.jpg,123,,,,,0,123,123,123,,,,,,,,,,,,,,,,,,,-6.2109375,-12.7734375,0,0,1,1.25631594658,,,2015_Aug_23_1225,A,facesParametric,1,59.8211201456,
./stim/MorphM9_06_orig.jpg,124,,,,,0,124,124,124,,,,,,,,,,,,,,,,,,,-6.2109375,-12.7734375,0,0,1,2.99853992462,,,2015_Aug_23_1225,A,facesParametric,1,59.8211201456,
./stim/MorphF1_00_orig.jpg,125,,,,,0,125,125,125,,,,,,,,,,,,,,,,,,,-6.2109375,-12.7734375,1,0,0,1.3726849556,,,2015_Aug_23_1225,A,facesParametric,1,59.8211201456,
./stim/MorphF5_07_orig.jpg,126,,,,,0,126,126,126,,,,,,,,,,,,,,,,,,,-6.181640625,-12.802734375,0,0,1,2.32660698891,,,2015_Aug_23_1225,A,facesParametric,1,59.8211201456,
./stim/MorphM6_06_orig.jpg,127,,,,,0,127,127,127,,,,,,,,,,,,,,,,,,,-6.4453125,-12.59765625,1,0,0,7.77537298203,,,2015_Aug_23_1225,A,facesParametric,1,59.8211201456,
./stim/MorphF2_00_orig.jpg,128,,,,,0,128,128,128,,,,,,,,,,,,,,,,,,,-6.4453125,-12.59765625,1,0,0,1.03821587563,,,2015_Aug_23_1225,A,facesParametric,1,59.8211201456,
./stim/MorphM6_03_orig.jpg,129,,,,,0,129,129,129,,,,,,,,,,,,,,,,,,,-6.4453125,-12.59765625,1,0,0,1.08792614937,,,2015_Aug_23_1225,A,facesParametric,1,59.8211201456,
./stim/MorphM3_04_orig.jpg,130,,,,,0,130,130,130,,,,,,,,,,,,,,,,,,,-6.357421875,-12.685546875,1,0,0,2.83114600182,,,2015_Aug_23_1225,A,facesParametric,1,59.8211201456,
./stim/MorphM8_01_orig.jpg,131,,,,,0,131,131,131,,,,,,,,,,,,,,,,,,,-6.357421875,-12.685546875,1,0,0,1.54046392441,,,2015_Aug_23_1225,A,facesParametric,1,59.8211201456,
./stim/MorphM1_06_orig.jpg,132,,,,,0,132,132,132,,,,,,,,,,,,,,,,,,,-6.357421875,-12.685546875,1,0,0,3.01524615288,,,2015_Aug_23_1225,A,facesParametric,1,59.8211201456,
./stim/MorphM2_09_orig.jpg,133,,,,,0,133,133,133,,,,,,,,,,,,,,,,,,,-6.26953125,-12.65625,0,0,1,1.12199687958,,,2015_Aug_23_1225,A,facesParametric,1,59.8211201456,
./stim/MorphF2_01_orig.jpg,134,,,,,0,134,134,134,,,,,,,,,,,,,,,,,,,-6.2109375,-12.626953125,0,0,1,1.54087400436,,,2015_Aug_23_1225,A,facesParametric,1,59.8211201456,
./stim/MorphM5_01_orig.jpg,135,,,,,0,135,135,135,,,,,,,,,,,,,,,,,,,-6.181640625,-12.59765625,1,0,0,1.20534420013,,,2015_Aug_23_1225,A,facesParametric,1,59.8211201456,
./stim/MorphF8_03_orig.jpg,136,,,,,0,136,136,136,,,,,,,,,,,,,,,,,,,-6.181640625,-12.59765625,1,0,0,1.07142806053,,,2015_Aug_23_1225,A,facesParametric,1,59.8211201456,
./stim/MorphF10_03_orig.jpg,137,,,,,0,137,137,137,,,,,,,,,,,,,,,,,,,-6.181640625,-12.59765625,0,0,1,0.903413057327,,,2015_Aug_23_1225,A,facesParametric,1,59.8211201456,
./stim/MorphM7_09_orig.jpg,138,,,,,0,138,138,138,,,,,,,,,,,,,,,,,,,-6.181640625,-12.59765625,0,0,1,1.17219090462,,,2015_Aug_23_1225,A,facesParametric,1,59.8211201456,
./stim/MorphM9_00_orig.jpg,139,,,,,0,139,139,139,,,,,,,,,,,,,,,,,,,-6.181640625,-12.59765625,1,0,0,1.33754205704,,,2015_Aug_23_1225,A,facesParametric,1,59.8211201456,
./stim/MorphM3_05_orig.jpg,140,,,,,0,140,140,140,,,,,,,,,,,,,,,,,,,-6.15234375,-12.59765625,0,0,1,2.84813189507,,,2015_Aug_23_1225,A,facesParametric,1,59.8211201456,
./stim/MorphM1_07_orig.jpg,141,,,,,0,141,141,141,,,,,,,,,,,,,,,,,,,-6.09375,-12.626953125,1,0,0,3.04899787903,,,2015_Aug_23_1225,A,facesParametric,1,59.8211201456,
./stim/MorphM9_07_orig.jpg,142,,,,,0,142,142,142,,,,,,,,,,,,,,,,,,,-6.09375,-12.626953125,0,0,1,2.17503809929,,,2015_Aug_23_1225,A,facesParametric,1,59.8211201456,
./stim/MorphF3_03_orig.jpg,143,,,,,0,143,143,143,,,,,,,,,,,,,,,,,,,-6.09375,-12.626953125,1,0,0,1.82539510727,,,2015_Aug_23_1225,A,facesParametric,1,59.8211201456,
./stim/MorphF4_07_orig.jpg,144,,,,,0,144,144,144,,,,,,,,,,,,,,,,,,,-6.09375,-12.626953125,0,0,1,1.10483598709,,,2015_Aug_23_1225,A,facesParametric,1,59.8211201456,
./stim/MorphM2_10_orig.jpg,145,,,,,0,145,145,145,,,,,,,,,,,,,,,,,,,-6.09375,-12.626953125,0,0,1,0.953532934189,,,2015_Aug_23_1225,A,facesParametric,1,59.8211201456,
./stim/MorphF7_06_orig.jpg,146,,,,,0,146,146,146,,,,,,,,,,,,,,,,,,,-6.09375,-12.626953125,0,0,1,1.77260804176,,,2015_Aug_23_1225,A,facesParametric,1,59.8211201456,
./stim/MorphM8_02_orig.jpg,147,,,,,0,147,147,147,,,,,,,,,,,,,,,,,,,-6.09375,-12.626953125,1,0,0,1.87495112419,,,2015_Aug_23_1225,A,facesParametric,1,59.8211201456,
./stim/MorphF3_05_orig.jpg,148,,,,,0,148,148,148,,,,,,,,,,,,,,,,,,,-6.09375,-12.626953125,1,0,0,3.60227012634,,,2015_Aug_23_1225,A,facesParametric,1,59.8211201456,
./stim/MorphF6_04_orig.jpg,149,,,,,0,149,149,149,,,,,,,,,,,,,,,,,,,-6.09375,-12.626953125,1,0,0,1.25379490852,,,2015_Aug_23_1225,A,facesParametric,1,59.8211201456,
./stim/MorphM4_10_orig.jpg,150,,,,,0,150,150,150,,,,,,,,,,,,,,,,,,,-6.09375,-12.626953125,0,0,1,0.970942974091,,,2015_Aug_23_1225,A,facesParametric,1,59.8211201456,
./stim/MorphF10_08_orig.jpg,151,,,,,0,151,151,151,,,,,,,,,,,,,,,,,,,-6.09375,-12.626953125,0,0,1,0.753800868988,,,2015_Aug_23_1225,A,facesParametric,1,59.8211201456,
./stim/MorphF5_02_orig.jpg,152,,,,,0,152,152,152,,,,,,,,,,,,,,,,,,,-6.09375,-12.626953125,1,0,0,1.05174612999,,,2015_Aug_23_1225,A,facesParametric,1,59.8211201456,
./stim/MorphF1_05_orig.jpg,153,,,,,0,153,153,153,,,,,,,,,,,,,,,,,,,-6.09375,-12.626953125,1,0,0,2.52889084816,,,2015_Aug_23_1225,A,facesParametric,1,59.8211201456,
./stim/MorphF9_09_orig.jpg,154,,,,,0,154,154,154,,,,,,,,,,,,,,,,,,,-6.09375,-12.626953125,0,0,1,1.25549411774,,,2015_Aug_23_1225,A,facesParametric,1,59.8211201456,
./stim/MorphF5_03_orig.jpg,155,,,,,0,155,155,155,,,,,,,,,,,,,,,,,,,-6.09375,-12.626953125,1,0,0,2.34518098831,,,2015_Aug_23_1225,A,facesParametric,1,59.8211201456,
./stim/MorphF4_03_orig.jpg,156,,,,,0,156,156,156,,,,,,,,,,,,,,,,,,,-6.09375,-12.626953125,1,0,0,1.1215839386,,,2015_Aug_23_1225,A,facesParametric,1,59.8211201456,
./stim/MorphF5_01_orig.jpg,157,,,,,0,157,157,157,,,,,,,,,,,,,,,,,,,-6.09375,-12.626953125,1,0,0,2.07500481606,,,2015_Aug_23_1225,A,facesParametric,1,59.8211201456,
./stim/MorphM1_01_orig.jpg,158,,,,,0,158,158,158,,,,,,,,,,,,,,,,,,,-6.09375,-12.626953125,1,0,0,1.18829584122,,,2015_Aug_23_1225,A,facesParametric,1,59.8211201456,
./stim/MorphF9_02_orig.jpg,159,,,,,0,159,159,159,,,,,,,,,,,,,,,,,,,-6.064453125,-12.59765625,1,0,0,2.2931470871,,,2015_Aug_23_1225,A,facesParametric,1,59.8211201456,
./stim/MorphF2_02_orig.jpg,160,,,,,0,160,160,160,,,,,,,,,,,,,,,,,,,-6.064453125,-12.59765625,0,0,1,4.70831918716,,,2015_Aug_23_1225,A,facesParametric,1,59.8211201456,
./stim/MorphM8_10_orig.jpg,161,,,,,0,161,161,161,,,,,,,,,,,,,,,,,,,-5.947265625,-12.626953125,0,0,1,0.870142936707,,,2015_Aug_23_1225,A,facesParametric,1,59.8211201456,
./stim/MorphM1_10_orig.jpg,162,,,,,0,162,162,162,,,,,,,,,,,,,,,,,,,-5.947265625,-12.626953125,0,0,1,1.15545797348,,,2015_Aug_23_1225,A,facesParametric,1,59.8211201456,
./stim/MorphF10_04_orig.jpg,163,,,,,0,163,163,163,,,,,,,,,,,,,,,,,,,-5.91796875,-12.59765625,0,0,1,0.886738061905,,,2015_Aug_23_1225,A,facesParametric,1,59.8211201456,
./stim/MorphF3_00_orig.jpg,164,,,,,0,164,164,164,,,,,,,,,,,,,,,,,,,-5.888671875,-12.59765625,1,0,0,0.920440912247,,,2015_Aug_23_1225,A,facesParametric,1,59.8211201456,
./stim/MorphM2_07_orig.jpg,165,,,,,0,165,165,165,,,,,,,,,,,,,,,,,,,-5.888671875,-12.59765625,0,0,1,1.03663992882,,,2015_Aug_23_1225,A,facesParametric,1,59.8211201456,
./stim/MorphF7_05_orig.jpg,166,,,,,0,166,166,166,,,,,,,,,,,,,,,,,,,-5.888671875,-12.59765625,0,0,1,1.02098703384,,,2015_Aug_23_1225,A,facesParametric,1,59.8211201456,
./stim/MorphF6_03_orig.jpg,167,,,,,0,167,167,167,,,,,,,,,,,,,,,,,,,-5.888671875,-12.59765625,0,0,1,4.77509093285,,,2015_Aug_23_1225,A,facesParametric,1,59.8211201456,
./stim/MorphF3_02_orig.jpg,168,,,,,0,168,168,168,,,,,,,,,,,,,,,,,,,-5.859375,-12.626953125,1,0,0,1.65812397003,,,2015_Aug_23_1225,A,facesParametric,1,59.8211201456,
./stim/MorphF1_01_orig.jpg,169,,,,,0,169,169,169,,,,,,,,,,,,,,,,,,,-5.80078125,-12.626953125,1,0,0,1.27281308174,,,2015_Aug_23_1225,A,facesParametric,1,59.8211201456,
./stim/MorphM1_04_orig.jpg,170,,,,,0,170,170,170,,,,,,,,,,,,,,,,,,,-5.80078125,-12.626953125,1,0,0,0.886428117752,,,2015_Aug_23_1225,A,facesParametric,1,59.8211201456,
./stim/MorphF4_09_orig.jpg,171,,,,,0,171,171,171,,,,,,,,,,,,,,,,,,,-5.80078125,-12.626953125,0,0,1,0.86910700798,,,2015_Aug_23_1225,A,facesParametric,1,59.8211201456,
./stim/MorphM6_00_orig.jpg,172,,,,,0,172,172,172,,,,,,,,,,,,,,,,,,,-5.771484375,-12.59765625,1,0,0,1.03784608841,,,2015_Aug_23_1225,A,facesParametric,1,59.8211201456,
./stim/MorphM5_09_orig.jpg,173,,,,,0,173,173,173,,,,,,,,,,,,,,,,,,,-5.771484375,-12.59765625,0,0,1,1.13854289055,,,2015_Aug_23_1225,A,facesParametric,1,59.8211201456,
./stim/MorphF5_06_orig.jpg,174,,,,,0,174,174,174,,,,,,,,,,,,,,,,,,,-5.771484375,-12.59765625,0,0,1,1.00432991982,,,2015_Aug_23_1225,A,facesParametric,1,59.8211201456,
./stim/MorphF9_01_orig.jpg,175,,,,,0,175,175,175,,,,,,,,,,,,,,,,,,,-5.771484375,-12.59765625,1,0,0,1.35645699501,,,2015_Aug_23_1225,A,facesParametric,1,59.8211201456,
./stim/MorphM5_07_orig.jpg,176,,,,,0,176,176,176,,,,,,,,,,,,,,,,,,,-5.771484375,-12.59765625,0,0,1,1.21970701218,,,2015_Aug_23_1225,A,facesParametric,1,59.8211201456,
./stim/MorphM2_01_orig.jpg,177,,,,,0,177,177,177,,,,,,,,,,,,,,,,,,,-5.771484375,-12.59765625,1,0,0,2.52894115448,,,2015_Aug_23_1225,A,facesParametric,1,59.8211201456,
./stim/MorphM7_03_orig.jpg,178,,,,,0,178,178,178,,,,,,,,,,,,,,,,,,,-5.771484375,-12.59765625,0,0,1,3.33370900154,,,2015_Aug_23_1225,A,facesParametric,1,59.8211201456,
./stim/MorphM9_09_orig.jpg,179,,,,,0,179,179,179,,,,,,,,,,,,,,,,,,,-5.771484375,-12.59765625,0,0,1,1.15520715714,,,2015_Aug_23_1225,A,facesParametric,1,59.8211201456,
./stim/MorphF9_10_orig.jpg,180,,,,,0,180,180,180,,,,,,,,,,,,,,,,,,,-5.771484375,-12.59765625,0,0,1,0.920206069946,,,2015_Aug_23_1225,A,facesParametric,1,59.8211201456,
./stim/MorphF8_10_orig.jpg,181,,,,,0,181,181,181,,,,,,,,,,,,,,,,,,,-5.771484375,-12.59765625,0,0,1,0.818888902664,,,2015_Aug_23_1225,A,facesParametric,1,59.8211201456,
./stim/MorphF10_10_orig.jpg,182,,,,,0,182,182,182,,,,,,,,,,,,,,,,,,,-5.771484375,-12.59765625,0,0,1,0.920159101486,,,2015_Aug_23_1225,A,facesParametric,1,59.8211201456,
./stim/MorphM3_09_orig.jpg,183,,,,,0,183,183,183,,,,,,,,,,,,,,,,,,,-5.80078125,-12.568359375,0,0,1,0.836182117462,,,2015_Aug_23_1225,A,facesParametric,1,59.8211201456,
./stim/MorphF10_05_orig.jpg,184,,,,,0,184,184,184,,,,,,,,,,,,,,,,,,,-5.771484375,-12.5390625,0,0,1,0.98761510849,,,2015_Aug_23_1225,A,facesParametric,1,59.8211201456,
./stim/MorphF6_00_orig.jpg,185,,,,,0,185,185,185,,,,,,,,,,,,,,,,,,,-5.7421875,-12.509765625,1,0,0,1.18877506256,,,2015_Aug_23_1225,A,facesParametric,1,59.8211201456,
./stim/MorphF8_08_orig.jpg,186,,,,,0,186,186,186,,,,,,,,,,,,,,,,,,,-5.7421875,-12.509765625,0,0,1,1.43824911118,,,2015_Aug_23_1225,A,facesParametric,1,59.8211201456,
./stim/MorphF7_10_orig.jpg,187,,,,,0,187,187,187,,,,,,,,,,,,,,,,,,,-5.7421875,-12.509765625,0,0,1,0.837335109711,,,2015_Aug_23_1225,A,facesParametric,1,59.8211201456,
./stim/MorphM9_10_orig.jpg,188,,,,,0,188,188,188,,,,,,,,,,,,,,,,,,,-5.7421875,-12.48046875,0,0,1,1.01891803741,,,2015_Aug_23_1225,A,facesParametric,1,59.8211201456,
./stim/MorphM10_05_orig.jpg,189,,,,,0,189,189,189,,,,,,,,,,,,,,,,,,,-5.68359375,-12.333984375,0,0,1,1.99341607094,,,2015_Aug_23_1225,A,facesParametric,1,59.8211201456,
./stim/MorphM8_03_orig.jpg,190,,,,,0,190,190,190,,,,,,,,,,,,,,,,,,,-5.625,-12.333984375,1,0,0,1.95760607719,,,2015_Aug_23_1225,A,facesParametric,1,59.8211201456,
./stim/MorphF2_10_orig.jpg,191,,,,,0,191,191,191,,,,,,,,,,,,,,,,,,,-5.625,-12.333984375,0,0,1,1.11967515945,,,2015_Aug_23_1225,A,facesParametric,1,59.8211201456,
./stim/MorphM1_02_orig.jpg,192,,,,,0,192,192,192,,,,,,,,,,,,,,,,,,,-5.625,-12.333984375,1,0,0,1.55582404137,,,2015_Aug_23_1225,A,facesParametric,1,59.8211201456,
./stim/MorphM4_09_orig.jpg,193,,,,,0,193,193,193,,,,,,,,,,,,,,,,,,,-5.625,-12.333984375,0,0,1,1.25588607788,,,2015_Aug_23_1225,A,facesParametric,1,59.8211201456,
./stim/MorphM8_07_orig.jpg,194,,,,,0,194,194,194,,,,,,,,,,,,,,,,,,,-5.595703125,-12.36328125,0,0,1,0.919456958771,,,2015_Aug_23_1225,A,facesParametric,1,59.8211201456,
./stim/MorphM1_08_orig.jpg,195,,,,,0,195,195,195,,,,,,,,,,,,,,,,,,,-5.595703125,-12.36328125,0,0,1,1.12160491943,,,2015_Aug_23_1225,A,facesParametric,1,59.8211201456,
./stim/MorphF4_08_orig.jpg,196,,,,,0,196,196,196,,,,,,,,,,,,,,,,,,,-5.595703125,-12.36328125,0,0,1,0.817703962326,,,2015_Aug_23_1225,A,facesParametric,1,59.8211201456,
./stim/MorphM9_04_orig.jpg,197,,,,,0,197,197,197,,,,,,,,,,,,,,,,,,,-5.625,-12.333984375,1,0,0,1.05439186096,,,2015_Aug_23_1225,A,facesParametric,1,59.8211201456,
./stim/MorphF1_09_orig.jpg,198,,,,,0,198,198,198,,,,,,,,,,,,,,,,,,,-5.625,-12.333984375,0,0,1,1.35663294792,,,2015_Aug_23_1225,A,facesParametric,1,59.8211201456,
./stim/MorphM9_08_orig.jpg,199,,,,,0,199,199,199,,,,,,,,,,,,,,,,,,,-5.625,-12.333984375,0,0,1,2.22736692429,,,2015_Aug_23_1225,A,facesParametric,1,59.8211201456,
./stim/MorphF10_01_orig.jpg,200,,,,,0,200,200,200,,,,,,,,,,,,,,,,,,,-5.56640625,-12.3046875,0,0,1,0.868891000748,,,2015_Aug_23_1225,A,facesParametric,1,59.8211201456,
./stim/MorphM10_00_orig.jpg,201,,,,,0,201,201,201,,,,,,,,,,,,,,,,,,,-5.56640625,-12.3046875,1,0,0,1.08773994446,,,2015_Aug_23_1225,A,facesParametric,1,59.8211201456,
./stim/MorphM2_00_orig.jpg,202,,,,,0,202,202,202,,,,,,,,,,,,,,,,,,,-5.56640625,-12.3046875,1,0,0,0.985602140427,,,2015_Aug_23_1225,A,facesParametric,1,59.8211201456,
./stim/MorphM9_01_orig.jpg,203,,,,,0,203,203,203,,,,,,,,,,,,,,,,,,,-5.537109375,-12.275390625,1,0,0,1.20513391495,,,2015_Aug_23_1225,A,facesParametric,1,59.8211201456,
./stim/MorphF7_09_orig.jpg,204,,,,,0,204,204,204,,,,,,,,,,,,,,,,,,,-5.537109375,-12.275390625,0,0,1,3.29899907112,,,2015_Aug_23_1225,A,facesParametric,1,59.8211201456,
./stim/MorphF9_00_orig.jpg,205,,,,,0,205,205,205,,,,,,,,,,,,,,,,,,,-5.537109375,-12.275390625,1,0,0,0.903708934784,,,2015_Aug_23_1225,A,facesParametric,1,59.8211201456,
./stim/MorphM2_02_orig.jpg,206,,,,,0,206,206,206,,,,,,,,,,,,,,,,,,,-5.537109375,-12.275390625,1,0,0,0.769551992416,,,2015_Aug_23_1225,A,facesParametric,1,59.8211201456,
./stim/MorphF8_05_orig.jpg,207,,,,,0,207,207,207,,,,,,,,,,,,,,,,,,,-5.537109375,-12.275390625,1,0,0,1.00444197655,,,2015_Aug_23_1225,A,facesParametric,1,59.8211201456,
./stim/MorphF3_09_orig.jpg,208,,,,,0,208,208,208,,,,,,,,,,,,,,,,,,,-5.537109375,-12.275390625,0,0,1,0.802086114883,,,2015_Aug_23_1225,A,facesParametric,1,59.8211201456,
./stim/MorphM5_10_orig.jpg,209,,,,,0,209,209,209,,,,,,,,,,,,,,,,,,,-5.537109375,-12.275390625,0,0,1,0.768911123276,,,2015_Aug_23_1225,A,facesParametric,1,59.8211201456,
./stim/MorphM8_08_orig.jpg,210,,,,,0,210,210,210,,,,,,,,,,,,,,,,,,,-5.537109375,-12.275390625,0,0,1,0.870194911957,,,2015_Aug_23_1225,A,facesParametric,1,59.8211201456,
./stim/MorphM3_07_orig.jpg,211,,,,,0,211,211,211,,,,,,,,,,,,,,,,,,,-5.537109375,-12.275390625,0,0,1,0.770101070404,,,2015_Aug_23_1225,A,facesParametric,1,59.8211201456,
./stim/MorphM5_06_orig.jpg,212,,,,,0,212,212,212,,,,,,,,,,,,,,,,,,,-5.537109375,-12.275390625,1,0,0,2.32914090157,,,2015_Aug_23_1225,A,facesParametric,1,59.8211201456,
./stim/MorphF5_09_orig.jpg,213,,,,,0,213,213,213,,,,,,,,,,,,,,,,,,,-5.537109375,-12.275390625,0,0,1,0.800653934479,,,2015_Aug_23_1225,A,facesParametric,1,59.8211201456,
./stim/MorphF8_06_orig.jpg,214,,,,,0,214,214,214,,,,,,,,,,,,,,,,,,,-5.537109375,-12.275390625,1,0,0,1.95990085602,,,2015_Aug_23_1225,A,facesParametric,1,59.8211201456,
./stim/MorphF5_04_orig.jpg,215,,,,,0,215,215,215,,,,,,,,,,,,,,,,,,,-5.537109375,-12.275390625,1,0,0,1.32053518295,,,2015_Aug_23_1225,A,facesParametric,1,59.8211201456,
./stim/MorphM2_04_orig.jpg,216,,,,,0,216,216,216,,,,,,,,,,,,,,,,,,,-5.537109375,-12.275390625,1,0,0,0.868078947067,,,2015_Aug_23_1225,A,facesParametric,1,59.8211201456,
./stim/MorphF2_05_orig.jpg,217,,,,,0,217,217,217,,,,,,,,,,,,,,,,,,,-5.537109375,-12.275390625,0,0,1,1.06993412971,,,2015_Aug_23_1225,A,facesParametric,1,59.8211201456,
./stim/MorphM7_01_orig.jpg,218,,,,,0,218,218,218,,,,,,,,,,,,,,,,,,,-5.5078125,-12.275390625,0,0,1,1.72342705727,,,2015_Aug_23_1225,A,facesParametric,1,59.8211201456,
./stim/MorphF10_09_orig.jpg,219,,,,,0,219,219,219,,,,,,,,,,,,,,,,,,,-5.478515625,-12.275390625,0,0,1,0.68597817421,,,2015_Aug_23_1225,A,facesParametric,1,59.8211201456,
,,,,,,,,,,,,,,,,,,,,,,,,,,,,,,,,,,return,6.35201406479,2015_Aug_23_1225,A,facesParametric,1,59.8211201456,
./stim/MorphM6_10_orig.jpg,0,,,,,,,,,0,0,0,0,,,,,,,,,,,,,,,-3.662109375,-10.60546875,0,0,1,5.60081505775,,,2015_Aug_23_1225,A,facesParametric,1,59.8211201456,
./stim/MorphF9_04_orig.jpg,1,,,,,,,,,0,1,1,1,,,,,,,,,,,,,,,-3.6328125,-10.634765625,1,0,0,1.15172696114,,,2015_Aug_23_1225,A,facesParametric,1,59.8211201456,
./stim/MorphM3_03_orig.jpg,2,,,,,,,,,0,2,2,2,,,,,,,,,,,,,,,-3.6328125,-10.634765625,1,0,0,0.918436050415,,,2015_Aug_23_1225,A,facesParametric,1,59.8211201456,
./stim/MorphM1_00_orig.jpg,3,,,,,,,,,0,3,3,3,,,,,,,,,,,,,,,-3.45703125,-10.869140625,1,0,0,4.90973591805,,,2015_Aug_23_1225,A,facesParametric,1,59.8211201456,
./stim/MorphM6_09_orig.jpg,4,,,,,,,,,0,4,4,4,,,,,,,,,,,,,,,-3.427734375,-10.78125,0,0,1,1.40617704391,,,2015_Aug_23_1225,A,facesParametric,1,59.8211201456,
./stim/MorphM10_02_orig.jpg,5,,,,,,,,,0,5,5,5,,,,,,,,,,,,,,,-3.193359375,-10.751953125,1,0,0,1.18971180916,,,2015_Aug_23_1225,A,facesParametric,1,59.8211201456,
./stim/MorphM3_06_orig.jpg,6,,,,,,,,,0,6,6,6,,,,,,,,,,,,,,,-2.666015625,-10.810546875,0,0,1,5.9308488369,,,2015_Aug_23_1225,A,facesParametric,1,59.8211201456,
./stim/MorphM7_08_orig.jpg,7,,,,,,,,,0,7,7,7,,,,,,,,,,,,,,,-2.666015625,-10.810546875,0,0,1,0.752115011215,,,2015_Aug_23_1225,A,facesParametric,1,59.8211201456,
./stim/MorphM6_04_orig.jpg,8,,,,,,,,,0,8,8,8,,,,,,,,,,,,,,,-2.666015625,-10.83984375,1,0,0,0.870165109634,,,2015_Aug_23_1225,A,facesParametric,1,59.8211201456,
./stim/MorphM2_05_orig.jpg,9,,,,,,,,,0,9,9,9,,,,,,,,,,,,,,,-2.75390625,-10.927734375,1,0,0,5.9484000206,,,2015_Aug_23_1225,A,facesParametric,1,59.8211201456,
./stim/MorphM3_01_orig.jpg,10,,,,,,,,,0,10,10,10,,,,,,,,,,,,,,,-2.724609375,-10.810546875,1,0,0,5.21081018448,,,2015_Aug_23_1225,A,facesParametric,1,59.8211201456,
./stim/MorphF1_03_orig.jpg,11,,,,,,,,,0,11,11,11,,,,,,,,,,,,,,,-2.783203125,-10.83984375,1,0,0,1.94259405136,,,2015_Aug_23_1225,A,facesParametric,1,59.8211201456,
./stim/MorphF8_09_orig.jpg,12,,,,,,,,,0,12,12,12,,,,,,,,,,,,,,,-2.841796875,-10.810546875,0,0,1,1.35631895065,,,2015_Aug_23_1225,A,facesParametric,1,59.8211201456,
./stim/MorphF3_01_orig.jpg,13,,,,,,,,,0,13,13,13,,,,,,,,,,,,,,,-2.87109375,-10.83984375,1,0,0,1.02136301994,,,2015_Aug_23_1225,A,facesParametric,1,59.8211201456,
./stim/MorphF7_03_orig.jpg,14,,,,,,,,,0,14,14,14,,,,,,,,,,,,,,,-2.87109375,-10.83984375,0,0,1,0.802175998688,,,2015_Aug_23_1225,A,facesParametric,1,59.8211201456,
./stim/MorphM1_05_orig.jpg,15,,,,,,,,,0,15,15,15,,,,,,,,,,,,,,,-2.87109375,-10.83984375,1,0,0,1.33907198906,,,2015_Aug_23_1225,A,facesParametric,1,59.8211201456,
./stim/MorphM5_08_orig.jpg,16,,,,,,,,,0,16,16,16,,,,,,,,,,,,,,,-2.783203125,-10.8984375,0,0,1,0.786027908325,,,2015_Aug_23_1225,A,facesParametric,1,59.8211201456,
./stim/MorphF7_01_orig.jpg,17,,,,,,,,,0,17,17,17,,,,,,,,,,,,,,,-2.75390625,-10.927734375,1,0,0,1.23758006096,,,2015_Aug_23_1225,A,facesParametric,1,59.8211201456,
./stim/MorphF1_10_orig.jpg,18,,,,,,,,,0,18,18,18,,,,,,,,,,,,,,,-2.724609375,-10.927734375,0,0,1,0.985776901245,,,2015_Aug_23_1225,A,facesParametric,1,59.8211201456,
./stim/MorphF9_06_orig.jpg,19,,,,,,,,,0,19,19,19,,,,,,,,,,,,,,,-2.6953125,-10.95703125,0,0,1,1.96002006531,,,2015_Aug_23_1225,A,facesParametric,1,59.8211201456,
./stim/MorphM4_00_orig.jpg,20,,,,,,,,,0,20,20,20,,,,,,,,,,,,,,,-2.6953125,-10.95703125,1,0,0,1.5574901104,,,2015_Aug_23_1225,A,facesParametric,1,59.8211201456,
./stim/MorphM10_08_orig.jpg,21,,,,,,,,,0,21,21,21,,,,,,,,,,,,,,,-2.6953125,-10.95703125,0,0,1,0.753026008606,,,2015_Aug_23_1225,A,facesParametric,1,59.8211201456,
./stim/MorphF8_07_orig.jpg,22,,,,,,,,,0,22,22,22,,,,,,,,,,,,,,,-2.666015625,-10.986328125,0,0,1,0.920522928238,,,2015_Aug_23_1225,A,facesParametric,1,59.8211201456,
./stim/MorphF6_02_orig.jpg,23,,,,,,,,,0,23,23,23,,,,,,,,,,,,,,,-2.63671875,-11.015625,1,0,0,0.884865999222,,,2015_Aug_23_1225,A,facesParametric,1,59.8211201456,
./stim/MorphM2_08_orig.jpg,24,,,,,,,,,0,24,24,24,,,,,,,,,,,,,,,-2.548828125,-10.95703125,0,0,1,2.88131904602,,,2015_Aug_23_1225,A,facesParametric,1,59.8211201456,
./stim/MorphF9_05_orig.jpg,25,,,,,,,,,0,25,25,25,,,,,,,,,,,,,,,-2.16796875,-10.8984375,1,0,0,2.34457302094,,,2015_Aug_23_1225,A,facesParametric,1,59.8211201456,
./stim/MorphF1_08_orig.jpg,26,,,,,,,,,0,26,26,26,,,,,,,,,,,,,,,-2.138671875,-10.8984375,0,0,1,1.32275891304,,,2015_Aug_23_1225,A,facesParametric,1,59.8211201456,
./stim/MorphF6_09_orig.jpg,27,,,,,,,,,0,27,27,27,,,,,,,,,,,,,,,-2.138671875,-10.8984375,0,0,1,0.870277166367,,,2015_Aug_23_1225,A,facesParametric,1,59.8211201456,
./stim/MorphF2_09_orig.jpg,28,,,,,,,,,0,28,28,28,,,,,,,,,,,,,,,-2.080078125,-10.927734375,0,0,1,0.735978126526,,,2015_Aug_23_1225,A,facesParametric,1,59.8211201456,
./stim/MorphF1_04_orig.jpg,29,,,,,,,,,0,29,29,29,,,,,,,,,,,,,,,-2.080078125,-10.927734375,1,0,0,1.8423538208,,,2015_Aug_23_1225,A,facesParametric,1,59.8211201456,
./stim/MorphM4_06_orig.jpg,30,,,,,,,,,0,30,30,30,,,,,,,,,,,,,,,-2.16796875,-11.162109375,0,0,1,0.803412914276,,,2015_Aug_23_1225,A,facesParametric,1,59.8211201456,
./stim/MorphM5_04_orig.jpg,31,,,,,,,,,0,31,31,31,,,,,,,,,,,,,,,-2.16796875,-11.162109375,1,0,0,1.30683517456,,,2015_Aug_23_1225,A,facesParametric,1,59.8211201456,
./stim/MorphF10_02_orig.jpg,32,,,,,,,,,0,32,32,32,,,,,,,,,,,,,,,-2.138671875,-11.1328125,1,0,0,0.95311498642,,,2015_Aug_23_1225,A,facesParametric,1,59.8211201456,
./stim/MorphF6_05_orig.jpg,33,,,,,,,,,0,33,33,33,,,,,,,,,,,,,,,-2.138671875,-11.1328125,1,0,0,0.870615005493,,,2015_Aug_23_1225,A,facesParametric,1,59.8211201456,
./stim/MorphF8_01_orig.jpg,34,,,,,,,,,0,34,34,34,,,,,,,,,,,,,,,-2.138671875,-11.1328125,1,0,0,1.22197508812,,,2015_Aug_23_1225,A,facesParametric,1,59.8211201456,
./stim/MorphM2_06_orig.jpg,35,,,,,,,,,0,35,35,35,,,,,,,,,,,,,,,-2.080078125,-11.1328125,1,0,0,1.22040891647,,,2015_Aug_23_1225,A,facesParametric,1,59.8211201456,
./stim/MorphM9_02_orig.jpg,36,,,,,,,,,0,36,36,36,,,,,,,,,,,,,,,-2.021484375,-11.1328125,1,0,0,1.52260994911,,,2015_Aug_23_1225,A,facesParametric,1,59.8211201456,
./stim/MorphM5_03_orig.jpg,37,,,,,,,,,0,37,37,37,,,,,,,,,,,,,,,-2.021484375,-11.1328125,1,0,0,1.17131304741,,,2015_Aug_23_1225,A,facesParametric,1,59.8211201456,
./stim/MorphM4_01_orig.jpg,38,,,,,,,,,0,38,38,38,,,,,,,,,,,,,,,-1.9921875,-11.1328125,1,0,0,1.18924689293,,,2015_Aug_23_1225,A,facesParametric,1,59.8211201456,
./stim/MorphM6_05_orig.jpg,39,,,,,,,,,0,39,39,39,,,,,,,,,,,,,,,-1.93359375,-11.1328125,1,0,0,1.18795704842,,,2015_Aug_23_1225,A,facesParametric,1,59.8211201456,
./stim/MorphF4_02_orig.jpg,40,,,,,,,,,0,40,40,40,,,,,,,,,,,,,,,-1.494140625,-11.162109375,1,0,0,5.98059606552,,,2015_Aug_23_1225,A,facesParametric,1,59.8211201456,
./stim/MorphM9_03_orig.jpg,41,,,,,,,,,0,41,41,41,,,,,,,,,,,,,,,-1.728515625,-10.95703125,1,0,0,2.56285905838,,,2015_Aug_23_1225,A,facesParametric,1,59.8211201456,
./stim/MorphF4_06_orig.jpg,42,,,,,,,,,0,42,42,42,,,,,,,,,,,,,,,-1.728515625,-10.95703125,0,0,1,1.22199702263,,,2015_Aug_23_1225,A,facesParametric,1,59.8211201456,
./stim/MorphF5_00_orig.jpg,43,,,,,,,,,0,43,43,43,,,,,,,,,,,,,,,-1.728515625,-10.95703125,1,0,0,1.13815712929,,,2015_Aug_23_1225,A,facesParametric,1,59.8211201456,
./stim/MorphM7_04_orig.jpg,44,,,,,,,,,0,44,44,44,,,,,,,,,,,,,,,-1.728515625,-10.95703125,1,0,0,1.77518701553,,,2015_Aug_23_1225,A,facesParametric,1,59.8211201456,
./stim/MorphF1_07_orig.jpg,45,,,,,,,,,0,45,45,45,,,,,,,,,,,,,,,-1.640625,-11.015625,0,0,1,1.2564330101,,,2015_Aug_23_1225,A,facesParametric,1,59.8211201456,
./stim/MorphF7_02_orig.jpg,46,,,,,,,,,0,46,46,46,,,,,,,,,,,,,,,-1.58203125,-11.07421875,0,0,1,0.836165904999,,,2015_Aug_23_1225,A,facesParametric,1,59.8211201456,
./stim/MorphF3_08_orig.jpg,47,,,,,,,,,0,47,47,47,,,,,,,,,,,,,,,-1.5234375,-11.103515625,0,0,1,0.885524988174,,,2015_Aug_23_1225,A,facesParametric,1,59.8211201456,
./stim/MorphM4_03_orig.jpg,48,,,,,,,,,0,48,48,48,,,,,,,,,,,,,,,-1.494140625,-11.1328125,1,0,0,2.12657594681,,,2015_Aug_23_1225,A,facesParametric,1,59.8211201456,
./stim/MorphM7_05_orig.jpg,49,,,,,,,,,0,49,49,49,,,,,,,,,,,,,,,-1.2890625,-11.337890625,0,0,1,1.69161105156,,,2015_Aug_23_1225,A,facesParametric,1,59.8211201456,
./stim/MorphM4_08_orig.jpg,50,,,,,,,,,0,50,50,50,,,,,,,,,,,,,,,-1.2890625,-11.337890625,0,0,1,1.05487799644,,,2015_Aug_23_1225,A,facesParametric,1,59.8211201456,
./stim/MorphM2_03_orig.jpg,51,,,,,,,,,0,51,51,51,,,,,,,,,,,,,,,-1.259765625,-11.3671875,1,0,0,1.30580615997,,,2015_Aug_23_1225,A,facesParametric,1,59.8211201456,
./stim/MorphF3_10_orig.jpg,52,,,,,,,,,0,52,52,52,,,,,,,,,,,,,,,-1.23046875,-11.396484375,0,0,1,1.65812706947,,,2015_Aug_23_1225,A,facesParametric,1,59.8211201456,
./stim/MorphF6_08_orig.jpg,53,,,,,,,,,0,53,53,53,,,,,,,,,,,,,,,-1.142578125,-11.3671875,0,0,1,3.03039503098,,,2015_Aug_23_1225,A,facesParametric,1,59.8211201456,
./stim/MorphM3_10_orig.jpg,54,,,,,,,,,0,54,54,54,,,,,,,,,,,,,,,-1.11328125,-11.3671875,0,0,1,0.786648035049,,,2015_Aug_23_1225,A,facesParametric,1,59.8211201456,
./stim/MorphM10_03_orig.jpg,55,,,,,,,,,0,55,55,55,,,,,,,,,,,,,,,-1.025390625,-11.3671875,0,0,1,2.91511011124,,,2015_Aug_23_1225,A,facesParametric,1,59.8211201456,
./stim/MorphF2_03_orig.jpg,56,,,,,,,,,0,56,56,56,,,,,,,,,,,,,,,-1.025390625,-11.3671875,1,0,0,1.44016504288,,,2015_Aug_23_1225,A,facesParametric,1,59.8211201456,
./stim/MorphM7_10_orig.jpg,57,,,,,,,,,0,57,57,57,,,,,,,,,,,,,,,-0.99609375,-11.3671875,0,0,1,1.13816380501,,,2015_Aug_23_1225,A,facesParametric,1,59.8211201456,
./stim/MorphF8_00_orig.jpg,58,,,,,,,,,0,58,58,58,,,,,,,,,,,,,,,-0.87890625,-11.337890625,1,0,0,0.903672933578,,,2015_Aug_23_1225,A,facesParametric,1,59.8211201456,
./stim/MorphF7_07_orig.jpg,59,,,,,,,,,0,59,59,59,,,,,,,,,,,,,,,-0.849609375,-11.30859375,0,0,1,5.19443178177,,,2015_Aug_23_1225,A,facesParametric,1,59.8211201456,
./stim/MorphM8_09_orig.jpg,60,,,,,,,,,0,60,60,60,,,,,,,,,,,,,,,-0.849609375,-11.30859375,0,0,1,0.903286933899,,,2015_Aug_23_1225,A,facesParametric,1,59.8211201456,
./stim/MorphF5_08_orig.jpg,61,,,,,,,,,0,61,61,61,,,,,,,,,,,,,,,-0.849609375,-11.30859375,0,0,1,1.05332899094,,,2015_Aug_23_1225,A,facesParametric,1,59.8211201456,
./stim/MorphM8_00_orig.jpg,62,,,,,,,,,0,62,62,62,,,,,,,,,,,,,,,-0.8203125,-11.30859375,1,0,0,1.47264504433,,,2015_Aug_23_1225,A,facesParametric,1,59.8211201456,
./stim/MorphF4_04_orig.jpg,63,,,,,,,,,0,63,63,63,,,,,,,,,,,,,,,-0.8203125,-11.30859375,1,0,0,1.22222495079,,,2015_Aug_23_1225,A,facesParametric,1,59.8211201456,
./stim/MorphM8_05_orig.jpg,64,,,,,,,,,0,64,64,64,,,,,,,,,,,,,,,-0.8203125,-11.30859375,0,0,1,2.17737388611,,,2015_Aug_23_1225,A,facesParametric,1,59.8211201456,
./stim/MorphM1_09_orig.jpg,65,,,,,,,,,0,65,65,65,,,,,,,,,,,,,,,-0.8203125,-11.30859375,0,0,1,1.0212829113,,,2015_Aug_23_1225,A,facesParametric,1,59.8211201456,
./stim/MorphF8_04_orig.jpg,66,,,,,,,,,0,66,66,66,,,,,,,,,,,,,,,-0.732421875,-11.30859375,1,0,0,2.54596495628,,,2015_Aug_23_1225,A,facesParametric,1,59.8211201456,
./stim/MorphM10_07_orig.jpg,67,,,,,,,,,0,67,67,67,,,,,,,,,,,,,,,-0.732421875,-11.30859375,0,0,1,2.781001091,,,2015_Aug_23_1225,A,facesParametric,1,59.8211201456,
./stim/MorphM5_05_orig.jpg,68,,,,,,,,,0,68,68,68,,,,,,,,,,,,,,,-0.732421875,-11.30859375,1,0,0,2.17770004272,,,2015_Aug_23_1225,A,facesParametric,1,59.8211201456,
./stim/MorphM3_02_orig.jpg,69,,,,,,,,,0,69,69,69,,,,,,,,,,,,,,,-0.703125,-11.279296875,1,0,0,1.20430898666,,,2015_Aug_23_1225,A,facesParametric,1,59.8211201456,
./stim/MorphF2_08_orig.jpg,70,,,,,,,,,0,70,70,70,,,,,,,,,,,,,,,-0.46875,-11.25,0,0,1,0.836631059647,,,2015_Aug_23_1225,A,facesParametric,1,59.8211201456,
./stim/MorphM5_00_orig.jpg,71,,,,,,,,,0,71,71,71,,,,,,,,,,,,,,,-0.439453125,-11.25,1,0,0,2.64485096931,,,2015_Aug_23_1225,A,facesParametric,1,59.8211201456,
./stim/MorphF6_07_orig.jpg,72,,,,,,,,,0,72,72,72,,,,,,,,,,,,,,,-0.41015625,-11.220703125,0,0,1,1.22076106071,,,2015_Aug_23_1225,A,facesParametric,1,59.8211201456,
./stim/MorphM7_07_orig.jpg,73,,,,,,,,,0,73,73,73,,,,,,,,,,,,,,,-0.41015625,-11.220703125,0,0,1,1.65604710579,,,2015_Aug_23_1225,A,facesParametric,1,59.8211201456,
./stim/MorphM4_05_orig.jpg,74,,,,,,,,,0,74,74,74,,,,,,,,,,,,,,,-0.41015625,-11.220703125,0,0,1,0.903612852097,,,2015_Aug_23_1225,A,facesParametric,1,59.8211201456,
./stim/MorphF1_02_orig.jpg,75,,,,,,,,,0,75,75,75,,,,,,,,,,,,,,,-0.380859375,-11.19140625,1,0,0,1.32155895233,,,2015_Aug_23_1225,A,facesParametric,1,59.8211201456,
./stim/MorphM1_03_orig.jpg,76,,,,,,,,,0,76,76,76,,,,,,,,,,,,,,,-0.3515625,-11.19140625,1,0,0,1.05291795731,,,2015_Aug_23_1225,A,facesParametric,1,59.8211201456,
./stim/MorphM6_01_orig.jpg,77,,,,,,,,,0,77,77,77,,,,,,,,,,,,,,,-0.322265625,-11.162109375,1,0,0,1.03740811348,,,2015_Aug_23_1225,A,facesParametric,1,59.8211201456,
./stim/MorphF5_05_orig.jpg,78,,,,,,,,,0,78,78,78,,,,,,,,,,,,,,,-0.322265625,-11.162109375,1,0,0,1.2387638092,,,2015_Aug_23_1225,A,facesParametric,1,59.8211201456,
./stim/MorphF4_10_orig.jpg,79,,,,,,,,,0,79,79,79,,,,,,,,,,,,,,,-0.46875,-11.220703125,0,0,1,0.987794876099,,,2015_Aug_23_1225,A,facesParametric,1,59.8211201456,
./stim/MorphF9_03_orig.jpg,80,,,,,,,,,0,80,80,80,,,,,,,,,,,,,,,-0.46875,-11.220703125,1,0,0,1.87431907654,,,2015_Aug_23_1225,A,facesParametric,1,59.8211201456,
./stim/MorphM8_04_orig.jpg,81,,,,,,,,,0,81,81,81,,,,,,,,,,,,,,,-0.46875,-11.220703125,0,0,1,2.16107678413,,,2015_Aug_23_1225,A,facesParametric,1,59.8211201456,
./stim/MorphF2_04_orig.jpg,82,,,,,,,,,0,82,82,82,,,,,,,,,,,,,,,-0.46875,-11.220703125,0,0,1,1.25496506691,,,2015_Aug_23_1225,A,facesParametric,1,59.8211201456,
./stim/MorphM10_01_orig.jpg,83,,,,,,,,,0,83,83,83,,,,,,,,,,,,,,,-0.46875,-11.220703125,1,0,0,1.05265712738,,,2015_Aug_23_1225,A,facesParametric,1,59.8211201456,
./stim/MorphF6_10_orig.jpg,84,,,,,,,,,0,84,84,84,,,,,,,,,,,,,,,-0.46875,-11.220703125,0,0,1,0.919250965118,,,2015_Aug_23_1225,A,facesParametric,1,59.8211201456,
./stim/MorphF10_00_orig.jpg,85,,,,,,,,,0,85,85,85,,,,,,,,,,,,,,,-0.439453125,-11.25,1,0,0,2.36197590828,,,2015_Aug_23_1225,A,facesParametric,1,59.8211201456,
./stim/MorphM10_04_orig.jpg,86,,,,,,,,,0,86,86,86,,,,,,,,,,,,,,,-0.439453125,-11.25,0,0,1,2.64689493179,,,2015_Aug_23_1225,A,facesParametric,1,59.8211201456,
./stim/MorphM4_07_orig.jpg,87,,,,,,,,,0,87,87,87,,,,,,,,,,,,,,,-0.41015625,-11.25,0,0,1,1.18828296661,,,2015_Aug_23_1225,A,facesParametric,1,59.8211201456,
./stim/MorphF10_07_orig.jpg,88,,,,,,,,,0,88,88,88,,,,,,,,,,,,,,,-0.41015625,-11.25,0,0,1,1.33938288689,,,2015_Aug_23_1225,A,facesParametric,1,59.8211201456,
./stim/MorphF8_02_orig.jpg,89,,,,,,,,,0,89,89,89,,,,,,,,,,,,,,,-0.41015625,-11.25,1,0,0,1.32213282585,,,2015_Aug_23_1225,A,facesParametric,1,59.8211201456,
./stim/MorphM10_06_orig.jpg,90,,,,,,,,,0,90,90,90,,,,,,,,,,,,,,,-0.380859375,-11.220703125,0,0,1,1.28824114799,,,2015_Aug_23_1225,A,facesParametric,1,59.8211201456,
./stim/MorphF6_06_orig.jpg,91,,,,,,,,,0,91,91,91,,,,,,,,,,,,,,,-0.380859375,-11.220703125,0,0,1,1.55697083473,,,2015_Aug_23_1225,A,facesParametric,1,59.8211201456,
./stim/MorphF2_07_orig.jpg,92,,,,,,,,,0,92,92,92,,,,,,,,,,,,,,,-0.380859375,-11.220703125,0,0,1,0.870535135269,,,2015_Aug_23_1225,A,facesParametric,1,59.8211201456,
./stim/MorphF3_04_orig.jpg,93,,,,,,,,,0,93,93,93,,,,,,,,,,,,,,,-0.380859375,-11.220703125,1,0,0,2.27631998062,,,2015_Aug_23_1225,A,facesParametric,1,59.8211201456,
./stim/MorphM10_10_orig.jpg,94,,,,,,,,,0,94,94,94,,,,,,,,,,,,,,,-0.41015625,-11.25,0,0,1,0.902580976486,,,2015_Aug_23_1225,A,facesParametric,1,59.8211201456,
./stim/MorphF3_06_orig.jpg,95,,,,,,,,,0,95,95,95,,,,,,,,,,,,,,,-0.41015625,-11.25,1,0,0,1.607640028,,,2015_Aug_23_1225,A,facesParametric,1,59.8211201456,
./stim/MorphM8_06_orig.jpg,96,,,,,,,,,0,96,96,96,,,,,,,,,,,,,,,-0.380859375,-11.25,0,0,1,2.46233797073,,,2015_Aug_23_1225,A,facesParametric,1,59.8211201456,
./stim/MorphM4_02_orig.jpg,97,,,,,,,,,0,97,97,97,,,,,,,,,,,,,,,-0.380859375,-11.25,1,0,0,1.25558781624,,,2015_Aug_23_1225,A,facesParametric,1,59.8211201456,
./stim/MorphF9_08_orig.jpg,98,,,,,,,,,0,98,98,98,,,,,,,,,,,,,,,-0.322265625,-11.220703125,1,0,0,1.39006590843,,,2015_Aug_23_1225,A,facesParametric,1,59.8211201456,
./stim/MorphF3_07_orig.jpg,99,,,,,,,,,0,99,99,99,,,,,,,,,,,,,,,-0.322265625,-11.220703125,0,0,1,5.07693815231,,,2015_Aug_23_1225,A,facesParametric,1,59.8211201456,
./stim/MorphM10_09_orig.jpg,100,,,,,,,,,0,100,100,100,,,,,,,,,,,,,,,-0.322265625,-11.220703125,0,0,1,1.10432696342,,,2015_Aug_23_1225,A,facesParametric,1,59.8211201456,
./stim/MorphM4_04_orig.jpg,101,,,,,,,,,0,101,101,101,,,,,,,,,,,,,,,-0.322265625,-11.220703125,1,0,0,1.9935798645,,,2015_Aug_23_1225,A,facesParametric,1,59.8211201456,
./stim/MorphM6_07_orig.jpg,102,,,,,,,,,0,102,102,102,,,,,,,,,,,,,,,-0.322265625,-11.220703125,0,0,1,1.25315308571,,,2015_Aug_23_1225,A,facesParametric,1,59.8211201456,
./stim/MorphF4_01_orig.jpg,103,,,,,,,,,0,103,103,103,,,,,,,,,,,,,,,-0.322265625,-11.220703125,1,0,0,0.920826911926,,,2015_Aug_23_1225,A,facesParametric,1,59.8211201456,
./stim/MorphF10_06_orig.jpg,104,,,,,,,,,0,104,104,104,,,,,,,,,,,,,,,-0.263671875,-11.1328125,0,0,1,1.22251605988,,,2015_Aug_23_1225,A,facesParametric,1,59.8211201456,
./stim/MorphM3_00_orig.jpg,105,,,,,,,,,0,105,105,105,,,,,,,,,,,,,,,-0.263671875,-11.1328125,1,0,0,1.70816898346,,,2015_Aug_23_1225,A,facesParametric,1,59.8211201456,
./stim/MorphF7_08_orig.jpg,106,,,,,,,,,0,106,106,106,,,,,,,,,,,,,,,-0.263671875,-11.1328125,0,0,1,0.936063051224,,,2015_Aug_23_1225,A,facesParametric,1,59.8211201456,
./stim/MorphF1_06_orig.jpg,107,,,,,,,,,0,107,107,107,,,,,,,,,,,,,,,-0.263671875,-11.1328125,1,0,0,4.08793997765,,,2015_Aug_23_1225,A,facesParametric,1,59.8211201456,
./stim/MorphM7_02_orig.jpg,108,,,,,,,,,0,108,108,108,,,,,,,,,,,,,,,-0.263671875,-11.1328125,0,0,1,2.82971096039,,,2015_Aug_23_1225,A,facesParametric,1,59.8211201456,
./stim/MorphM5_02_orig.jpg,109,,,,,,,,,0,109,109,109,,,,,,,,,,,,,,,-0.263671875,-11.103515625,1,0,0,4.72341012955,,,2015_Aug_23_1225,A,facesParametric,1,59.8211201456,
./stim/MorphM6_08_orig.jpg,110,,,,,,,,,0,110,110,110,,,,,,,,,,,,,,,-0.263671875,-11.103515625,0,0,1,1.33914995193,,,2015_Aug_23_1225,A,facesParametric,1,59.8211201456,
./stim/MorphF6_01_orig.jpg,111,,,,,,,,,0,111,111,111,,,,,,,,,,,,,,,-0.263671875,-11.103515625,1,0,0,1.52425789833,,,2015_Aug_23_1225,A,facesParametric,1,59.8211201456,
./stim/MorphM3_08_orig.jpg,112,,,,,,,,,0,112,112,112,,,,,,,,,,,,,,,-0.263671875,-11.103515625,0,0,1,1.50488400459,,,2015_Aug_23_1225,A,facesParametric,1,59.8211201456,
./stim/MorphF2_06_orig.jpg,113,,,,,,,,,0,113,113,113,,,,,,,,,,,,,,,-0.263671875,-11.103515625,0,0,1,0.718482971191,,,2015_Aug_23_1225,A,facesParametric,1,59.8211201456,
./stim/MorphM9_05_orig.jpg,114,,,,,,,,,0,114,114,114,,,,,,,,,,,,,,,-0.263671875,-11.103515625,1,0,0,2.52881908417,,,2015_Aug_23_1225,A,facesParametric,1,59.8211201456,
./stim/MorphM7_06_orig.jpg,115,,,,,,,,,0,115,115,115,,,,,,,,,,,,,,,-1.5234375,-11.66015625,0,0,1,8.84618902206,,,2015_Aug_23_1225,A,facesParametric,1,59.8211201456,
./stim/MorphF7_00_orig.jpg,116,,,,,,,,,0,116,116,116,,,,,,,,,,,,,,,-1.552734375,-11.689453125,1,0,0,1.0880920887,,,2015_Aug_23_1225,A,facesParametric,1,59.8211201456,
./stim/MorphM7_00_orig.jpg,117,,,,,,,,,0,117,117,117,,,,,,,,,,,,,,,-1.552734375,-11.689453125,1,0,0,2.8143529892,,,2015_Aug_23_1225,A,facesParametric,1,59.8211201456,
./stim/MorphM6_02_orig.jpg,118,,,,,,,,,0,118,118,118,,,,,,,,,,,,,,,-1.5234375,-11.71875,1,0,0,0.937165975571,,,2015_Aug_23_1225,A,facesParametric,1,59.8211201456,
./stim/MorphF7_04_orig.jpg,119,,,,,,,,,0,119,119,119,,,,,,,,,,,,,,,-1.5234375,-11.71875,1,0,0,1.03615093231,,,2015_Aug_23_1225,A,facesParametric,1,59.8211201456,
./stim/MorphF4_00_orig.jpg,120,,,,,,,,,0,120,120,120,,,,,,,,,,,,,,,-1.5234375,-11.71875,1,0,0,0.851494073868,,,2015_Aug_23_1225,A,facesParametric,1,59.8211201456,
./stim/MorphF9_07_orig.jpg,121,,,,,,,,,0,121,121,121,,,,,,,,,,,,,,,-1.494140625,-11.689453125,1,0,0,5.79825997353,,,2015_Aug_23_1225,A,facesParametric,1,59.8211201456,
./stim/MorphF4_05_orig.jpg,122,,,,,,,,,0,122,122,122,,,,,,,,,,,,,,,-1.40625,-11.71875,1,0,0,0.920367002487,,,2015_Aug_23_1225,A,facesParametric,1,59.8211201456,
./stim/MorphF5_10_orig.jpg,123,,,,,,,,,0,123,123,123,,,,,,,,,,,,,,,-1.376953125,-11.71875,0,0,1,0.903425931931,,,2015_Aug_23_1225,A,facesParametric,1,59.8211201456,
./stim/MorphM9_06_orig.jpg,124,,,,,,,,,0,124,124,124,,,,,,,,,,,,,,,-1.376953125,-11.71875,0,0,1,1.0700480938,,,2015_Aug_23_1225,A,facesParametric,1,59.8211201456,
./stim/MorphF1_00_orig.jpg,125,,,,,,,,,0,125,125,125,,,,,,,,,,,,,,,-1.34765625,-11.689453125,1,0,0,1.27005791664,,,2015_Aug_23_1225,A,facesParametric,1,59.8211201456,
./stim/MorphF5_07_orig.jpg,126,,,,,,,,,0,126,126,126,,,,,,,,,,,,,,,-1.34765625,-11.689453125,0,0,1,1.08840894699,,,2015_Aug_23_1225,A,facesParametric,1,59.8211201456,
./stim/MorphM6_06_orig.jpg,127,,,,,,,,,0,127,127,127,,,,,,,,,,,,,,,-1.2890625,-11.689453125,0,0,1,1.84124588966,,,2015_Aug_23_1225,A,facesParametric,1,59.8211201456,
./stim/MorphF2_00_orig.jpg,128,,,,,,,,,0,128,128,128,,,,,,,,,,,,,,,-1.11328125,-11.689453125,1,0,0,1.0700879097,,,2015_Aug_23_1225,A,facesParametric,1,59.8211201456,
./stim/MorphM6_03_orig.jpg,129,,,,,,,,,0,129,129,129,,,,,,,,,,,,,,,-1.11328125,-11.689453125,1,0,0,1.27097606659,,,2015_Aug_23_1225,A,facesParametric,1,59.8211201456,
./stim/MorphM3_04_orig.jpg,130,,,,,,,,,0,130,130,130,,,,,,,,,,,,,,,-0.908203125,-11.689453125,1,0,0,1.22270202637,,,2015_Aug_23_1225,A,facesParametric,1,59.8211201456,
./stim/MorphM8_01_orig.jpg,131,,,,,,,,,0,131,131,131,,,,,,,,,,,,,,,-0.76171875,-11.66015625,0,0,1,2.67895197868,,,2015_Aug_23_1225,A,facesParametric,1,59.8211201456,
./stim/MorphM1_06_orig.jpg,132,,,,,,,,,0,132,132,132,,,,,,,,,,,,,,,-0.732421875,-11.689453125,1,0,0,1.40684986115,,,2015_Aug_23_1225,A,facesParametric,1,59.8211201456,
./stim/MorphM2_09_orig.jpg,133,,,,,,,,,0,133,133,133,,,,,,,,,,,,,,,-0.791015625,-11.71875,0,0,1,1.23892188072,,,2015_Aug_23_1225,A,facesParametric,1,59.8211201456,
./stim/MorphF2_01_orig.jpg,134,,,,,,,,,0,134,134,134,,,,,,,,,,,,,,,-0.8203125,-11.71875,1,0,0,1.07105517387,,,2015_Aug_23_1225,A,facesParametric,1,59.8211201456,
./stim/MorphM5_01_orig.jpg,135,,,,,,,,,0,135,135,135,,,,,,,,,,,,,,,-0.8203125,-11.71875,1,0,0,2.91524195671,,,2015_Aug_23_1225,A,facesParametric,1,59.8211201456,
./stim/MorphF8_03_orig.jpg,136,,,,,,,,,0,136,136,136,,,,,,,,,,,,,,,-0.8203125,-11.71875,1,0,0,0.802185058594,,,2015_Aug_23_1225,A,facesParametric,1,59.8211201456,
./stim/MorphF10_03_orig.jpg,137,,,,,,,,,0,137,137,137,,,,,,,,,,,,,,,-0.8203125,-11.71875,0,0,1,2.04153013229,,,2015_Aug_23_1225,A,facesParametric,1,59.8211201456,
./stim/MorphM7_09_orig.jpg,138,,,,,,,,,0,138,138,138,,,,,,,,,,,,,,,-0.8203125,-11.71875,0,0,1,1.00445699692,,,2015_Aug_23_1225,A,facesParametric,1,59.8211201456,
./stim/MorphM9_00_orig.jpg,139,,,,,,,,,0,139,139,139,,,,,,,,,,,,,,,-0.8203125,-11.71875,1,0,0,1.30576395988,,,2015_Aug_23_1225,A,facesParametric,1,59.8211201456,
./stim/MorphM3_05_orig.jpg,140,,,,,,,,,0,140,140,140,,,,,,,,,,,,,,,-0.8203125,-11.71875,0,0,1,1.55762290955,,,2015_Aug_23_1225,A,facesParametric,1,59.8211201456,
./stim/MorphM1_07_orig.jpg,141,,,,,,,,,0,141,141,141,,,,,,,,,,,,,,,-0.791015625,-11.748046875,1,0,0,2.84587883949,,,2015_Aug_23_1225,A,facesParametric,1,59.8211201456,
./stim/MorphM9_07_orig.jpg,142,,,,,,,,,0,142,142,142,,,,,,,,,,,,,,,-0.703125,-11.748046875,0,0,1,1.35621118546,,,2015_Aug_23_1225,A,facesParametric,1,59.8211201456,
./stim/MorphF3_03_orig.jpg,143,,,,,,,,,0,143,143,143,,,,,,,,,,,,,,,-0.703125,-11.748046875,1,0,0,4.99387717247,,,2015_Aug_23_1225,A,facesParametric,1,59.8211201456,
./stim/MorphF4_07_orig.jpg,144,,,,,,,,,0,144,144,144,,,,,,,,,,,,,,,-0.703125,-11.748046875,0,0,1,1.72389578819,,,2015_Aug_23_1225,A,facesParametric,1,59.8211201456,
./stim/MorphM2_10_orig.jpg,145,,,,,,,,,0,145,145,145,,,,,,,,,,,,,,,-0.703125,-11.748046875,0,0,1,0.769327878952,,,2015_Aug_23_1225,A,facesParametric,1,59.8211201456,
./stim/MorphF7_06_orig.jpg,146,,,,,,,,,0,146,146,146,,,,,,,,,,,,,,,-0.673828125,-11.748046875,0,0,1,1.67468905449,,,2015_Aug_23_1225,A,facesParametric,1,59.8211201456,
./stim/MorphM8_02_orig.jpg,147,,,,,,,,,0,147,147,147,,,,,,,,,,,,,,,-0.673828125,-11.748046875,0,0,1,2.59683394432,,,2015_Aug_23_1225,A,facesParametric,1,59.8211201456,
./stim/MorphF3_05_orig.jpg,148,,,,,,,,,0,148,148,148,,,,,,,,,,,,,,,-0.615234375,-11.77734375,1,0,0,3.73410987854,,,2015_Aug_23_1225,A,facesParametric,1,59.8211201456,
./stim/MorphF6_04_orig.jpg,149,,,,,,,,,0,149,149,149,,,,,,,,,,,,,,,-0.5859375,-11.77734375,1,0,0,1.00452399254,,,2015_Aug_23_1225,A,facesParametric,1,59.8211201456,
./stim/MorphM4_10_orig.jpg,150,,,,,,,,,0,150,150,150,,,,,,,,,,,,,,,-0.498046875,-11.77734375,0,0,1,1.27247691154,,,2015_Aug_23_1225,A,facesParametric,1,59.8211201456,
./stim/MorphF10_08_orig.jpg,151,,,,,,,,,0,151,151,151,,,,,,,,,,,,,,,-0.498046875,-11.77734375,0,0,1,0.735993146896,,,2015_Aug_23_1225,A,facesParametric,1,59.8211201456,
./stim/MorphF5_02_orig.jpg,152,,,,,,,,,0,152,152,152,,,,,,,,,,,,,,,-0.498046875,-11.77734375,1,0,0,0.904247045517,,,2015_Aug_23_1225,A,facesParametric,1,59.8211201456,
./stim/MorphF1_05_orig.jpg,153,,,,,,,,,0,153,153,153,,,,,,,,,,,,,,,-0.439453125,-11.77734375,1,0,0,1.27228116989,,,2015_Aug_23_1225,A,facesParametric,1,59.8211201456,
./stim/MorphF9_09_orig.jpg,154,,,,,,,,,0,154,154,154,,,,,,,,,,,,,,,-0.439453125,-11.77734375,0,0,1,1.15446782112,,,2015_Aug_23_1225,A,facesParametric,1,59.8211201456,
./stim/MorphF5_03_orig.jpg,155,,,,,,,,,0,155,155,155,,,,,,,,,,,,,,,-0.439453125,-11.77734375,1,0,0,0.971117973328,,,2015_Aug_23_1225,A,facesParametric,1,59.8211201456,
./stim/MorphF4_03_orig.jpg,156,,,,,,,,,0,156,156,156,,,,,,,,,,,,,,,-0.41015625,-11.77734375,1,0,0,1.47332286835,,,2015_Aug_23_1225,A,facesParametric,1,59.8211201456,
./stim/MorphF5_01_orig.jpg,157,,,,,,,,,0,157,157,157,,,,,,,,,,,,,,,-0.41015625,-11.77734375,1,0,0,1.03576302528,,,2015_Aug_23_1225,A,facesParametric,1,59.8211201456,
./stim/MorphM1_01_orig.jpg,158,,,,,,,,,0,158,158,158,,,,,,,,,,,,,,,-0.3515625,-11.806640625,1,0,0,3.96951198578,,,2015_Aug_23_1225,A,facesParametric,1,59.8211201456,
./stim/MorphF9_02_orig.jpg,159,,,,,,,,,0,159,159,159,,,,,,,,,,,,,,,-0.322265625,-11.806640625,1,0,0,0.93626499176,,,2015_Aug_23_1225,A,facesParametric,1,59.8211201456,
./stim/MorphF2_02_orig.jpg,160,,,,,,,,,0,160,160,160,,,,,,,,,,,,,,,-0.322265625,-11.806640625,1,0,0,2.29483318329,,,2015_Aug_23_1225,A,facesParametric,1,59.8211201456,
./stim/MorphM8_10_orig.jpg,161,,,,,,,,,0,161,161,161,,,,,,,,,,,,,,,-0.322265625,-11.806640625,0,0,1,0.836059093475,,,2015_Aug_23_1225,A,facesParametric,1,59.8211201456,
./stim/MorphM1_10_orig.jpg,162,,,,,,,,,0,162,162,162,,,,,,,,,,,,,,,-0.29296875,-11.806640625,0,0,1,1.03688192368,,,2015_Aug_23_1225,A,facesParametric,1,59.8211201456,
./stim/MorphF10_04_orig.jpg,163,,,,,,,,,0,163,163,163,,,,,,,,,,,,,,,-0.29296875,-11.806640625,0,0,1,0.71958899498,,,2015_Aug_23_1225,A,facesParametric,1,59.8211201456,
./stim/MorphF3_00_orig.jpg,164,,,,,,,,,0,164,164,164,,,,,,,,,,,,,,,-0.263671875,-11.77734375,1,0,0,1.27043914795,,,2015_Aug_23_1225,A,facesParametric,1,59.8211201456,
./stim/MorphM2_07_orig.jpg,165,,,,,,,,,0,165,165,165,,,,,,,,,,,,,,,-0.263671875,-11.77734375,0,0,1,2.88179993629,,,2015_Aug_23_1225,A,facesParametric,1,59.8211201456,
./stim/MorphF7_05_orig.jpg,166,,,,,,,,,0,166,166,166,,,,,,,,,,,,,,,-0.263671875,-11.77734375,0,0,1,0.935055971146,,,2015_Aug_23_1225,A,facesParametric,1,59.8211201456,
./stim/MorphF6_03_orig.jpg,167,,,,,,,,,0,167,167,167,,,,,,,,,,,,,,,-0.263671875,-11.77734375,1,0,0,1.92589497566,,,2015_Aug_23_1225,A,facesParametric,1,59.8211201456,
./stim/MorphF3_02_orig.jpg,168,,,,,,,,,0,168,168,168,,,,,,,,,,,,,,,-0.205078125,-11.77734375,1,0,0,1.80825018883,,,2015_Aug_23_1225,A,facesParametric,1,59.8211201456,
./stim/MorphF1_01_orig.jpg,169,,,,,,,,,0,169,169,169,,,,,,,,,,,,,,,-0.1171875,-11.77734375,1,0,0,3.16430997849,,,2015_Aug_23_1225,A,facesParametric,1,59.8211201456,
./stim/MorphM1_04_orig.jpg,170,,,,,,,,,0,170,170,170,,,,,,,,,,,,,,,-0.05859375,-11.806640625,1,0,0,1.53976607323,,,2015_Aug_23_1225,A,facesParametric,1,59.8211201456,
./stim/MorphF4_09_orig.jpg,171,,,,,,,,,0,171,171,171,,,,,,,,,,,,,,,-0.05859375,-11.806640625,0,0,1,2.16057610512,,,2015_Aug_23_1225,A,facesParametric,1,59.8211201456,
./stim/MorphM6_00_orig.jpg,172,,,,,,,,,0,172,172,172,,,,,,,,,,,,,,,-0.029296875,-11.8359375,1,0,0,0.919106006622,,,2015_Aug_23_1225,A,facesParametric,1,59.8211201456,
./stim/MorphM5_09_orig.jpg,173,,,,,,,,,0,173,173,173,,,,,,,,,,,,,,,-0.029296875,-11.8359375,0,0,1,1.08868288994,,,2015_Aug_23_1225,A,facesParametric,1,59.8211201456,
./stim/MorphF5_06_orig.jpg,174,,,,,,,,,0,174,174,174,,,,,,,,,,,,,,,-0.029296875,-11.8359375,0,0,1,0.954123973846,,,2015_Aug_23_1225,A,facesParametric,1,59.8211201456,
./stim/MorphF9_01_orig.jpg,175,,,,,,,,,0,175,175,175,,,,,,,,,,,,,,,-0.029296875,-11.8359375,1,0,0,1.12196207047,,,2015_Aug_23_1225,A,facesParametric,1,59.8211201456,
./stim/MorphM5_07_orig.jpg,176,,,,,,,,,0,176,176,176,,,,,,,,,,,,,,,-0.029296875,-11.8359375,1,0,0,2.34451913834,,,2015_Aug_23_1225,A,facesParametric,1,59.8211201456,
./stim/MorphM2_01_orig.jpg,177,,,,,,,,,0,177,177,177,,,,,,,,,,,,,,,0.0,-11.806640625,1,0,0,1.18873286247,,,2015_Aug_23_1225,A,facesParametric,1,59.8211201456,
./stim/MorphM7_03_orig.jpg,178,,,,,,,,,0,178,178,178,,,,,,,,,,,,,,,0.0,-11.806640625,0,0,1,2.74709701538,,,2015_Aug_23_1225,A,facesParametric,1,59.8211201456,
./stim/MorphM9_09_orig.jpg,179,,,,,,,,,0,179,179,179,,,,,,,,,,,,,,,0.0,-11.806640625,0,0,1,0.836781024933,,,2015_Aug_23_1225,A,facesParametric,1,59.8211201456,
./stim/MorphF9_10_orig.jpg,180,,,,,,,,,0,180,180,180,,,,,,,,,,,,,,,-0.087890625,-11.89453125,0,0,1,0.818783998489,,,2015_Aug_23_1225,A,facesParametric,1,59.8211201456,
./stim/MorphF8_10_orig.jpg,181,,,,,,,,,0,181,181,181,,,,,,,,,,,,,,,-0.087890625,-11.89453125,0,0,1,0.752942085266,,,2015_Aug_23_1225,A,facesParametric,1,59.8211201456,
./stim/MorphF10_10_orig.jpg,182,,,,,,,,,0,182,182,182,,,,,,,,,,,,,,,-0.1171875,-11.923828125,0,0,1,0.685104846954,,,2015_Aug_23_1225,A,facesParametric,1,59.8211201456,
./stim/MorphM3_09_orig.jpg,183,,,,,,,,,0,183,183,183,,,,,,,,,,,,,,,-0.1171875,-11.923828125,0,0,1,1.05411791801,,,2015_Aug_23_1225,A,facesParametric,1,59.8211201456,
./stim/MorphF10_05_orig.jpg,184,,,,,,,,,0,184,184,184,,,,,,,,,,,,,,,-0.1171875,-11.923828125,0,0,1,0.686069011688,,,2015_Aug_23_1225,A,facesParametric,1,59.8211201456,
./stim/MorphF6_00_orig.jpg,185,,,,,,,,,0,185,185,185,,,,,,,,,,,,,,,-0.029296875,-11.923828125,1,0,0,0.954404115677,,,2015_Aug_23_1225,A,facesParametric,1,59.8211201456,
./stim/MorphF8_08_orig.jpg,186,,,,,,,,,0,186,186,186,,,,,,,,,,,,,,,0.0,-11.923828125,0,0,1,2.12727499008,,,2015_Aug_23_1225,A,facesParametric,1,59.8211201456,
./stim/MorphF7_10_orig.jpg,187,,,,,,,,,0,187,187,187,,,,,,,,,,,,,,,0.0,-11.923828125,0,0,1,0.719000101089,,,2015_Aug_23_1225,A,facesParametric,1,59.8211201456,
./stim/MorphM9_10_orig.jpg,188,,,,,,,,,0,188,188,188,,,,,,,,,,,,,,,0.087890625,-11.89453125,0,0,1,0.803040981293,,,2015_Aug_23_1225,A,facesParametric,1,59.8211201456,
./stim/MorphM10_05_orig.jpg,189,,,,,,,,,0,189,189,189,,,,,,,,,,,,,,,0.1171875,-11.865234375,0,0,1,1.17188215256,,,2015_Aug_23_1225,A,facesParametric,1,59.8211201456,
./stim/MorphM8_03_orig.jpg,190,,,,,,,,,0,190,190,190,,,,,,,,,,,,,,,0.1171875,-11.806640625,1,0,0,1.00402379036,,,2015_Aug_23_1225,A,facesParametric,1,59.8211201456,
./stim/MorphF2_10_orig.jpg,191,,,,,,,,,0,191,191,191,,,,,,,,,,,,,,,0.1171875,-11.806640625,0,0,1,0.920860052109,,,2015_Aug_23_1225,A,facesParametric,1,59.8211201456,
./stim/MorphM1_02_orig.jpg,192,,,,,,,,,0,192,192,192,,,,,,,,,,,,,,,0.17578125,-11.806640625,1,0,0,1.20457315445,,,2015_Aug_23_1225,A,facesParametric,1,59.8211201456,
./stim/MorphM4_09_orig.jpg,193,,,,,,,,,0,193,193,193,,,,,,,,,,,,,,,0.205078125,-11.806640625,0,0,1,0.853823900223,,,2015_Aug_23_1225,A,facesParametric,1,59.8211201456,
./stim/MorphM8_07_orig.jpg,194,,,,,,,,,0,194,194,194,,,,,,,,,,,,,,,0.234375,-11.77734375,0,0,1,1.60510993004,,,2015_Aug_23_1225,A,facesParametric,1,59.8211201456,
./stim/MorphM1_08_orig.jpg,195,,,,,,,,,0,195,195,195,,,,,,,,,,,,,,,0.234375,-11.77734375,1,0,0,0.970860004425,,,2015_Aug_23_1225,A,facesParametric,1,59.8211201456,
./stim/MorphF4_08_orig.jpg,196,,,,,,,,,0,196,196,196,,,,,,,,,,,,,,,0.234375,-11.77734375,0,0,1,1.17187595367,,,2015_Aug_23_1225,A,facesParametric,1,59.8211201456,
./stim/MorphM9_04_orig.jpg,197,,,,,,,,,0,197,197,197,,,,,,,,,,,,,,,0.234375,-11.806640625,1,0,0,0.887314081192,,,2015_Aug_23_1225,A,facesParametric,1,59.8211201456,
./stim/MorphF1_09_orig.jpg,198,,,,,,,,,0,198,198,198,,,,,,,,,,,,,,,0.234375,-11.806640625,0,0,1,1.65800499916,,,2015_Aug_23_1225,A,facesParametric,1,59.8211201456,
./stim/MorphM9_08_orig.jpg,199,,,,,,,,,0,199,199,199,,,,,,,,,,,,,,,0.263671875,-11.8359375,0,0,1,1.05460906029,,,2015_Aug_23_1225,A,facesParametric,1,59.8211201456,
./stim/MorphF10_01_orig.jpg,200,,,,,,,,,0,200,200,200,,,,,,,,,,,,,,,0.0,-11.806640625,1,0,0,3.93742394447,,,2015_Aug_23_1225,A,facesParametric,1,59.8211201456,
./stim/MorphM10_00_orig.jpg,201,,,,,,,,,0,201,201,201,,,,,,,,,,,,,,,0.0,-11.77734375,1,0,0,1.1217520237,,,2015_Aug_23_1225,A,facesParametric,1,59.8211201456,
./stim/MorphM2_00_orig.jpg,202,,,,,,,,,0,202,202,202,,,,,,,,,,,,,,,-0.029296875,-11.748046875,1,0,0,0.785267114639,,,2015_Aug_23_1225,A,facesParametric,1,59.8211201456,
./stim/MorphM9_01_orig.jpg,203,,,,,,,,,0,203,203,203,,,,,,,,,,,,,,,-0.029296875,-11.748046875,1,0,0,0.937397003174,,,2015_Aug_23_1225,A,facesParametric,1,59.8211201456,
./stim/MorphF7_09_orig.jpg,204,,,,,,,,,0,204,204,204,,,,,,,,,,,,,,,-0.029296875,-11.748046875,0,0,1,0.987461090088,,,2015_Aug_23_1225,A,facesParametric,1,59.8211201456,
./stim/MorphF9_00_orig.jpg,205,,,,,,,,,0,205,205,205,,,,,,,,,,,,,,,0.0,-11.748046875,1,0,0,0.970843076706,,,2015_Aug_23_1225,A,facesParametric,1,59.8211201456,
./stim/MorphM2_02_orig.jpg,206,,,,,,,,,0,206,206,206,,,,,,,,,,,,,,,0.029296875,-11.748046875,1,0,0,1.07141900063,,,2015_Aug_23_1225,A,facesParametric,1,59.8211201456,
./stim/MorphF8_05_orig.jpg,207,,,,,,,,,0,207,207,207,,,,,,,,,,,,,,,0.029296875,-11.748046875,1,0,0,1.52386713028,,,2015_Aug_23_1225,A,facesParametric,1,59.8211201456,
./stim/MorphF3_09_orig.jpg,208,,,,,,,,,0,208,208,208,,,,,,,,,,,,,,,0.029296875,-11.748046875,0,0,1,0.918406009674,,,2015_Aug_23_1225,A,facesParametric,1,59.8211201456,
./stim/MorphM5_10_orig.jpg,209,,,,,,,,,0,209,209,209,,,,,,,,,,,,,,,0.087890625,-11.748046875,0,0,1,0.920687913895,,,2015_Aug_23_1225,A,facesParametric,1,59.8211201456,
./stim/MorphM8_08_orig.jpg,210,,,,,,,,,0,210,210,210,,,,,,,,,,,,,,,0.087890625,-11.748046875,0,0,1,1.20378613472,,,2015_Aug_23_1225,A,facesParametric,1,59.8211201456,
./stim/MorphM3_07_orig.jpg,211,,,,,,,,,0,211,211,211,,,,,,,,,,,,,,,0.087890625,-11.748046875,0,0,1,0.769878149033,,,2015_Aug_23_1225,A,facesParametric,1,59.8211201456,
./stim/MorphM5_06_orig.jpg,212,,,,,,,,,0,212,212,212,,,,,,,,,,,,,,,0.1171875,-11.748046875,1,0,0,1.49049401283,,,2015_Aug_23_1225,A,facesParametric,1,59.8211201456,
./stim/MorphF5_09_orig.jpg,213,,,,,,,,,0,213,213,213,,,,,,,,,,,,,,,0.1171875,-11.748046875,0,0,1,0.853367090225,,,2015_Aug_23_1225,A,facesParametric,1,59.8211201456,
./stim/MorphF8_06_orig.jpg,214,,,,,,,,,0,214,214,214,,,,,,,,,,,,,,,0.1171875,-11.748046875,0,0,1,1.13730216026,,,2015_Aug_23_1225,A,facesParametric,1,59.8211201456,
./stim/MorphF5_04_orig.jpg,215,,,,,,,,,0,215,215,215,,,,,,,,,,,,,,,0.146484375,-11.748046875,1,0,0,2.71243786812,,,2015_Aug_23_1225,A,facesParametric,1,59.8211201456,
./stim/MorphM2_04_orig.jpg,216,,,,,,,,,0,216,216,216,,,,,,,,,,,,,,,0.17578125,-11.748046875,1,0,0,1.07126116753,,,2015_Aug_23_1225,A,facesParametric,1,59.8211201456,
./stim/MorphF2_05_orig.jpg,217,,,,,,,,,0,217,217,217,,,,,,,,,,,,,,,0.205078125,-11.77734375,0,0,1,1.12156200409,,,2015_Aug_23_1225,A,facesParametric,1,59.8211201456,
./stim/MorphM7_01_orig.jpg,218,,,,,,,,,0,218,218,218,,,,,,,,,,,,,,,0.205078125,-11.77734375,1,0,0,2.29486989975,,,2015_Aug_23_1225,A,facesParametric,1,59.8211201456,
./stim/MorphF10_09_orig.jpg,219,,,,,,,,,0,219,219,219,,,,,,,,,,,,,,,0.205078125,-11.77734375,0,0,1,1.30578303337,,,2015_Aug_23_1225,A,facesParametric,1,59.8211201456,
