img,num,basicLoop.thisRepN,basicLoop.thisTrialN,basicLoop.thisN,basicLoop.thisIndex,trials.thisRepN,trials.thisTrialN,trials.thisN,trials.thisIndex,trials2.thisRepN,trials2.thisTrialN,trials2.thisN,trials2.thisIndex,key_resp_2.keys,key_resp_2.rt,basicRating1.response,basicRating1.rt,basicRating2.response,basicRating2.rt,basicRating3.response,basicRating3.rt,basicRating4.response,basicRating4.rt,key_resp_3.keys,key_resp_3.rt,key_resp_4.keys,key_resp_4.rt,mouseResp.x,mouseResp.y,mouseResp.leftButton,mouseResp.midButton,mouseResp.rightButton,mouseResp.time,key_resp_5.keys,key_resp_5.rt,key_resp_7.keys,key_resp_7.rt,date,group,expName,participant,frameRate,
,,,,,,,,,,,,,,return,14.0671799183,,,,,,,,,,,,,,,,,,,,,,,2015_Sep_13_1402,A,facesParametric,2,59.6566506513,
./basicStim/36M_FE_O.jpg,,0,0,0,79,,,,,,,,,,,None,None,FEA,10.062,None,None,None,None,,,,,,,,,,,,,,,2015_Sep_13_1402,A,facesParametric,2,59.6566506513,
./basicStim/01F_AN_O.jpg,,0,1,1,0,,,,,,,,,,,None,None,ANG,3.559,None,None,None,None,,,,,,,,,,,,,,,2015_Sep_13_1402,A,facesParametric,2,59.6566506513,
./basicStim/36M_NE_C.jpg,,0,2,2,83,,,,,,,,,,,None,None,None,None,None,None,NTR,2.113,,,,,,,,,,,,,,,2015_Sep_13_1402,A,facesParametric,2,59.6566506513,
./basicStim/36M_HA_O.jpg,,0,3,3,80,,,,,,,,,,,HAP,2.47,None,None,None,None,None,None,,,,,,,,,,,,,,,2015_Sep_13_1402,A,facesParametric,2,59.6566506513,
./basicStim/09F_FE_O.jpg,,0,4,4,37,,,,,,,,,,,None,None,FEA,4.364,None,None,None,None,,,,,,,,,,,,,,,2015_Sep_13_1402,A,facesParametric,2,59.6566506513,
./basicStim/01F_HA_O.jpg,,0,5,5,3,,,,,,,,,,,HAP,2.739,None,None,None,None,None,None,,,,,,,,,,,,,,,2015_Sep_13_1402,A,facesParametric,2,59.6566506513,
./basicStim/34M_FE_O.jpg,,0,6,6,72,,,,,,,,,,,None,None,FEA,4.947,None,None,None,None,,,,,,,,,,,,,,,2015_Sep_13_1402,A,facesParametric,2,59.6566506513,
./basicStim/34M_SP_O.jpg,,0,7,7,75,,,,,,,,,,,None,None,None,None,SUP,2.6,None,None,,,,,,,,,,,,,,,2015_Sep_13_1402,A,facesParametric,2,59.6566506513,
./basicStim/09F_DI_O.jpg,,0,8,8,36,,,,,,,,,,,None,None,None,None,DIS,2.6,None,None,,,,,,,,,,,,,,,2015_Sep_13_1402,A,facesParametric,2,59.6566506513,
./basicStim/24M_FE_O.jpg,,0,9,9,58,,,,,,,,,,,None,None,None,None,DIS,2.971,None,None,,,,,,,,,,,,,,,2015_Sep_13_1402,A,facesParametric,2,59.6566506513,
./basicStim/23M_HA_O.jpg,,0,10,10,52,,,,,,,,,,,HAP,2.671,None,None,None,None,None,None,,,,,,,,,,,,,,,2015_Sep_13_1402,A,facesParametric,2,59.6566506513,
./basicStim/06F_SA_C.jpg,,0,11,11,25,,,,,,,,,,,None,None,None,None,DIS,3.507,None,None,,,,,,,,,,,,,,,2015_Sep_13_1402,A,facesParametric,2,59.6566506513,
./basicStim/21M_SA_C.jpg,,0,12,12,46,,,,,,,,,,,None,None,None,None,DIS,6.404,None,None,,,,,,,,,,,,,,,2015_Sep_13_1402,A,facesParametric,2,59.6566506513,
./basicStim/36M_AN_O.jpg,,0,13,13,77,,,,,,,,,,,None,None,ANG,5.131,None,None,None,None,,,,,,,,,,,,,,,2015_Sep_13_1402,A,facesParametric,2,59.6566506513,
./basicStim/02F_HA_O.jpg,,0,14,14,10,,,,,,,,,,,HAP,3.036,None,None,None,None,None,None,,,,,,,,,,,,,,,2015_Sep_13_1402,A,facesParametric,2,59.6566506513,
./basicStim/09F_HA_O.jpg,,0,15,15,38,,,,,,,,,,,HAP,0.98,None,None,None,None,None,None,,,,,,,,,,,,,,,2015_Sep_13_1402,A,facesParametric,2,59.6566506513,
./basicStim/28M_SP_O.jpg,,0,16,16,68,,,,,,,,,,,None,None,None,None,SUP,2.233,None,None,,,,,,,,,,,,,,,2015_Sep_13_1402,A,facesParametric,2,59.6566506513,
./basicStim/34M_HA_O.jpg,,0,17,17,73,,,,,,,,,,,HAP,2.855,None,None,None,None,None,None,,,,,,,,,,,,,,,2015_Sep_13_1402,A,facesParametric,2,59.6566506513,
./basicStim/03F_HA_O.jpg,,0,18,18,17,,,,,,,,,,,HAP,1.077,None,None,None,None,None,None,,,,,,,,,,,,,,,2015_Sep_13_1402,A,facesParametric,2,59.6566506513,
./basicStim/02F_SA_C.jpg,,0,19,19,11,,,,,,,,,,,SAD,2.369,None,None,None,None,None,None,,,,,,,,,,,,,,,2015_Sep_13_1402,A,facesParametric,2,59.6566506513,
./basicStim/36M_DI_O.jpg,,0,20,20,78,,,,,,,,,,,None,None,None,None,DIS,1.41,None,None,,,,,,,,,,,,,,,2015_Sep_13_1402,A,facesParametric,2,59.6566506513,
./basicStim/23M_FE_O.jpg,,0,21,21,51,,,,,,,,,,,SAD,5.408,None,None,None,None,None,None,,,,,,,,,,,,,,,2015_Sep_13_1402,A,facesParametric,2,59.6566506513,
./basicStim/28M_DI_O.jpg,,0,22,22,64,,,,,,,,,,,None,None,None,None,DIS,1.559,None,None,,,,,,,,,,,,,,,2015_Sep_13_1402,A,facesParametric,2,59.6566506513,
./basicStim/06F_FE_O.jpg,,0,23,23,23,,,,,,,,,,,None,None,FEA,3.827,None,None,None,None,,,,,,,,,,,,,,,2015_Sep_13_1402,A,facesParametric,2,59.6566506513,
./basicStim/36M_SA_C.jpg,,0,24,24,81,,,,,,,,,,,None,None,None,None,DIS,7.176,None,None,,,,,,,,,,,,,,,2015_Sep_13_1402,A,facesParametric,2,59.6566506513,
./basicStim/06F_SP_O.jpg,,0,25,25,26,,,,,,,,,,,None,None,FEA,4.882,None,None,None,None,,,,,,,,,,,,,,,2015_Sep_13_1402,A,facesParametric,2,59.6566506513,
./basicStim/07F_SP_O.jpg,,0,26,26,33,,,,,,,,,,,None,None,None,None,SUP,4.356,None,None,,,,,,,,,,,,,,,2015_Sep_13_1402,A,facesParametric,2,59.6566506513,
./basicStim/09F_SA_C.jpg,,0,27,27,39,,,,,,,,,,,None,None,None,None,DIS,5.817,None,None,,,,,,,,,,,,,,,2015_Sep_13_1402,A,facesParametric,2,59.6566506513,
./basicStim/28M_HA_O.jpg,,0,28,28,66,,,,,,,,,,,HAP,1.986,None,None,None,None,None,None,,,,,,,,,,,,,,,2015_Sep_13_1402,A,facesParametric,2,59.6566506513,
./basicStim/02F_NE_C.jpg,,0,29,29,13,,,,,,,,,,,None,None,None,None,None,None,NTR,1.643,,,,,,,,,,,,,,,2015_Sep_13_1402,A,facesParametric,2,59.6566506513,
./basicStim/23M_AN_O.jpg,,0,30,30,49,,,,,,,,,,,None,None,ANG,5.1,None,None,None,None,,,,,,,,,,,,,,,2015_Sep_13_1402,A,facesParametric,2,59.6566506513,
./basicStim/28M_NE_C.jpg,,0,31,31,69,,,,,,,,,,,None,None,None,None,None,None,NTR,1.125,,,,,,,,,,,,,,,2015_Sep_13_1402,A,facesParametric,2,59.6566506513,
./basicStim/24M_HA_O.jpg,,0,32,32,59,,,,,,,,,,,HAP,1.984,None,None,None,None,None,None,,,,,,,,,,,,,,,2015_Sep_13_1402,A,facesParametric,2,59.6566506513,
./basicStim/23M_NE_C.jpg,,0,33,33,55,,,,,,,,,,,None,None,None,None,None,None,NTR,1.312,,,,,,,,,,,,,,,2015_Sep_13_1402,A,facesParametric,2,59.6566506513,
./basicStim/09F_AN_O.jpg,,0,34,34,35,,,,,,,,,,,None,None,ANG,4.895,None,None,None,None,,,,,,,,,,,,,,,2015_Sep_13_1402,A,facesParametric,2,59.6566506513,
./basicStim/07F_AN_O.jpg,,0,35,35,28,,,,,,,,,,,None,None,ANG,2.536,None,None,None,None,,,,,,,,,,,,,,,2015_Sep_13_1402,A,facesParametric,2,59.6566506513,
./basicStim/07F_SA_C.jpg,,0,36,36,32,,,,,,,,,,,SAD,1.902,None,None,None,None,None,None,,,,,,,,,,,,,,,2015_Sep_13_1402,A,facesParametric,2,59.6566506513,
./basicStim/03F_NE_C.jpg,,0,37,37,20,,,,,,,,,,,None,None,None,None,None,None,NTR,1.428,,,,,,,,,,,,,,,2015_Sep_13_1402,A,facesParametric,2,59.6566506513,
./basicStim/01F_FE_O.jpg,,0,38,38,2,,,,,,,,,,,None,None,FEA,4.897,None,None,None,None,,,,,,,,,,,,,,,2015_Sep_13_1402,A,facesParametric,2,59.6566506513,
./basicStim/24M_AN_O.jpg,,0,39,39,56,,,,,,,,,,,None,None,ANG,7.173,None,None,None,None,,,,,,,,,,,,,,,2015_Sep_13_1402,A,facesParametric,2,59.6566506513,
./basicStim/01F_NE_C.jpg,,0,40,40,6,,,,,,,,,,,None,None,None,None,None,None,NTR,1.41,,,,,,,,,,,,,,,2015_Sep_13_1402,A,facesParametric,2,59.6566506513,
./basicStim/07F_FE_O.jpg,,0,41,41,30,,,,,,,,,,,None,None,None,None,DIS,3.155,None,None,,,,,,,,,,,,,,,2015_Sep_13_1402,A,facesParametric,2,59.6566506513,
./basicStim/09F_SP_O.jpg,,0,42,42,40,,,,,,,,,,,None,None,None,None,SUP,1.62,None,None,,,,,,,,,,,,,,,2015_Sep_13_1402,A,facesParametric,2,59.6566506513,
./basicStim/21M_NE_C.jpg,,0,43,43,48,,,,,,,,,,,None,None,None,None,None,None,NTR,1.406,,,,,,,,,,,,,,,2015_Sep_13_1402,A,facesParametric,2,59.6566506513,
./basicStim/21M_DI_O.jpg,,0,44,44,43,,,,,,,,,,,None,None,None,None,DIS,2.418,None,None,,,,,,,,,,,,,,,2015_Sep_13_1402,A,facesParametric,2,59.6566506513,
./basicStim/06F_DI_O.jpg,,0,45,45,22,,,,,,,,,,,None,None,None,None,DIS,1.213,None,None,,,,,,,,,,,,,,,2015_Sep_13_1402,A,facesParametric,2,59.6566506513,
./basicStim/02F_DI_O.jpg,,0,46,46,8,,,,,,,,,,,None,None,None,None,DIS,4.133,None,None,,,,,,,,,,,,,,,2015_Sep_13_1402,A,facesParametric,2,59.6566506513,
./basicStim/36M_SP_O.jpg,,0,47,47,82,,,,,,,,,,,None,None,None,None,SUP,1.574,None,None,,,,,,,,,,,,,,,2015_Sep_13_1402,A,facesParametric,2,59.6566506513,
./basicStim/07F_HA_O.jpg,,0,48,48,31,,,,,,,,,,,HAP,2.033,None,None,None,None,None,None,,,,,,,,,,,,,,,2015_Sep_13_1402,A,facesParametric,2,59.6566506513,
./basicStim/03F_AN_O.jpg,,0,49,49,14,,,,,,,,,,,None,None,ANG,1.515,None,None,None,None,,,,,,,,,,,,,,,2015_Sep_13_1402,A,facesParametric,2,59.6566506513,
./basicStim/07F_DI_O.jpg,,0,50,50,29,,,,,,,,,,,None,None,None,None,DIS,1.802,None,None,,,,,,,,,,,,,,,2015_Sep_13_1402,A,facesParametric,2,59.6566506513,
./basicStim/21M_FE_O.jpg,,0,51,51,44,,,,,,,,,,,None,None,FEA,2.284,None,None,None,None,,,,,,,,,,,,,,,2015_Sep_13_1402,A,facesParametric,2,59.6566506513,
./basicStim/24M_SP_O.jpg,,0,52,52,61,,,,,,,,,,,None,None,None,None,SUP,3.274,None,None,,,,,,,,,,,,,,,2015_Sep_13_1402,A,facesParametric,2,59.6566506513,
./basicStim/34M_NE_C.jpg,,0,53,53,76,,,,,,,,,,,None,None,None,None,None,None,NTR,1.073,,,,,,,,,,,,,,,2015_Sep_13_1402,A,facesParametric,2,59.6566506513,
./basicStim/21M_HA_O.jpg,,0,54,54,45,,,,,,,,,,,HAP,2.001,None,None,None,None,None,None,,,,,,,,,,,,,,,2015_Sep_13_1402,A,facesParametric,2,59.6566506513,
./basicStim/02F_AN_O.jpg,,0,55,55,7,,,,,,,,,,,None,None,ANG,2.353,None,None,None,None,,,,,,,,,,,,,,,2015_Sep_13_1402,A,facesParametric,2,59.6566506513,
./basicStim/03F_SP_O.jpg,,0,56,56,19,,,,,,,,,,,HAP,3.291,None,None,None,None,None,None,,,,,,,,,,,,,,,2015_Sep_13_1402,A,facesParametric,2,59.6566506513,
./basicStim/09F_NE_C.jpg,,0,57,57,41,,,,,,,,,,,None,None,None,None,None,None,NTR,1.258,,,,,,,,,,,,,,,2015_Sep_13_1402,A,facesParametric,2,59.6566506513,
./basicStim/23M_SP_O.jpg,,0,58,58,54,,,,,,,,,,,None,None,None,None,SUP,2.03,None,None,,,,,,,,,,,,,,,2015_Sep_13_1402,A,facesParametric,2,59.6566506513,
./basicStim/03F_SA_C.jpg,,0,59,59,18,,,,,,,,,,,SAD,1.817,None,None,None,None,None,None,,,,,,,,,,,,,,,2015_Sep_13_1402,A,facesParametric,2,59.6566506513,
./basicStim/34M_DI_O.jpg,,0,60,60,71,,,,,,,,,,,None,None,None,None,DIS,2.297,None,None,,,,,,,,,,,,,,,2015_Sep_13_1402,A,facesParametric,2,59.6566506513,
./basicStim/01F_SA_C.jpg,,0,61,61,4,,,,,,,,,,,SAD,1.831,None,None,None,None,None,None,,,,,,,,,,,,,,,2015_Sep_13_1402,A,facesParametric,2,59.6566506513,
./basicStim/28M_SA_C.jpg,,0,62,62,67,,,,,,,,,,,SAD,2.02,None,None,None,None,None,None,,,,,,,,,,,,,,,2015_Sep_13_1402,A,facesParametric,2,59.6566506513,
./basicStim/03F_DI_O.jpg,,0,63,63,15,,,,,,,,,,,None,None,None,None,DIS,1.618,None,None,,,,,,,,,,,,,,,2015_Sep_13_1402,A,facesParametric,2,59.6566506513,
./basicStim/01F_DI_O.jpg,,0,64,64,1,,,,,,,,,,,None,None,None,None,DIS,2.231,None,None,,,,,,,,,,,,,,,2015_Sep_13_1402,A,facesParametric,2,59.6566506513,
./basicStim/34M_SA_C.jpg,,0,65,65,74,,,,,,,,,,,SAD,2.753,None,None,None,None,None,None,,,,,,,,,,,,,,,2015_Sep_13_1402,A,facesParametric,2,59.6566506513,
./basicStim/34M_AN_O.jpg,,0,66,66,70,,,,,,,,,,,None,None,ANG,3.19,None,None,None,None,,,,,,,,,,,,,,,2015_Sep_13_1402,A,facesParametric,2,59.6566506513,
./basicStim/24M_DI_O.jpg,,0,67,67,57,,,,,,,,,,,SAD,1.449,None,None,None,None,None,None,,,,,,,,,,,,,,,2015_Sep_13_1402,A,facesParametric,2,59.6566506513,
./basicStim/01F_SP_O.jpg,,0,68,68,5,,,,,,,,,,,None,None,None,None,SUP,2.386,None,None,,,,,,,,,,,,,,,2015_Sep_13_1402,A,facesParametric,2,59.6566506513,
./basicStim/24M_SA_C.jpg,,0,69,69,60,,,,,,,,,,,SAD,1.196,None,None,None,None,None,None,,,,,,,,,,,,,,,2015_Sep_13_1402,A,facesParametric,2,59.6566506513,
./basicStim/06F_NE_C.jpg,,0,70,70,27,,,,,,,,,,,None,None,None,None,None,None,NTR,1.442,,,,,,,,,,,,,,,2015_Sep_13_1402,A,facesParametric,2,59.6566506513,
./basicStim/24M_NE_C.jpg,,0,71,71,62,,,,,,,,,,,None,None,None,None,None,None,NTR,1.529,,,,,,,,,,,,,,,2015_Sep_13_1402,A,facesParametric,2,59.6566506513,
./basicStim/21M_SP_O.jpg,,0,72,72,47,,,,,,,,,,,None,None,None,None,SUP,1.745,None,None,,,,,,,,,,,,,,,2015_Sep_13_1402,A,facesParametric,2,59.6566506513,
./basicStim/06F_HA_O.jpg,,0,73,73,24,,,,,,,,,,,HAP,1.616,None,None,None,None,None,None,,,,,,,,,,,,,,,2015_Sep_13_1402,A,facesParametric,2,59.6566506513,
./basicStim/28M_AN_O.jpg,,0,74,74,63,,,,,,,,,,,None,None,ANG,1.469,None,None,None,None,,,,,,,,,,,,,,,2015_Sep_13_1402,A,facesParametric,2,59.6566506513,
./basicStim/06F_AN_O.jpg,,0,75,75,21,,,,,,,,,,,None,None,ANG,4.109,None,None,None,None,,,,,,,,,,,,,,,2015_Sep_13_1402,A,facesParametric,2,59.6566506513,
./basicStim/28M_FE_O.jpg,,0,76,76,65,,,,,,,,,,,None,None,FEA,3.309,None,None,None,None,,,,,,,,,,,,,,,2015_Sep_13_1402,A,facesParametric,2,59.6566506513,
./basicStim/23M_DI_O.jpg,,0,77,77,50,,,,,,,,,,,SAD,2.486,None,None,None,None,None,None,,,,,,,,,,,,,,,2015_Sep_13_1402,A,facesParametric,2,59.6566506513,
./basicStim/03F_FE_O.jpg,,0,78,78,16,,,,,,,,,,,None,None,None,None,SUP,2.384,None,None,,,,,,,,,,,,,,,2015_Sep_13_1402,A,facesParametric,2,59.6566506513,
./basicStim/21M_AN_O.jpg,,0,79,79,42,,,,,,,,,,,None,None,ANG,3.156,None,None,None,None,,,,,,,,,,,,,,,2015_Sep_13_1402,A,facesParametric,2,59.6566506513,
./basicStim/02F_FE_O.jpg,,0,80,80,9,,,,,,,,,,,None,None,FEA,4.628,None,None,None,None,,,,,,,,,,,,,,,2015_Sep_13_1402,A,facesParametric,2,59.6566506513,
./basicStim/07F_NE_C.jpg,,0,81,81,34,,,,,,,,,,,None,None,None,None,None,None,NTR,1.826,,,,,,,,,,,,,,,2015_Sep_13_1402,A,facesParametric,2,59.6566506513,
./basicStim/02F_SP_O.jpg,,0,82,82,12,,,,,,,,,,,None,None,None,None,SUP,4.609,None,None,,,,,,,,,,,,,,,2015_Sep_13_1402,A,facesParametric,2,59.6566506513,
./basicStim/23M_SA_C.jpg,,0,83,83,53,,,,,,,,,,,SAD,7.23,None,None,None,None,None,None,,,,,,,,,,,,,,,2015_Sep_13_1402,A,facesParametric,2,59.6566506513,
,,,,,,,,,,,,,,,,,,,,,,,,return,2.91566801071,,,,,,,,,,,,,2015_Sep_13_1402,A,facesParametric,2,59.6566506513,
,,,,,,,,,,,,,,return,8.64753699303,,,,,,,,,,,,,,,,,,,,,,,2015_Sep_13_1402,A,facesParametric,2,59.6566506513,
,,,,,,,,,,,,,,,,,,,,,,,,return,20.178278923,,,,,,,,,,,,,2015_Sep_13_1402,A,facesParametric,2,59.6566506513,
,,,,,,,,,,,,,,,,,,,,,,,,,,return,2.01104879379,,,,,,,,,,,2015_Sep_13_1402,A,facesParametric,2,59.6566506513,
./stim/MorphM6_10_orig.jpg,0,,,,,0,0,0,0,,,,,,,,,,,,,,,,,,,17.607421875,-0.908203125,1,0,0,8.8419380188,,,,,2015_Sep_13_1402,A,facesParametric,2,59.6566506513,
./stim/MorphF9_04_orig.jpg,1,,,,,0,1,1,1,,,,,,,,,,,,,,,,,,,17.63671875,-0.791015625,0,0,1,2.17505097389,,,,,2015_Sep_13_1402,A,facesParametric,2,59.6566506513,
./stim/MorphM3_03_orig.jpg,2,,,,,0,2,2,2,,,,,,,,,,,,,,,,,,,17.490234375,-0.8203125,0,0,1,2.78106307983,,,,,2015_Sep_13_1402,A,facesParametric,2,59.6566506513,
./stim/MorphM1_00_orig.jpg,3,,,,,0,3,3,3,,,,,,,,,,,,,,,,,,,15.87890625,1.962890625,1,0,0,7.74165821075,,,,,2015_Sep_13_1402,A,facesParametric,2,59.6566506513,
./stim/MorphM6_09_orig.jpg,4,,,,,0,4,4,4,,,,,,,,,,,,,,,,,,,15.9375,1.81640625,1,0,0,3.23219299316,,,,,2015_Sep_13_1402,A,facesParametric,2,59.6566506513,
./stim/MorphM10_02_orig.jpg,5,,,,,0,5,5,5,,,,,,,,,,,,,,,,,,,15.99609375,1.728515625,1,0,0,2.17782592773,,,,,2015_Sep_13_1402,A,facesParametric,2,59.6566506513,
./stim/MorphM3_06_orig.jpg,6,,,,,0,6,6,6,,,,,,,,,,,,,,,,,,,15.966796875,1.845703125,0,0,1,1.32218599319,,,,,2015_Sep_13_1402,A,facesParametric,2,59.6566506513,
./stim/MorphM7_08_orig.jpg,7,,,,,0,7,7,7,,,,,,,,,,,,,,,,,,,15.9375,1.875,0,0,1,2.62995290756,,,,,2015_Sep_13_1402,A,facesParametric,2,59.6566506513,
./stim/MorphM6_04_orig.jpg,8,,,,,0,8,8,8,,,,,,,,,,,,,,,,,,,16.025390625,1.7578125,0,0,1,10.3054990768,,,,,2015_Sep_13_1402,A,facesParametric,2,59.6566506513,
./stim/MorphM2_05_orig.jpg,9,,,,,0,9,9,9,,,,,,,,,,,,,,,,,,,16.0546875,1.728515625,0,0,1,1.64066791534,,,,,2015_Sep_13_1402,A,facesParametric,2,59.6566506513,
./stim/MorphM3_01_orig.jpg,10,,,,,0,10,10,10,,,,,,,,,,,,,,,,,,,16.025390625,1.7578125,1,0,0,3.71998596191,,,,,2015_Sep_13_1402,A,facesParametric,2,59.6566506513,
./stim/MorphF1_03_orig.jpg,11,,,,,0,11,11,11,,,,,,,,,,,,,,,,,,,15.99609375,1.787109375,0,0,1,1.7562828064,,,,,2015_Sep_13_1402,A,facesParametric,2,59.6566506513,
./stim/MorphF8_09_orig.jpg,12,,,,,0,12,12,12,,,,,,,,,,,,,,,,,,,15.87890625,1.7578125,1,0,0,2.49639391899,,,,,2015_Sep_13_1402,A,facesParametric,2,59.6566506513,
./stim/MorphF3_01_orig.jpg,13,,,,,0,13,13,13,,,,,,,,,,,,,,,,,,,15.99609375,1.728515625,0,0,1,2.02464294434,,,,,2015_Sep_13_1402,A,facesParametric,2,59.6566506513,
./stim/MorphF7_03_orig.jpg,14,,,,,0,14,14,14,,,,,,,,,,,,,,,,,,,16.025390625,1.728515625,0,0,1,2.76287293434,,,,,2015_Sep_13_1402,A,facesParametric,2,59.6566506513,
./stim/MorphM1_05_orig.jpg,15,,,,,0,15,15,15,,,,,,,,,,,,,,,,,,,16.0546875,1.69921875,0,0,1,7.55759215355,,,,,2015_Sep_13_1402,A,facesParametric,2,59.6566506513,
./stim/MorphM5_08_orig.jpg,16,,,,,0,16,16,16,,,,,,,,,,,,,,,,,,,15.99609375,1.640625,1,0,0,2.09298181534,,,,,2015_Sep_13_1402,A,facesParametric,2,59.6566506513,
./stim/MorphF7_01_orig.jpg,17,,,,,0,17,17,17,,,,,,,,,,,,,,,,,,,15.99609375,1.640625,0,0,1,2.29448103905,,,,,2015_Sep_13_1402,A,facesParametric,2,59.6566506513,
./stim/MorphF1_10_orig.jpg,18,,,,,0,18,18,18,,,,,,,,,,,,,,,,,,,16.025390625,1.669921875,1,0,0,1.64128708839,,,,,2015_Sep_13_1402,A,facesParametric,2,59.6566506513,
./stim/MorphF9_06_orig.jpg,19,,,,,0,19,19,19,,,,,,,,,,,,,,,,,,,16.0546875,1.640625,1,0,0,3.16623806953,,,,,2015_Sep_13_1402,A,facesParametric,2,59.6566506513,
./stim/MorphM4_00_orig.jpg,20,,,,,0,20,20,20,,,,,,,,,,,,,,,,,,,16.11328125,1.669921875,0,0,1,1.57389903069,,,,,2015_Sep_13_1402,A,facesParametric,2,59.6566506513,
./stim/MorphM10_08_orig.jpg,21,,,,,0,21,21,21,,,,,,,,,,,,,,,,,,,16.083984375,1.552734375,1,0,0,1.33769416809,,,,,2015_Sep_13_1402,A,facesParametric,2,59.6566506513,
./stim/MorphF8_07_orig.jpg,22,,,,,0,22,22,22,,,,,,,,,,,,,,,,,,,16.201171875,1.640625,0,0,1,3.58502721786,,,,,2015_Sep_13_1402,A,facesParametric,2,59.6566506513,
./stim/MorphF6_02_orig.jpg,23,,,,,0,23,23,23,,,,,,,,,,,,,,,,,,,16.142578125,1.58203125,0,0,1,1.17147302628,,,,,2015_Sep_13_1402,A,facesParametric,2,59.6566506513,
./stim/MorphM2_08_orig.jpg,24,,,,,0,24,24,24,,,,,,,,,,,,,,,,,,,16.171875,1.5234375,1,0,0,5.22785305977,,,,,2015_Sep_13_1402,A,facesParametric,2,59.6566506513,
./stim/MorphF9_05_orig.jpg,25,,,,,0,25,25,25,,,,,,,,,,,,,,,,,,,16.23046875,1.318359375,0,0,1,2.59651708603,,,,,2015_Sep_13_1402,A,facesParametric,2,59.6566506513,
./stim/MorphF1_08_orig.jpg,26,,,,,0,26,26,26,,,,,,,,,,,,,,,,,,,16.11328125,1.2890625,0,0,1,3.39945697784,,,,,2015_Sep_13_1402,A,facesParametric,2,59.6566506513,
./stim/MorphF6_09_orig.jpg,27,,,,,0,27,27,27,,,,,,,,,,,,,,,,,,,16.11328125,1.2890625,1,0,0,1.57418417931,,,,,2015_Sep_13_1402,A,facesParametric,2,59.6566506513,
./stim/MorphF2_09_orig.jpg,28,,,,,0,28,28,28,,,,,,,,,,,,,,,,,,,16.083984375,1.259765625,1,0,0,1.30616998672,,,,,2015_Sep_13_1402,A,facesParametric,2,59.6566506513,
./stim/MorphF1_04_orig.jpg,29,,,,,0,29,29,29,,,,,,,,,,,,,,,,,,,16.083984375,1.259765625,0,0,1,1.44004297256,,,,,2015_Sep_13_1402,A,facesParametric,2,59.6566506513,
./stim/MorphM4_06_orig.jpg,30,,,,,0,30,30,30,,,,,,,,,,,,,,,,,,,15.99609375,1.083984375,1,0,0,1.95955204964,,,,,2015_Sep_13_1402,A,facesParametric,2,59.6566506513,
./stim/MorphM5_04_orig.jpg,31,,,,,0,31,31,31,,,,,,,,,,,,,,,,,,,16.0546875,1.025390625,0,0,1,3.97100400925,,,,,2015_Sep_13_1402,A,facesParametric,2,59.6566506513,
./stim/MorphF10_02_orig.jpg,32,,,,,0,32,32,32,,,,,,,,,,,,,,,,,,,15.9375,0.908203125,0,0,1,1.84330296516,,,,,2015_Sep_13_1402,A,facesParametric,2,59.6566506513,
./stim/MorphF6_05_orig.jpg,33,,,,,0,33,33,33,,,,,,,,,,,,,,,,,,,15.966796875,0.87890625,0,0,1,1.63964915276,,,,,2015_Sep_13_1402,A,facesParametric,2,59.6566506513,
./stim/MorphF8_01_orig.jpg,34,,,,,0,34,34,34,,,,,,,,,,,,,,,,,,,15.87890625,0.8203125,0,0,1,1.17249417305,,,,,2015_Sep_13_1402,A,facesParametric,2,59.6566506513,
./stim/MorphM2_06_orig.jpg,35,,,,,0,35,35,35,,,,,,,,,,,,,,,,,,,15.99609375,0.8203125,1,0,0,1.89241814613,,,,,2015_Sep_13_1402,A,facesParametric,2,59.6566506513,
./stim/MorphM9_02_orig.jpg,36,,,,,0,36,36,36,,,,,,,,,,,,,,,,,,,15.9375,0.8203125,0,0,1,4.25469589233,,,,,2015_Sep_13_1402,A,facesParametric,2,59.6566506513,
./stim/MorphM5_03_orig.jpg,37,,,,,0,37,37,37,,,,,,,,,,,,,,,,,,,15.966796875,0.791015625,1,0,0,2.3449409008,,,,,2015_Sep_13_1402,A,facesParametric,2,59.6566506513,
./stim/MorphM4_01_orig.jpg,38,,,,,0,38,38,38,,,,,,,,,,,,,,,,,,,16.58203125,0.52734375,0,0,1,8.44470691681,,,,,2015_Sep_13_1402,A,facesParametric,2,59.6566506513,
./stim/MorphM6_05_orig.jpg,39,,,,,0,39,39,39,,,,,,,,,,,,,,,,,,,16.2890625,0.498046875,0,0,1,9.50245499611,,,,,2015_Sep_13_1402,A,facesParametric,2,59.6566506513,
./stim/MorphF4_02_orig.jpg,40,,,,,0,40,40,40,,,,,,,,,,,,,,,,,,,16.259765625,0.46875,0,0,1,1.50709295273,,,,,2015_Sep_13_1402,A,facesParametric,2,59.6566506513,
./stim/MorphM9_03_orig.jpg,41,,,,,0,41,41,41,,,,,,,,,,,,,,,,,,,16.259765625,0.46875,0,0,1,1.92616796494,,,,,2015_Sep_13_1402,A,facesParametric,2,59.6566506513,
./stim/MorphF4_06_orig.jpg,42,,,,,0,42,42,42,,,,,,,,,,,,,,,,,,,16.23046875,0.498046875,1,0,0,6.92069792747,,,,,2015_Sep_13_1402,A,facesParametric,2,59.6566506513,
./stim/MorphF5_00_orig.jpg,43,,,,,0,43,43,43,,,,,,,,,,,,,,,,,,,16.025390625,0.498046875,0,0,1,5.57939696312,,,,,2015_Sep_13_1402,A,facesParametric,2,59.6566506513,
./stim/MorphM7_04_orig.jpg,44,,,,,0,44,44,44,,,,,,,,,,,,,,,,,,,15.966796875,0.64453125,1,0,0,2.89736008644,,,,,2015_Sep_13_1402,A,facesParametric,2,59.6566506513,
./stim/MorphF1_07_orig.jpg,45,,,,,0,45,45,45,,,,,,,,,,,,,,,,,,,15.908203125,0.615234375,1,0,0,4.65920901299,,,,,2015_Sep_13_1402,A,facesParametric,2,59.6566506513,
./stim/MorphF7_02_orig.jpg,46,,,,,0,46,46,46,,,,,,,,,,,,,,,,,,,15.8203125,0.615234375,0,0,1,1.40528202057,,,,,2015_Sep_13_1402,A,facesParametric,2,59.6566506513,
./stim/MorphF3_08_orig.jpg,47,,,,,0,47,47,47,,,,,,,,,,,,,,,,,,,15.732421875,0.556640625,1,0,0,4.40672397614,,,,,2015_Sep_13_1402,A,facesParametric,2,59.6566506513,
./stim/MorphM4_03_orig.jpg,48,,,,,0,48,48,48,,,,,,,,,,,,,,,,,,,15.76171875,0.498046875,1,0,0,1.97668910027,,,,,2015_Sep_13_1402,A,facesParametric,2,59.6566506513,
./stim/MorphM7_05_orig.jpg,49,,,,,0,49,49,49,,,,,,,,,,,,,,,,,,,15.76171875,0.498046875,1,0,0,3.70199108124,,,,,2015_Sep_13_1402,A,facesParametric,2,59.6566506513,
./stim/MorphM4_08_orig.jpg,50,,,,,0,50,50,50,,,,,,,,,,,,,,,,,,,15.76171875,0.498046875,1,0,0,1.3729839325,,,,,2015_Sep_13_1402,A,facesParametric,2,59.6566506513,
./stim/MorphM2_03_orig.jpg,51,,,,,0,51,51,51,,,,,,,,,,,,,,,,,,,15.5859375,0.498046875,0,0,1,1.54069709778,,,,,2015_Sep_13_1402,A,facesParametric,2,59.6566506513,
./stim/MorphF3_10_orig.jpg,52,,,,,0,52,52,52,,,,,,,,,,,,,,,,,,,15.498046875,0.439453125,1,0,0,1.25559186935,,,,,2015_Sep_13_1402,A,facesParametric,2,59.6566506513,
./stim/MorphF6_08_orig.jpg,53,,,,,0,53,53,53,,,,,,,,,,,,,,,,,,,15.380859375,0.3515625,0,0,1,1.92468190193,,,,,2015_Sep_13_1402,A,facesParametric,2,59.6566506513,
./stim/MorphM3_10_orig.jpg,54,,,,,0,54,54,54,,,,,,,,,,,,,,,,,,,15.263671875,0.29296875,1,0,0,1.95869588852,,,,,2015_Sep_13_1402,A,facesParametric,2,59.6566506513,
./stim/MorphM10_03_orig.jpg,55,,,,,0,55,55,55,,,,,,,,,,,,,,,,,,,15.263671875,0.380859375,0,0,1,4.03486895561,,,,,2015_Sep_13_1402,A,facesParametric,2,59.6566506513,
./stim/MorphF2_03_orig.jpg,56,,,,,0,56,56,56,,,,,,,,,,,,,,,,,,,15.234375,0.380859375,1,0,0,4.77578186989,,,,,2015_Sep_13_1402,A,facesParametric,2,59.6566506513,
./stim/MorphM7_10_orig.jpg,57,,,,,0,57,57,57,,,,,,,,,,,,,,,,,,,15.263671875,0.380859375,1,0,0,1.20276212692,,,,,2015_Sep_13_1402,A,facesParametric,2,59.6566506513,
./stim/MorphF8_00_orig.jpg,58,,,,,0,58,58,58,,,,,,,,,,,,,,,,,,,15.263671875,0.41015625,0,0,1,1.25551319122,,,,,2015_Sep_13_1402,A,facesParametric,2,59.6566506513,
./stim/MorphF7_07_orig.jpg,59,,,,,0,59,59,59,,,,,,,,,,,,,,,,,,,15.234375,0.439453125,1,0,0,2.7634780407,,,,,2015_Sep_13_1402,A,facesParametric,2,59.6566506513,
./stim/MorphM8_09_orig.jpg,60,,,,,0,60,60,60,,,,,,,,,,,,,,,,,,,15.322265625,0.3515625,1,0,0,0.886980772018,,,,,2015_Sep_13_1402,A,facesParametric,2,59.6566506513,
./stim/MorphF5_08_orig.jpg,61,,,,,0,61,61,61,,,,,,,,,,,,,,,,,,,15.322265625,0.3515625,1,0,0,1.94296503067,,,,,2015_Sep_13_1402,A,facesParametric,2,59.6566506513,
./stim/MorphM8_00_orig.jpg,62,,,,,0,62,62,62,,,,,,,,,,,,,,,,,,,15.29296875,0.29296875,0,0,1,2.79715394974,,,,,2015_Sep_13_1402,A,facesParametric,2,59.6566506513,
./stim/MorphF4_04_orig.jpg,63,,,,,0,63,63,63,,,,,,,,,,,,,,,,,,,15.205078125,0.3515625,0,0,1,4.01929092407,,,,,2015_Sep_13_1402,A,facesParametric,2,59.6566506513,
./stim/MorphM8_05_orig.jpg,64,,,,,0,64,64,64,,,,,,,,,,,,,,,,,,,15.234375,0.3515625,1,0,0,2.02663016319,,,,,2015_Sep_13_1402,A,facesParametric,2,59.6566506513,
./stim/MorphM1_09_orig.jpg,65,,,,,0,65,65,65,,,,,,,,,,,,,,,,,,,15.263671875,0.380859375,1,0,0,0.953691005707,,,,,2015_Sep_13_1402,A,facesParametric,2,59.6566506513,
./stim/MorphF8_04_orig.jpg,66,,,,,0,66,66,66,,,,,,,,,,,,,,,,,,,15.3515625,0.439453125,0,0,1,1.89280104637,,,,,2015_Sep_13_1402,A,facesParametric,2,59.6566506513,
./stim/MorphM10_07_orig.jpg,67,,,,,0,67,67,67,,,,,,,,,,,,,,,,,,,15.322265625,0.41015625,1,0,0,0.936634778976,,,,,2015_Sep_13_1402,A,facesParametric,2,59.6566506513,
./stim/MorphM5_05_orig.jpg,68,,,,,0,68,68,68,,,,,,,,,,,,,,,,,,,15.29296875,0.380859375,1,0,0,2.07689905167,,,,,2015_Sep_13_1402,A,facesParametric,2,59.6566506513,
./stim/MorphM3_02_orig.jpg,69,,,,,0,69,69,69,,,,,,,,,,,,,,,,,,,15.29296875,0.46875,1,0,0,5.39319705963,,,,,2015_Sep_13_1402,A,facesParametric,2,59.6566506513,
./stim/MorphF2_08_orig.jpg,70,,,,,0,70,70,70,,,,,,,,,,,,,,,,,,,15.29296875,0.556640625,1,0,0,0.85307097435,,,,,2015_Sep_13_1402,A,facesParametric,2,59.6566506513,
./stim/MorphM5_00_orig.jpg,71,,,,,0,71,71,71,,,,,,,,,,,,,,,,,,,15.17578125,0.439453125,0,0,1,5.27659511566,,,,,2015_Sep_13_1402,A,facesParametric,2,59.6566506513,
./stim/MorphF6_07_orig.jpg,72,,,,,0,72,72,72,,,,,,,,,,,,,,,,,,,15.1171875,-0.41015625,1,0,0,2.39484882355,,,,,2015_Sep_13_1402,A,facesParametric,2,59.6566506513,
./stim/MorphM7_07_orig.jpg,73,,,,,0,73,73,73,,,,,,,,,,,,,,,,,,,15.17578125,-0.439453125,1,0,0,0.952600002289,,,,,2015_Sep_13_1402,A,facesParametric,2,59.6566506513,
./stim/MorphM4_05_orig.jpg,74,,,,,0,74,74,74,,,,,,,,,,,,,,,,,,,15.205078125,-0.46875,1,0,0,0.887301921844,,,,,2015_Sep_13_1402,A,facesParametric,2,59.6566506513,
./stim/MorphF1_02_orig.jpg,75,,,,,0,75,75,75,,,,,,,,,,,,,,,,,,,15.263671875,-0.46875,0,0,1,2.24349093437,,,,,2015_Sep_13_1402,A,facesParametric,2,59.6566506513,
./stim/MorphM1_03_orig.jpg,76,,,,,0,76,76,76,,,,,,,,,,,,,,,,,,,15.205078125,-0.52734375,0,0,1,3.80307888985,,,,,2015_Sep_13_1402,A,facesParametric,2,59.6566506513,
./stim/MorphM6_01_orig.jpg,77,,,,,0,77,77,77,,,,,,,,,,,,,,,,,,,15.29296875,-0.46875,1,0,0,3.65258693695,,,,,2015_Sep_13_1402,A,facesParametric,2,59.6566506513,
./stim/MorphF5_05_orig.jpg,78,,,,,0,78,78,78,,,,,,,,,,,,,,,,,,,15.322265625,-0.439453125,1,0,0,2.73030996323,,,,,2015_Sep_13_1402,A,facesParametric,2,59.6566506513,
./stim/MorphF4_10_orig.jpg,79,,,,,0,79,79,79,,,,,,,,,,,,,,,,,,,15.380859375,-0.41015625,1,0,0,0.936586141586,,,,,2015_Sep_13_1402,A,facesParametric,2,59.6566506513,
./stim/MorphF9_03_orig.jpg,80,,,,,0,80,80,80,,,,,,,,,,,,,,,,,,,15.380859375,-0.41015625,1,0,0,3.75279021263,,,,,2015_Sep_13_1402,A,facesParametric,2,59.6566506513,
./stim/MorphM8_04_orig.jpg,81,,,,,0,81,81,81,,,,,,,,,,,,,,,,,,,15.41015625,-0.439453125,1,0,0,1.02023792267,,,,,2015_Sep_13_1402,A,facesParametric,2,59.6566506513,
./stim/MorphF2_04_orig.jpg,82,,,,,0,82,82,82,,,,,,,,,,,,,,,,,,,15.380859375,-0.439453125,0,0,1,1.17187809944,,,,,2015_Sep_13_1402,A,facesParametric,2,59.6566506513,
./stim/MorphM10_01_orig.jpg,83,,,,,0,83,83,83,,,,,,,,,,,,,,,,,,,15.234375,-0.41015625,0,0,1,1.5898270607,,,,,2015_Sep_13_1402,A,facesParametric,2,59.6566506513,
./stim/MorphF6_10_orig.jpg,84,,,,,0,84,84,84,,,,,,,,,,,,,,,,,,,15.17578125,-0.46875,1,0,0,0.852916002274,,,,,2015_Sep_13_1402,A,facesParametric,2,59.6566506513,
./stim/MorphF10_00_orig.jpg,85,,,,,0,85,85,85,,,,,,,,,,,,,,,,,,,15.234375,-0.52734375,0,0,1,1.30599594116,,,,,2015_Sep_13_1402,A,facesParametric,2,59.6566506513,
./stim/MorphM10_04_orig.jpg,86,,,,,0,86,86,86,,,,,,,,,,,,,,,,,,,15.498046875,-0.52734375,1,0,0,6.78639698029,,,,,2015_Sep_13_1402,A,facesParametric,2,59.6566506513,
./stim/MorphM4_07_orig.jpg,87,,,,,0,87,87,87,,,,,,,,,,,,,,,,,,,15.46875,-0.556640625,1,0,0,0.7694439888,,,,,2015_Sep_13_1402,A,facesParametric,2,59.6566506513,
./stim/MorphF10_07_orig.jpg,88,,,,,0,88,88,88,,,,,,,,,,,,,,,,,,,15.46875,-0.556640625,1,0,0,1.07007408142,,,,,2015_Sep_13_1402,A,facesParametric,2,59.6566506513,
./stim/MorphF8_02_orig.jpg,89,,,,,0,89,89,89,,,,,,,,,,,,,,,,,,,15.322265625,-0.498046875,0,0,1,1.03793501854,,,,,2015_Sep_13_1402,A,facesParametric,2,59.6566506513,
./stim/MorphM10_06_orig.jpg,90,,,,,0,90,90,90,,,,,,,,,,,,,,,,,,,15.263671875,-0.46875,1,0,0,0.818124771118,,,,,2015_Sep_13_1402,A,facesParametric,2,59.6566506513,
./stim/MorphF6_06_orig.jpg,91,,,,,0,91,91,91,,,,,,,,,,,,,,,,,,,15.205078125,-0.41015625,1,0,0,4.15565681458,,,,,2015_Sep_13_1402,A,facesParametric,2,59.6566506513,
./stim/MorphF2_07_orig.jpg,92,,,,,0,92,92,92,,,,,,,,,,,,,,,,,,,15.234375,-0.439453125,1,0,0,0.835937976837,,,,,2015_Sep_13_1402,A,facesParametric,2,59.6566506513,
./stim/MorphF3_04_orig.jpg,93,,,,,0,93,93,93,,,,,,,,,,,,,,,,,,,15.234375,-0.439453125,0,0,1,1.87603092194,,,,,2015_Sep_13_1402,A,facesParametric,2,59.6566506513,
./stim/MorphM10_10_orig.jpg,94,,,,,0,94,94,94,,,,,,,,,,,,,,,,,,,15.29296875,-0.41015625,1,0,0,0.885072946548,,,,,2015_Sep_13_1402,A,facesParametric,2,59.6566506513,
./stim/MorphF3_06_orig.jpg,95,,,,,0,95,95,95,,,,,,,,,,,,,,,,,,,15.3515625,-0.41015625,1,0,0,2.01020097733,,,,,2015_Sep_13_1402,A,facesParametric,2,59.6566506513,
./stim/MorphM8_06_orig.jpg,96,,,,,0,96,96,96,,,,,,,,,,,,,,,,,,,15.3515625,-0.41015625,1,0,0,2.77838683128,,,,,2015_Sep_13_1402,A,facesParametric,2,59.6566506513,
./stim/MorphM4_02_orig.jpg,97,,,,,0,97,97,97,,,,,,,,,,,,,,,,,,,15.322265625,-0.439453125,0,0,1,2.00975394249,,,,,2015_Sep_13_1402,A,facesParametric,2,59.6566506513,
./stim/MorphF9_08_orig.jpg,98,,,,,0,98,98,98,,,,,,,,,,,,,,,,,,,15.263671875,-0.498046875,1,0,0,11.0104608536,,,,,2015_Sep_13_1402,A,facesParametric,2,59.6566506513,
./stim/MorphF3_07_orig.jpg,99,,,,,0,99,99,99,,,,,,,,,,,,,,,,,,,15.29296875,-0.52734375,1,0,0,0.86766409874,,,,,2015_Sep_13_1402,A,facesParametric,2,59.6566506513,
./stim/MorphM10_09_orig.jpg,100,,,,,0,100,100,100,,,,,,,,,,,,,,,,,,,14.94140625,-2.783203125,1,0,0,2.19302892685,,,,,2015_Sep_13_1402,A,facesParametric,2,59.6566506513,
./stim/MorphM4_04_orig.jpg,101,,,,,0,101,101,101,,,,,,,,,,,,,,,,,,,14.970703125,-2.8125,0,0,1,5.27730202675,,,,,2015_Sep_13_1402,A,facesParametric,2,59.6566506513,
./stim/MorphM6_07_orig.jpg,102,,,,,0,102,102,102,,,,,,,,,,,,,,,,,,,15.234375,-3.193359375,0,0,1,8.44562911987,,,,,2015_Sep_13_1402,A,facesParametric,2,59.6566506513,
./stim/MorphF4_01_orig.jpg,103,,,,,0,103,103,103,,,,,,,,,,,,,,,,,,,15.29296875,-3.1640625,0,0,1,1.03798294067,,,,,2015_Sep_13_1402,A,facesParametric,2,59.6566506513,
./stim/MorphF10_06_orig.jpg,104,,,,,0,104,104,104,,,,,,,,,,,,,,,,,,,15.41015625,-3.193359375,1,0,0,1.02093791962,,,,,2015_Sep_13_1402,A,facesParametric,2,59.6566506513,
./stim/MorphM3_00_orig.jpg,105,,,,,0,105,105,105,,,,,,,,,,,,,,,,,,,16.93359375,-1.845703125,0,0,1,5.76336789131,,,,,2015_Sep_13_1402,A,facesParametric,2,59.6566506513,
./stim/MorphF7_08_orig.jpg,106,,,,,0,106,106,106,,,,,,,,,,,,,,,,,,,17.109375,-1.81640625,1,0,0,0.952033042908,,,,,2015_Sep_13_1402,A,facesParametric,2,59.6566506513,
./stim/MorphF1_06_orig.jpg,107,,,,,0,107,107,107,,,,,,,,,,,,,,,,,,,17.16796875,-1.904296875,1,0,0,5.09249901772,,,,,2015_Sep_13_1402,A,facesParametric,2,59.6566506513,
./stim/MorphM7_02_orig.jpg,108,,,,,0,108,108,108,,,,,,,,,,,,,,,,,,,17.16796875,-1.93359375,1,0,0,2.74754905701,,,,,2015_Sep_13_1402,A,facesParametric,2,59.6566506513,
./stim/MorphM5_02_orig.jpg,109,,,,,0,109,109,109,,,,,,,,,,,,,,,,,,,17.28515625,-1.962890625,1,0,0,7.13781404495,,,,,2015_Sep_13_1402,A,facesParametric,2,59.6566506513,
./stim/MorphM6_08_orig.jpg,110,,,,,0,110,110,110,,,,,,,,,,,,,,,,,,,17.28515625,-1.962890625,1,0,0,2.74757814407,,,,,2015_Sep_13_1402,A,facesParametric,2,59.6566506513,
./stim/MorphF6_01_orig.jpg,111,,,,,0,111,111,111,,,,,,,,,,,,,,,,,,,17.28515625,-1.962890625,0,0,1,1.2043530941,,,,,2015_Sep_13_1402,A,facesParametric,2,59.6566506513,
./stim/MorphM3_08_orig.jpg,112,,,,,0,112,112,112,,,,,,,,,,,,,,,,,,,17.314453125,-1.93359375,1,0,0,2.34530305862,,,,,2015_Sep_13_1402,A,facesParametric,2,59.6566506513,
./stim/MorphF2_06_orig.jpg,113,,,,,0,113,113,113,,,,,,,,,,,,,,,,,,,17.34375,-1.904296875,1,0,0,1.94057488441,,,,,2015_Sep_13_1402,A,facesParametric,2,59.6566506513,
./stim/MorphM9_05_orig.jpg,114,,,,,0,114,114,114,,,,,,,,,,,,,,,,,,,17.28515625,-1.93359375,1,0,0,3.16618585587,,,,,2015_Sep_13_1402,A,facesParametric,2,59.6566506513,
./stim/MorphM7_06_orig.jpg,115,,,,,0,115,115,115,,,,,,,,,,,,,,,,,,,17.28515625,-1.93359375,1,0,0,2.04167604446,,,,,2015_Sep_13_1402,A,facesParametric,2,59.6566506513,
./stim/MorphF7_00_orig.jpg,116,,,,,0,116,116,116,,,,,,,,,,,,,,,,,,,17.373046875,-1.9921875,0,0,1,1.25585699081,,,,,2015_Sep_13_1402,A,facesParametric,2,59.6566506513,
./stim/MorphM7_00_orig.jpg,117,,,,,0,117,117,117,,,,,,,,,,,,,,,,,,,17.40234375,-1.962890625,0,0,1,3.95414018631,,,,,2015_Sep_13_1402,A,facesParametric,2,59.6566506513,
./stim/MorphM6_02_orig.jpg,118,,,,,0,118,118,118,,,,,,,,,,,,,,,,,,,17.841796875,-2.314453125,0,0,1,3.93666291237,,,,,2015_Sep_13_1402,A,facesParametric,2,59.6566506513,
./stim/MorphF7_04_orig.jpg,119,,,,,0,119,119,119,,,,,,,,,,,,,,,,,,,17.6953125,-2.490234375,1,0,0,1.84125685692,,,,,2015_Sep_13_1402,A,facesParametric,2,59.6566506513,
./stim/MorphF4_00_orig.jpg,120,,,,,0,120,120,120,,,,,,,,,,,,,,,,,,,17.666015625,-2.490234375,0,0,1,1.62489509583,,,,,2015_Sep_13_1402,A,facesParametric,2,59.6566506513,
./stim/MorphF9_07_orig.jpg,121,,,,,0,121,121,121,,,,,,,,,,,,,,,,,,,17.578125,-2.51953125,1,0,0,1.65718317032,,,,,2015_Sep_13_1402,A,facesParametric,2,59.6566506513,
./stim/MorphF4_05_orig.jpg,122,,,,,0,122,122,122,,,,,,,,,,,,,,,,,,,17.841796875,-2.607421875,1,0,0,5.15938901901,,,,,2015_Sep_13_1402,A,facesParametric,2,59.6566506513,
./stim/MorphF5_10_orig.jpg,123,,,,,0,123,123,123,,,,,,,,,,,,,,,,,,,17.87109375,-2.63671875,1,0,0,1.00450110435,,,,,2015_Sep_13_1402,A,facesParametric,2,59.6566506513,
./stim/MorphM9_06_orig.jpg,124,,,,,0,124,124,124,,,,,,,,,,,,,,,,,,,17.98828125,-3.33984375,1,0,0,6.38284802437,,,,,2015_Sep_13_1402,A,facesParametric,2,59.6566506513,
./stim/MorphF1_00_orig.jpg,125,,,,,0,125,125,125,,,,,,,,,,,,,,,,,,,17.958984375,-3.369140625,1,0,0,1.42347812653,,,,,2015_Sep_13_1402,A,facesParametric,2,59.6566506513,
./stim/MorphF5_07_orig.jpg,126,,,,,0,126,126,126,,,,,,,,,,,,,,,,,,,17.666015625,-3.3984375,1,0,0,3.51826691628,,,,,2015_Sep_13_1402,A,facesParametric,2,59.6566506513,
./stim/MorphM6_06_orig.jpg,127,,,,,0,127,127,127,,,,,,,,,,,,,,,,,,,17.548828125,-3.427734375,0,0,1,2.93133497238,,,,,2015_Sep_13_1402,A,facesParametric,2,59.6566506513,
./stim/MorphF2_00_orig.jpg,128,,,,,0,128,128,128,,,,,,,,,,,,,,,,,,,17.490234375,-3.45703125,0,0,1,1.0879509449,,,,,2015_Sep_13_1402,A,facesParametric,2,59.6566506513,
./stim/MorphM6_03_orig.jpg,129,,,,,0,129,129,129,,,,,,,,,,,,,,,,,,,17.16796875,-4.21875,0,0,1,2.62959098816,,,,,2015_Sep_13_1402,A,facesParametric,2,59.6566506513,
./stim/MorphM3_04_orig.jpg,130,,,,,0,130,130,130,,,,,,,,,,,,,,,,,,,17.109375,-4.04296875,1,0,0,1.992800951,,,,,2015_Sep_13_1402,A,facesParametric,2,59.6566506513,
./stim/MorphM8_01_orig.jpg,131,,,,,0,131,131,131,,,,,,,,,,,,,,,,,,,17.080078125,-4.013671875,1,0,0,2.63031005859,,,,,2015_Sep_13_1402,A,facesParametric,2,59.6566506513,
./stim/MorphM1_06_orig.jpg,132,,,,,0,132,132,132,,,,,,,,,,,,,,,,,,,17.080078125,-4.013671875,1,0,0,4.77324199677,,,,,2015_Sep_13_1402,A,facesParametric,2,59.6566506513,
./stim/MorphM2_09_orig.jpg,133,,,,,0,133,133,133,,,,,,,,,,,,,,,,,,,17.080078125,-4.013671875,1,0,0,0.971168994904,,,,,2015_Sep_13_1402,A,facesParametric,2,59.6566506513,
./stim/MorphF2_01_orig.jpg,134,,,,,0,134,134,134,,,,,,,,,,,,,,,,,,,17.080078125,-4.04296875,1,0,0,4.48988485336,,,,,2015_Sep_13_1402,A,facesParametric,2,59.6566506513,
./stim/MorphM5_01_orig.jpg,135,,,,,0,135,135,135,,,,,,,,,,,,,,,,,,,17.109375,-4.072265625,0,0,1,1.40641307831,,,,,2015_Sep_13_1402,A,facesParametric,2,59.6566506513,
./stim/MorphF8_03_orig.jpg,136,,,,,0,136,136,136,,,,,,,,,,,,,,,,,,,18.779296875,-2.080078125,0,0,1,5.46066594124,,,,,2015_Sep_13_1402,A,facesParametric,2,59.6566506513,
./stim/MorphF10_03_orig.jpg,137,,,,,0,137,137,137,,,,,,,,,,,,,,,,,,,18.75,-2.109375,1,0,0,1.32143592834,,,,,2015_Sep_13_1402,A,facesParametric,2,59.6566506513,
./stim/MorphM7_09_orig.jpg,138,,,,,0,138,138,138,,,,,,,,,,,,,,,,,,,18.75,-2.109375,1,0,0,1.30492186546,,,,,2015_Sep_13_1402,A,facesParametric,2,59.6566506513,
./stim/MorphM9_00_orig.jpg,139,,,,,0,139,139,139,,,,,,,,,,,,,,,,,,,18.75,-2.109375,0,0,1,3.28429698944,,,,,2015_Sep_13_1402,A,facesParametric,2,59.6566506513,
./stim/MorphM3_05_orig.jpg,140,,,,,0,140,140,140,,,,,,,,,,,,,,,,,,,18.720703125,-2.080078125,1,0,0,7.55641508102,,,,,2015_Sep_13_1402,A,facesParametric,2,59.6566506513,
./stim/MorphM1_07_orig.jpg,141,,,,,0,141,141,141,,,,,,,,,,,,,,,,,,,18.720703125,-2.080078125,1,0,0,1.67464399338,,,,,2015_Sep_13_1402,A,facesParametric,2,59.6566506513,
./stim/MorphM9_07_orig.jpg,142,,,,,0,142,142,142,,,,,,,,,,,,,,,,,,,18.779296875,-2.109375,1,0,0,2.01036190987,,,,,2015_Sep_13_1402,A,facesParametric,2,59.6566506513,
./stim/MorphF3_03_orig.jpg,143,,,,,0,143,143,143,,,,,,,,,,,,,,,,,,,18.80859375,-2.138671875,0,0,1,1.33948683739,,,,,2015_Sep_13_1402,A,facesParametric,2,59.6566506513,
./stim/MorphF4_07_orig.jpg,144,,,,,0,144,144,144,,,,,,,,,,,,,,,,,,,18.837890625,-2.138671875,1,0,0,1.77553296089,,,,,2015_Sep_13_1402,A,facesParametric,2,59.6566506513,
./stim/MorphM2_10_orig.jpg,145,,,,,0,145,145,145,,,,,,,,,,,,,,,,,,,18.8671875,-2.138671875,1,0,0,0.869587898254,,,,,2015_Sep_13_1402,A,facesParametric,2,59.6566506513,
./stim/MorphF7_06_orig.jpg,146,,,,,0,146,146,146,,,,,,,,,,,,,,,,,,,18.896484375,-2.16796875,1,0,0,1.85899806023,,,,,2015_Sep_13_1402,A,facesParametric,2,59.6566506513,
./stim/MorphM8_02_orig.jpg,147,,,,,0,147,147,147,,,,,,,,,,,,,,,,,,,18.8671875,-2.138671875,1,0,0,3.1489238739,,,,,2015_Sep_13_1402,A,facesParametric,2,59.6566506513,
./stim/MorphF3_05_orig.jpg,148,,,,,0,148,148,148,,,,,,,,,,,,,,,,,,,18.8671875,-2.138671875,0,0,1,1.35662603378,,,,,2015_Sep_13_1402,A,facesParametric,2,59.6566506513,
./stim/MorphF6_04_orig.jpg,149,,,,,0,149,149,149,,,,,,,,,,,,,,,,,,,18.779296875,-2.16796875,0,0,1,2.07598400116,,,,,2015_Sep_13_1402,A,facesParametric,2,59.6566506513,
./stim/MorphM4_10_orig.jpg,150,,,,,0,150,150,150,,,,,,,,,,,,,,,,,,,18.8671875,-2.197265625,1,0,0,2.74726891518,,,,,2015_Sep_13_1402,A,facesParametric,2,59.6566506513,
./stim/MorphF10_08_orig.jpg,151,,,,,0,151,151,151,,,,,,,,,,,,,,,,,,,18.8671875,-2.197265625,1,0,0,0.970523118973,,,,,2015_Sep_13_1402,A,facesParametric,2,59.6566506513,
./stim/MorphF5_02_orig.jpg,152,,,,,0,152,152,152,,,,,,,,,,,,,,,,,,,18.837890625,-2.197265625,0,0,1,3.36784386635,,,,,2015_Sep_13_1402,A,facesParametric,2,59.6566506513,
./stim/MorphF1_05_orig.jpg,153,,,,,0,153,153,153,,,,,,,,,,,,,,,,,,,18.8671875,-2.2265625,0,0,1,1.64049291611,,,,,2015_Sep_13_1402,A,facesParametric,2,59.6566506513,
./stim/MorphF9_09_orig.jpg,154,,,,,0,154,154,154,,,,,,,,,,,,,,,,,,,18.80859375,-2.314453125,1,0,0,1.43983006477,,,,,2015_Sep_13_1402,A,facesParametric,2,59.6566506513,
./stim/MorphF5_03_orig.jpg,155,,,,,0,155,155,155,,,,,,,,,,,,,,,,,,,18.8671875,-2.40234375,0,0,1,2.66337394714,,,,,2015_Sep_13_1402,A,facesParametric,2,59.6566506513,
./stim/MorphF4_03_orig.jpg,156,,,,,0,156,156,156,,,,,,,,,,,,,,,,,,,18.984375,-2.4609375,0,0,1,6.46644592285,,,,,2015_Sep_13_1402,A,facesParametric,2,59.6566506513,
./stim/MorphF5_01_orig.jpg,157,,,,,0,157,157,157,,,,,,,,,,,,,,,,,,,19.013671875,-2.4609375,0,0,1,3.21666407585,,,,,2015_Sep_13_1402,A,facesParametric,2,59.6566506513,
./stim/MorphM1_01_orig.jpg,158,,,,,0,158,158,158,,,,,,,,,,,,,,,,,,,19.013671875,-2.4609375,0,0,1,4.138215065,,,,,2015_Sep_13_1402,A,facesParametric,2,59.6566506513,
./stim/MorphF9_02_orig.jpg,159,,,,,0,159,159,159,,,,,,,,,,,,,,,,,,,19.072265625,-2.51953125,0,0,1,10.791893959,,,,,2015_Sep_13_1402,A,facesParametric,2,59.6566506513,
./stim/MorphF2_02_orig.jpg,160,,,,,0,160,160,160,,,,,,,,,,,,,,,,,,,19.04296875,-2.51953125,0,0,1,4.48966622353,,,,,2015_Sep_13_1402,A,facesParametric,2,59.6566506513,
./stim/MorphM8_10_orig.jpg,161,,,,,0,161,161,161,,,,,,,,,,,,,,,,,,,19.04296875,-2.63671875,1,0,0,1.35513114929,,,,,2015_Sep_13_1402,A,facesParametric,2,59.6566506513,
./stim/MorphM1_10_orig.jpg,162,,,,,0,162,162,162,,,,,,,,,,,,,,,,,,,19.04296875,-2.63671875,1,0,0,0.803258895874,,,,,2015_Sep_13_1402,A,facesParametric,2,59.6566506513,
./stim/MorphF10_04_orig.jpg,163,,,,,0,163,163,163,,,,,,,,,,,,,,,,,,,19.013671875,-2.666015625,1,0,0,0.921103000641,,,,,2015_Sep_13_1402,A,facesParametric,2,59.6566506513,
./stim/MorphF3_00_orig.jpg,164,,,,,0,164,164,164,,,,,,,,,,,,,,,,,,,19.072265625,-2.63671875,0,0,1,2.16022801399,,,,,2015_Sep_13_1402,A,facesParametric,2,59.6566506513,
./stim/MorphM2_07_orig.jpg,165,,,,,0,165,165,165,,,,,,,,,,,,,,,,,,,20.771484375,-1.787109375,1,0,0,9.23401498795,,,,,2015_Sep_13_1402,A,facesParametric,2,59.6566506513,
./stim/MorphF7_05_orig.jpg,166,,,,,0,166,166,166,,,,,,,,,,,,,,,,,,,20.80078125,-1.7578125,1,0,0,1.75756788254,,,,,2015_Sep_13_1402,A,facesParametric,2,59.6566506513,
./stim/MorphF6_03_orig.jpg,167,,,,,0,167,167,167,,,,,,,,,,,,,,,,,,,20.80078125,-1.728515625,0,0,1,1.02058386803,,,,,2015_Sep_13_1402,A,facesParametric,2,59.6566506513,
./stim/MorphF3_02_orig.jpg,168,,,,,0,168,168,168,,,,,,,,,,,,,,,,,,,20.830078125,-1.69921875,0,0,1,1.23954701424,,,,,2015_Sep_13_1402,A,facesParametric,2,59.6566506513,
./stim/MorphF1_01_orig.jpg,169,,,,,0,169,169,169,,,,,,,,,,,,,,,,,,,20.80078125,-1.669921875,0,0,1,4.65777206421,,,,,2015_Sep_13_1402,A,facesParametric,2,59.6566506513,
./stim/MorphM1_04_orig.jpg,170,,,,,0,170,170,170,,,,,,,,,,,,,,,,,,,20.830078125,-1.640625,0,0,1,4.17215800285,,,,,2015_Sep_13_1402,A,facesParametric,2,59.6566506513,
./stim/MorphF4_09_orig.jpg,171,,,,,0,171,171,171,,,,,,,,,,,,,,,,,,,20.80078125,-1.552734375,1,0,0,0.920752048492,,,,,2015_Sep_13_1402,A,facesParametric,2,59.6566506513,
./stim/MorphM6_00_orig.jpg,172,,,,,0,172,172,172,,,,,,,,,,,,,,,,,,,20.771484375,-1.58203125,0,0,1,1.27036690712,,,,,2015_Sep_13_1402,A,facesParametric,2,59.6566506513,
./stim/MorphM5_09_orig.jpg,173,,,,,0,173,173,173,,,,,,,,,,,,,,,,,,,20.7421875,-1.552734375,1,0,0,2.16064810753,,,,,2015_Sep_13_1402,A,facesParametric,2,59.6566506513,
./stim/MorphF5_06_orig.jpg,174,,,,,0,174,174,174,,,,,,,,,,,,,,,,,,,20.712890625,-1.5234375,1,0,0,1.05349779129,,,,,2015_Sep_13_1402,A,facesParametric,2,59.6566506513,
./stim/MorphF9_01_orig.jpg,175,,,,,0,175,175,175,,,,,,,,,,,,,,,,,,,20.7421875,-1.46484375,1,0,0,8.19276189804,,,,,2015_Sep_13_1402,A,facesParametric,2,59.6566506513,
./stim/MorphM5_07_orig.jpg,176,,,,,0,176,176,176,,,,,,,,,,,,,,,,,,,20.712890625,-1.435546875,1,0,0,1.27262091637,,,,,2015_Sep_13_1402,A,facesParametric,2,59.6566506513,
./stim/MorphM2_01_orig.jpg,177,,,,,0,177,177,177,,,,,,,,,,,,,,,,,,,20.68359375,-1.40625,0,0,1,0.903603076935,,,,,2015_Sep_13_1402,A,facesParametric,2,59.6566506513,
./stim/MorphM7_03_orig.jpg,178,,,,,0,178,178,178,,,,,,,,,,,,,,,,,,,20.625,-1.376953125,1,0,0,1.27246594429,,,,,2015_Sep_13_1402,A,facesParametric,2,59.6566506513,
./stim/MorphM9_09_orig.jpg,179,,,,,0,179,179,179,,,,,,,,,,,,,,,,,,,20.595703125,-1.40625,1,0,0,0.886255979538,,,,,2015_Sep_13_1402,A,facesParametric,2,59.6566506513,
./stim/MorphF9_10_orig.jpg,180,,,,,0,180,180,180,,,,,,,,,,,,,,,,,,,20.595703125,-1.40625,1,0,0,0.834961891174,,,,,2015_Sep_13_1402,A,facesParametric,2,59.6566506513,
./stim/MorphF8_10_orig.jpg,181,,,,,0,181,181,181,,,,,,,,,,,,,,,,,,,20.625,-1.34765625,1,0,0,1.38952493668,,,,,2015_Sep_13_1402,A,facesParametric,2,59.6566506513,
./stim/MorphF10_10_orig.jpg,182,,,,,0,182,182,182,,,,,,,,,,,,,,,,,,,20.625,-1.34765625,1,0,0,0.769592046738,,,,,2015_Sep_13_1402,A,facesParametric,2,59.6566506513,
./stim/MorphM3_09_orig.jpg,183,,,,,0,183,183,183,,,,,,,,,,,,,,,,,,,20.654296875,-1.318359375,1,0,0,0.835026025772,,,,,2015_Sep_13_1402,A,facesParametric,2,59.6566506513,
./stim/MorphF10_05_orig.jpg,184,,,,,0,184,184,184,,,,,,,,,,,,,,,,,,,20.654296875,-1.318359375,1,0,0,3.23367714882,,,,,2015_Sep_13_1402,A,facesParametric,2,59.6566506513,
./stim/MorphF6_00_orig.jpg,185,,,,,0,185,185,185,,,,,,,,,,,,,,,,,,,20.654296875,-1.318359375,0,0,1,1.07116389275,,,,,2015_Sep_13_1402,A,facesParametric,2,59.6566506513,
./stim/MorphF8_08_orig.jpg,186,,,,,0,186,186,186,,,,,,,,,,,,,,,,,,,20.185546875,-1.376953125,0,0,1,10.1381311417,,,,,2015_Sep_13_1402,A,facesParametric,2,59.6566506513,
./stim/MorphF7_10_orig.jpg,187,,,,,0,187,187,187,,,,,,,,,,,,,,,,,,,20.126953125,-1.40625,1,0,0,0.887012958527,,,,,2015_Sep_13_1402,A,facesParametric,2,59.6566506513,
./stim/MorphM9_10_orig.jpg,188,,,,,0,188,188,188,,,,,,,,,,,,,,,,,,,20.126953125,-1.40625,1,0,0,1.17209100723,,,,,2015_Sep_13_1402,A,facesParametric,2,59.6566506513,
./stim/MorphM10_05_orig.jpg,189,,,,,0,189,189,189,,,,,,,,,,,,,,,,,,,20.09765625,-1.435546875,1,0,0,1.52388715744,,,,,2015_Sep_13_1402,A,facesParametric,2,59.6566506513,
./stim/MorphM8_03_orig.jpg,190,,,,,0,190,190,190,,,,,,,,,,,,,,,,,,,20.126953125,-1.435546875,0,0,1,3.88584899902,,,,,2015_Sep_13_1402,A,facesParametric,2,59.6566506513,
./stim/MorphF2_10_orig.jpg,191,,,,,0,191,191,191,,,,,,,,,,,,,,,,,,,20.126953125,-1.435546875,1,0,0,0.919872045517,,,,,2015_Sep_13_1402,A,facesParametric,2,59.6566506513,
./stim/MorphM1_02_orig.jpg,192,,,,,0,192,192,192,,,,,,,,,,,,,,,,,,,20.126953125,-1.435546875,0,0,1,2.24468994141,,,,,2015_Sep_13_1402,A,facesParametric,2,59.6566506513,
./stim/MorphM4_09_orig.jpg,193,,,,,0,193,193,193,,,,,,,,,,,,,,,,,,,19.98046875,-1.611328125,1,0,0,1.25593590736,,,,,2015_Sep_13_1402,A,facesParametric,2,59.6566506513,
./stim/MorphM8_07_orig.jpg,194,,,,,0,194,194,194,,,,,,,,,,,,,,,,,,,20.0390625,-1.669921875,1,0,0,2.59420895576,,,,,2015_Sep_13_1402,A,facesParametric,2,59.6566506513,
./stim/MorphM1_08_orig.jpg,195,,,,,0,195,195,195,,,,,,,,,,,,,,,,,,,20.0390625,-1.669921875,1,0,0,2.89831113815,,,,,2015_Sep_13_1402,A,facesParametric,2,59.6566506513,
./stim/MorphF4_08_orig.jpg,196,,,,,0,196,196,196,,,,,,,,,,,,,,,,,,,20.068359375,-1.669921875,1,0,0,1.50705313683,,,,,2015_Sep_13_1402,A,facesParametric,2,59.6566506513,
./stim/MorphM9_04_orig.jpg,197,,,,,0,197,197,197,,,,,,,,,,,,,,,,,,,20.068359375,-1.669921875,0,0,1,1.38988900185,,,,,2015_Sep_13_1402,A,facesParametric,2,59.6566506513,
./stim/MorphF1_09_orig.jpg,198,,,,,0,198,198,198,,,,,,,,,,,,,,,,,,,19.951171875,-1.787109375,1,0,0,2.5123860836,,,,,2015_Sep_13_1402,A,facesParametric,2,59.6566506513,
./stim/MorphM9_08_orig.jpg,199,,,,,0,199,199,199,,,,,,,,,,,,,,,,,,,19.98046875,-2.021484375,1,0,0,8.24461913109,,,,,2015_Sep_13_1402,A,facesParametric,2,59.6566506513,
./stim/MorphF10_01_orig.jpg,200,,,,,0,200,200,200,,,,,,,,,,,,,,,,,,,19.951171875,-2.109375,0,0,1,1.87562584877,,,,,2015_Sep_13_1402,A,facesParametric,2,59.6566506513,
./stim/MorphM10_00_orig.jpg,201,,,,,0,201,201,201,,,,,,,,,,,,,,,,,,,19.04296875,-2.666015625,0,0,1,0.887508869171,,,,,2015_Sep_13_1402,A,facesParametric,2,59.6566506513,
./stim/MorphM2_00_orig.jpg,202,,,,,0,202,202,202,,,,,,,,,,,,,,,,,,,19.04296875,-2.666015625,0,0,1,1.42316579819,,,,,2015_Sep_13_1402,A,facesParametric,2,59.6566506513,
./stim/MorphM9_01_orig.jpg,203,,,,,0,203,203,203,,,,,,,,,,,,,,,,,,,18.955078125,-2.490234375,0,0,1,5.26120996475,,,,,2015_Sep_13_1402,A,facesParametric,2,59.6566506513,
./stim/MorphF7_09_orig.jpg,204,,,,,0,204,204,204,,,,,,,,,,,,,,,,,,,18.955078125,-2.490234375,1,0,0,0.853814840317,,,,,2015_Sep_13_1402,A,facesParametric,2,59.6566506513,
./stim/MorphF9_00_orig.jpg,205,,,,,0,205,205,205,,,,,,,,,,,,,,,,,,,18.955078125,-2.490234375,1,0,0,2.31006193161,,,,,2015_Sep_13_1402,A,facesParametric,2,59.6566506513,
./stim/MorphM2_02_orig.jpg,206,,,,,0,206,206,206,,,,,,,,,,,,,,,,,,,18.955078125,-2.578125,0,0,1,1.1061091423,,,,,2015_Sep_13_1402,A,facesParametric,2,59.6566506513,
./stim/MorphF8_05_orig.jpg,207,,,,,0,207,207,207,,,,,,,,,,,,,,,,,,,18.92578125,-2.75390625,1,0,0,2.91310095787,,,,,2015_Sep_13_1402,A,facesParametric,2,59.6566506513,
./stim/MorphF3_09_orig.jpg,208,,,,,0,208,208,208,,,,,,,,,,,,,,,,,,,18.984375,-2.783203125,1,0,0,0.970674037933,,,,,2015_Sep_13_1402,A,facesParametric,2,59.6566506513,
./stim/MorphM5_10_orig.jpg,209,,,,,0,209,209,209,,,,,,,,,,,,,,,,,,,19.013671875,-2.8125,1,0,0,1.64082407951,,,,,2015_Sep_13_1402,A,facesParametric,2,59.6566506513,
./stim/MorphM8_08_orig.jpg,210,,,,,0,210,210,210,,,,,,,,,,,,,,,,,,,18.984375,-2.841796875,1,0,0,1.03827691078,,,,,2015_Sep_13_1402,A,facesParametric,2,59.6566506513,
./stim/MorphM3_07_orig.jpg,211,,,,,0,211,211,211,,,,,,,,,,,,,,,,,,,18.984375,-2.841796875,1,0,0,4.18641114235,,,,,2015_Sep_13_1402,A,facesParametric,2,59.6566506513,
./stim/MorphM5_06_orig.jpg,212,,,,,0,212,212,212,,,,,,,,,,,,,,,,,,,19.04296875,-2.841796875,0,0,1,3.08282208443,,,,,2015_Sep_13_1402,A,facesParametric,2,59.6566506513,
./stim/MorphF5_09_orig.jpg,213,,,,,0,213,213,213,,,,,,,,,,,,,,,,,,,19.04296875,-2.841796875,1,0,0,1.38948202133,,,,,2015_Sep_13_1402,A,facesParametric,2,59.6566506513,
./stim/MorphF8_06_orig.jpg,214,,,,,0,214,214,214,,,,,,,,,,,,,,,,,,,19.072265625,-2.900390625,1,0,0,3.73637986183,,,,,2015_Sep_13_1402,A,facesParametric,2,59.6566506513,
./stim/MorphF5_04_orig.jpg,215,,,,,0,215,215,215,,,,,,,,,,,,,,,,,,,19.1015625,-2.900390625,0,0,1,1.35643315315,,,,,2015_Sep_13_1402,A,facesParametric,2,59.6566506513,
./stim/MorphM2_04_orig.jpg,216,,,,,0,216,216,216,,,,,,,,,,,,,,,,,,,19.072265625,-2.98828125,0,0,1,6.98533010483,,,,,2015_Sep_13_1402,A,facesParametric,2,59.6566506513,
./stim/MorphF2_05_orig.jpg,217,,,,,0,217,217,217,,,,,,,,,,,,,,,,,,,19.072265625,-2.98828125,1,0,0,1.32256698608,,,,,2015_Sep_13_1402,A,facesParametric,2,59.6566506513,
./stim/MorphM7_01_orig.jpg,218,,,,,0,218,218,218,,,,,,,,,,,,,,,,,,,19.072265625,-2.958984375,0,0,1,3.28369498253,,,,,2015_Sep_13_1402,A,facesParametric,2,59.6566506513,
./stim/MorphF10_09_orig.jpg,219,,,,,0,219,219,219,,,,,,,,,,,,,,,,,,,19.1015625,-2.9296875,1,0,0,1.0039498806,,,,,2015_Sep_13_1402,A,facesParametric,2,59.6566506513,
,,,,,,,,,,,,,,,,,,,,,,,,,,,,,,,,,,return,55.0387740135,,,2015_Sep_13_1402,A,facesParametric,2,59.6566506513,
./stim/MorphM6_10_orig.jpg,0,,,,,,,,,0,0,0,0,,,,,,,,,,,,,,,17.34375,13.125,1,0,0,3.09054398537,,,,,2015_Sep_13_1402,A,facesParametric,2,59.6566506513,
./stim/MorphF9_04_orig.jpg,1,,,,,,,,,0,1,1,1,,,,,,,,,,,,,,,17.666015625,10.78125,1,0,0,8.44420719147,,,,,2015_Sep_13_1402,A,facesParametric,2,59.6566506513,
./stim/MorphM3_03_orig.jpg,2,,,,,,,,,0,2,2,2,,,,,,,,,,,,,,,17.724609375,10.83984375,1,0,0,2.88065195084,,,,,2015_Sep_13_1402,A,facesParametric,2,59.6566506513,
./stim/MorphM1_00_orig.jpg,3,,,,,,,,,0,3,3,3,,,,,,,,,,,,,,,17.724609375,10.83984375,0,0,1,2.59607601166,,,,,2015_Sep_13_1402,A,facesParametric,2,59.6566506513,
./stim/MorphM6_09_orig.jpg,4,,,,,,,,,0,4,4,4,,,,,,,,,,,,,,,17.75390625,10.83984375,1,0,0,1.15514707565,,,,,2015_Sep_13_1402,A,facesParametric,2,59.6566506513,
./stim/MorphM10_02_orig.jpg,5,,,,,,,,,0,5,5,5,,,,,,,,,,,,,,,17.783203125,10.83984375,1,0,0,1.74227595329,,,,,2015_Sep_13_1402,A,facesParametric,2,59.6566506513,
./stim/MorphM3_06_orig.jpg,6,,,,,,,,,0,6,6,6,,,,,,,,,,,,,,,17.8125,10.810546875,1,0,0,1.54040408134,,,,,2015_Sep_13_1402,A,facesParametric,2,59.6566506513,
./stim/MorphM7_08_orig.jpg,7,,,,,,,,,0,7,7,7,,,,,,,,,,,,,,,17.841796875,10.72265625,1,0,0,1.03629779816,,,,,2015_Sep_13_1402,A,facesParametric,2,59.6566506513,
./stim/MorphM6_04_orig.jpg,8,,,,,,,,,0,8,8,8,,,,,,,,,,,,,,,17.724609375,10.634765625,0,0,1,2.76348018646,,,,,2015_Sep_13_1402,A,facesParametric,2,59.6566506513,
./stim/MorphM2_05_orig.jpg,9,,,,,,,,,0,9,9,9,,,,,,,,,,,,,,,17.666015625,10.576171875,0,0,1,2.29430794716,,,,,2015_Sep_13_1402,A,facesParametric,2,59.6566506513,
./stim/MorphM3_01_orig.jpg,10,,,,,,,,,0,10,10,10,,,,,,,,,,,,,,,17.63671875,10.546875,1,0,0,2.99905514717,,,,,2015_Sep_13_1402,A,facesParametric,2,59.6566506513,
./stim/MorphF1_03_orig.jpg,11,,,,,,,,,0,11,11,11,,,,,,,,,,,,,,,17.666015625,10.546875,0,0,1,1.55766391754,,,,,2015_Sep_13_1402,A,facesParametric,2,59.6566506513,
./stim/MorphF8_09_orig.jpg,12,,,,,,,,,0,12,12,12,,,,,,,,,,,,,,,17.666015625,10.576171875,1,0,0,1.20475196838,,,,,2015_Sep_13_1402,A,facesParametric,2,59.6566506513,
./stim/MorphF3_01_orig.jpg,13,,,,,,,,,0,13,13,13,,,,,,,,,,,,,,,17.431640625,10.458984375,0,0,1,2.51233005524,,,,,2015_Sep_13_1402,A,facesParametric,2,59.6566506513,
./stim/MorphF7_03_orig.jpg,14,,,,,,,,,0,14,14,14,,,,,,,,,,,,,,,17.34375,10.3125,0,0,1,2.00876808167,,,,,2015_Sep_13_1402,A,facesParametric,2,59.6566506513,
./stim/MorphM1_05_orig.jpg,15,,,,,,,,,0,15,15,15,,,,,,,,,,,,,,,21.005859375,12.919921875,0,0,1,39.2323181629,,,,,2015_Sep_13_1402,A,facesParametric,2,59.6566506513,
./stim/MorphM5_08_orig.jpg,16,,,,,,,,,0,16,16,16,,,,,,,,,,,,,,,20.9765625,12.94921875,0,0,1,1.40621399879,,,,,2015_Sep_13_1402,A,facesParametric,2,59.6566506513,
./stim/MorphF7_01_orig.jpg,17,,,,,,,,,0,17,17,17,,,,,,,,,,,,,,,20.9765625,12.94921875,0,0,1,1.69180202484,,,,,2015_Sep_13_1402,A,facesParametric,2,59.6566506513,
./stim/MorphF1_10_orig.jpg,18,,,,,,,,,0,18,18,18,,,,,,,,,,,,,,,20.9765625,13.18359375,1,0,0,2.17686104774,,,,,2015_Sep_13_1402,A,facesParametric,2,59.6566506513,
./stim/MorphF9_06_orig.jpg,19,,,,,,,,,0,19,19,19,,,,,,,,,,,,,,,20.9765625,13.18359375,1,0,0,5.81474089622,,,,,2015_Sep_13_1402,A,facesParametric,2,59.6566506513,
./stim/MorphM4_00_orig.jpg,20,,,,,,,,,0,20,20,20,,,,,,,,,,,,,,,20.947265625,13.18359375,0,0,1,1.18876814842,,,,,2015_Sep_13_1402,A,facesParametric,2,59.6566506513,
./stim/MorphM10_08_orig.jpg,21,,,,,,,,,0,21,21,21,,,,,,,,,,,,,,,20.947265625,13.154296875,1,0,0,1.94252896309,,,,,2015_Sep_13_1402,A,facesParametric,2,59.6566506513,
./stim/MorphF8_07_orig.jpg,22,,,,,,,,,0,22,22,22,,,,,,,,,,,,,,,20.9765625,13.154296875,1,0,0,7.74268913269,,,,,2015_Sep_13_1402,A,facesParametric,2,59.6566506513,
./stim/MorphF6_02_orig.jpg,23,,,,,,,,,0,23,23,23,,,,,,,,,,,,,,,21.03515625,13.154296875,0,0,1,0.969794034958,,,,,2015_Sep_13_1402,A,facesParametric,2,59.6566506513,
./stim/MorphM2_08_orig.jpg,24,,,,,,,,,0,24,24,24,,,,,,,,,,,,,,,21.03515625,13.154296875,1,0,0,1.92620706558,,,,,2015_Sep_13_1402,A,facesParametric,2,59.6566506513,
./stim/MorphF9_05_orig.jpg,25,,,,,,,,,0,25,25,25,,,,,,,,,,,,,,,21.005859375,13.095703125,1,0,0,2.26109600067,,,,,2015_Sep_13_1402,A,facesParametric,2,59.6566506513,
./stim/MorphF1_08_orig.jpg,26,,,,,,,,,0,26,26,26,,,,,,,,,,,,,,,21.005859375,13.125,1,0,0,1.33786320686,,,,,2015_Sep_13_1402,A,facesParametric,2,59.6566506513,
./stim/MorphF6_09_orig.jpg,27,,,,,,,,,0,27,27,27,,,,,,,,,,,,,,,20.9765625,13.154296875,1,0,0,3.09763789177,,,,,2015_Sep_13_1402,A,facesParametric,2,59.6566506513,
./stim/MorphF2_09_orig.jpg,28,,,,,,,,,0,28,28,28,,,,,,,,,,,,,,,20.9765625,13.154296875,1,0,0,0.92057800293,,,,,2015_Sep_13_1402,A,facesParametric,2,59.6566506513,
./stim/MorphF1_04_orig.jpg,29,,,,,,,,,0,29,29,29,,,,,,,,,,,,,,,20.947265625,13.125,0,0,1,1.18835091591,,,,,2015_Sep_13_1402,A,facesParametric,2,59.6566506513,
./stim/MorphM4_06_orig.jpg,30,,,,,,,,,0,30,30,30,,,,,,,,,,,,,,,20.654296875,12.94921875,1,0,0,2.07714700699,,,,,2015_Sep_13_1402,A,facesParametric,2,59.6566506513,
./stim/MorphM5_04_orig.jpg,31,,,,,,,,,0,31,31,31,,,,,,,,,,,,,,,20.625,12.919921875,0,0,1,1.89273619652,,,,,2015_Sep_13_1402,A,facesParametric,2,59.6566506513,
./stim/MorphF10_02_orig.jpg,32,,,,,,,,,0,32,32,32,,,,,,,,,,,,,,,20.537109375,12.861328125,0,0,1,3.19956302643,,,,,2015_Sep_13_1402,A,facesParametric,2,59.6566506513,
./stim/MorphF6_05_orig.jpg,33,,,,,,,,,0,33,33,33,,,,,,,,,,,,,,,20.537109375,12.861328125,0,0,1,1.55728507042,,,,,2015_Sep_13_1402,A,facesParametric,2,59.6566506513,
./stim/MorphF8_01_orig.jpg,34,,,,,,,,,0,34,34,34,,,,,,,,,,,,,,,20.56640625,12.890625,0,0,1,1.03812885284,,,,,2015_Sep_13_1402,A,facesParametric,2,59.6566506513,
./stim/MorphM2_06_orig.jpg,35,,,,,,,,,0,35,35,35,,,,,,,,,,,,,,,20.537109375,12.83203125,0,0,1,8.41039013863,,,,,2015_Sep_13_1402,A,facesParametric,2,59.6566506513,
./stim/MorphM9_02_orig.jpg,36,,,,,,,,,0,36,36,36,,,,,,,,,,,,,,,20.537109375,12.83203125,0,0,1,1.39002299309,,,,,2015_Sep_13_1402,A,facesParametric,2,59.6566506513,
./stim/MorphM5_03_orig.jpg,37,,,,,,,,,0,37,37,37,,,,,,,,,,,,,,,20.537109375,12.802734375,0,0,1,1.15238595009,,,,,2015_Sep_13_1402,A,facesParametric,2,59.6566506513,
./stim/MorphM4_01_orig.jpg,38,,,,,,,,,0,38,38,38,,,,,,,,,,,,,,,20.5078125,12.7734375,0,0,1,2.04319119453,,,,,2015_Sep_13_1402,A,facesParametric,2,59.6566506513,
./stim/MorphM6_05_orig.jpg,39,,,,,,,,,0,39,39,39,,,,,,,,,,,,,,,21.2109375,11.953125,0,0,1,13.992839098,,,,,2015_Sep_13_1402,A,facesParametric,2,59.6566506513,
./stim/MorphF4_02_orig.jpg,40,,,,,,,,,0,40,40,40,,,,,,,,,,,,,,,21.2109375,11.953125,0,0,1,2.37948703766,,,,,2015_Sep_13_1402,A,facesParametric,2,59.6566506513,
./stim/MorphM9_03_orig.jpg,41,,,,,,,,,0,41,41,41,,,,,,,,,,,,,,,20.830078125,9.404296875,0,0,1,16.2215521336,,,,,2015_Sep_13_1402,A,facesParametric,2,59.6566506513,
./stim/MorphF4_06_orig.jpg,42,,,,,,,,,0,42,42,42,,,,,,,,,,,,,,,20.91796875,9.169921875,0,0,1,5.22670888901,,,,,2015_Sep_13_1402,A,facesParametric,2,59.6566506513,
./stim/MorphF5_00_orig.jpg,43,,,,,,,,,0,43,43,43,,,,,,,,,,,,,,,21.03515625,8.7890625,0,0,1,2.39518094063,,,,,2015_Sep_13_1402,A,facesParametric,2,59.6566506513,
./stim/MorphM7_04_orig.jpg,44,,,,,,,,,0,44,44,44,,,,,,,,,,,,,,,21.123046875,8.759765625,1,0,0,1.99149608612,,,,,2015_Sep_13_1402,A,facesParametric,2,59.6566506513,
./stim/MorphF1_07_orig.jpg,45,,,,,,,,,0,45,45,45,,,,,,,,,,,,,,,21.181640625,8.671875,1,0,0,5.29475808144,,,,,2015_Sep_13_1402,A,facesParametric,2,59.6566506513,
./stim/MorphF7_02_orig.jpg,46,,,,,,,,,0,46,46,46,,,,,,,,,,,,,,,21.240234375,8.671875,0,0,1,1.38957595825,,,,,2015_Sep_13_1402,A,facesParametric,2,59.6566506513,
./stim/MorphF3_08_orig.jpg,47,,,,,,,,,0,47,47,47,,,,,,,,,,,,,,,21.181640625,8.642578125,1,0,0,5.71482396126,,,,,2015_Sep_13_1402,A,facesParametric,2,59.6566506513,
./stim/MorphM4_03_orig.jpg,48,,,,,,,,,0,48,48,48,,,,,,,,,,,,,,,21.181640625,8.642578125,0,0,1,1.95851302147,,,,,2015_Sep_13_1402,A,facesParametric,2,59.6566506513,
./stim/MorphM7_05_orig.jpg,49,,,,,,,,,0,49,49,49,,,,,,,,,,,,,,,21.15234375,8.61328125,1,0,0,1.69115114212,,,,,2015_Sep_13_1402,A,facesParametric,2,59.6566506513,
./stim/MorphM4_08_orig.jpg,50,,,,,,,,,0,50,50,50,,,,,,,,,,,,,,,21.181640625,8.642578125,1,0,0,1.45715880394,,,,,2015_Sep_13_1402,A,facesParametric,2,59.6566506513,
./stim/MorphM2_03_orig.jpg,51,,,,,,,,,0,51,51,51,,,,,,,,,,,,,,,21.2109375,8.671875,0,0,1,1.64130210876,,,,,2015_Sep_13_1402,A,facesParametric,2,59.6566506513,
./stim/MorphF3_10_orig.jpg,52,,,,,,,,,0,52,52,52,,,,,,,,,,,,,,,21.240234375,8.642578125,1,0,0,6.83538293839,,,,,2015_Sep_13_1402,A,facesParametric,2,59.6566506513,
./stim/MorphF6_08_orig.jpg,53,,,,,,,,,0,53,53,53,,,,,,,,,,,,,,,21.298828125,8.642578125,1,0,0,6.63544178009,,,,,2015_Sep_13_1402,A,facesParametric,2,59.6566506513,
./stim/MorphM3_10_orig.jpg,54,,,,,,,,,0,54,54,54,,,,,,,,,,,,,,,21.328125,8.671875,1,0,0,3.24959611893,,,,,2015_Sep_13_1402,A,facesParametric,2,59.6566506513,
./stim/MorphM10_03_orig.jpg,55,,,,,,,,,0,55,55,55,,,,,,,,,,,,,,,21.328125,8.671875,0,0,1,1.85969400406,,,,,2015_Sep_13_1402,A,facesParametric,2,59.6566506513,
./stim/MorphF2_03_orig.jpg,56,,,,,,,,,0,56,56,56,,,,,,,,,,,,,,,21.328125,8.671875,1,0,0,2.78080010414,,,,,2015_Sep_13_1402,A,facesParametric,2,59.6566506513,
./stim/MorphM7_10_orig.jpg,57,,,,,,,,,0,57,57,57,,,,,,,,,,,,,,,21.328125,8.671875,1,0,0,1.15348100662,,,,,2015_Sep_13_1402,A,facesParametric,2,59.6566506513,
./stim/MorphF8_00_orig.jpg,58,,,,,,,,,0,58,58,58,,,,,,,,,,,,,,,21.328125,8.671875,0,0,1,1.50569796562,,,,,2015_Sep_13_1402,A,facesParametric,2,59.6566506513,
./stim/MorphF7_07_orig.jpg,59,,,,,,,,,0,59,59,59,,,,,,,,,,,,,,,21.357421875,8.701171875,1,0,0,2.31137800217,,,,,2015_Sep_13_1402,A,facesParametric,2,59.6566506513,
./stim/MorphM8_09_orig.jpg,60,,,,,,,,,0,60,60,60,,,,,,,,,,,,,,,21.357421875,8.701171875,1,0,0,0.887019872665,,,,,2015_Sep_13_1402,A,facesParametric,2,59.6566506513,
./stim/MorphF5_08_orig.jpg,61,,,,,,,,,0,61,61,61,,,,,,,,,,,,,,,21.328125,8.671875,1,0,0,1.02118897438,,,,,2015_Sep_13_1402,A,facesParametric,2,59.6566506513,
./stim/MorphM8_00_orig.jpg,62,,,,,,,,,0,62,62,62,,,,,,,,,,,,,,,21.328125,8.671875,0,0,1,4.10241603851,,,,,2015_Sep_13_1402,A,facesParametric,2,59.6566506513,
./stim/MorphF4_04_orig.jpg,63,,,,,,,,,0,63,63,63,,,,,,,,,,,,,,,21.328125,8.671875,0,0,1,3.87084817886,,,,,2015_Sep_13_1402,A,facesParametric,2,59.6566506513,
./stim/MorphM8_05_orig.jpg,64,,,,,,,,,0,64,64,64,,,,,,,,,,,,,,,21.328125,8.671875,1,0,0,0.819686889648,,,,,2015_Sep_13_1402,A,facesParametric,2,59.6566506513,
./stim/MorphM1_09_orig.jpg,65,,,,,,,,,0,65,65,65,,,,,,,,,,,,,,,21.328125,8.671875,1,0,0,1.18861794472,,,,,2015_Sep_13_1402,A,facesParametric,2,59.6566506513,
./stim/MorphF8_04_orig.jpg,66,,,,,,,,,0,66,66,66,,,,,,,,,,,,,,,21.328125,8.671875,0,0,1,1.99375891685,,,,,2015_Sep_13_1402,A,facesParametric,2,59.6566506513,
./stim/MorphM10_07_orig.jpg,67,,,,,,,,,0,67,67,67,,,,,,,,,,,,,,,21.328125,8.671875,1,0,0,0.85223698616,,,,,2015_Sep_13_1402,A,facesParametric,2,59.6566506513,
./stim/MorphM5_05_orig.jpg,68,,,,,,,,,0,68,68,68,,,,,,,,,,,,,,,21.416015625,8.349609375,0,0,1,6.06583285332,,,,,2015_Sep_13_1402,A,facesParametric,2,59.6566506513,
./stim/MorphM3_02_orig.jpg,69,,,,,,,,,0,69,69,69,,,,,,,,,,,,,,,21.416015625,8.349609375,0,0,1,1.25590014458,,,,,2015_Sep_13_1402,A,facesParametric,2,59.6566506513,
./stim/MorphF2_08_orig.jpg,70,,,,,,,,,0,70,70,70,,,,,,,,,,,,,,,21.416015625,8.349609375,1,0,0,1.1383600235,,,,,2015_Sep_13_1402,A,facesParametric,2,59.6566506513,
./stim/MorphM5_00_orig.jpg,71,,,,,,,,,0,71,71,71,,,,,,,,,,,,,,,21.416015625,8.349609375,0,0,1,3.97078084946,,,,,2015_Sep_13_1402,A,facesParametric,2,59.6566506513,
./stim/MorphF6_07_orig.jpg,72,,,,,,,,,0,72,72,72,,,,,,,,,,,,,,,21.416015625,8.349609375,1,0,0,2.42887306213,,,,,2015_Sep_13_1402,A,facesParametric,2,59.6566506513,
./stim/MorphM7_07_orig.jpg,73,,,,,,,,,0,73,73,73,,,,,,,,,,,,,,,21.416015625,8.349609375,1,0,0,2.34433507919,,,,,2015_Sep_13_1402,A,facesParametric,2,59.6566506513,
./stim/MorphM4_05_orig.jpg,74,,,,,,,,,0,74,74,74,,,,,,,,,,,,,,,21.416015625,8.349609375,0,0,1,4.95941090584,,,,,2015_Sep_13_1402,A,facesParametric,2,59.6566506513,
./stim/MorphF1_02_orig.jpg,75,,,,,,,,,0,75,75,75,,,,,,,,,,,,,,,21.416015625,8.349609375,0,0,1,0.820182800293,,,,,2015_Sep_13_1402,A,facesParametric,2,59.6566506513,
./stim/MorphM1_03_orig.jpg,76,,,,,,,,,0,76,76,76,,,,,,,,,,,,,,,21.298828125,8.173828125,0,0,1,4.0360481739,,,,,2015_Sep_13_1402,A,facesParametric,2,59.6566506513,
./stim/MorphM6_01_orig.jpg,77,,,,,,,,,0,77,77,77,,,,,,,,,,,,,,,21.240234375,8.0859375,0,0,1,4.40673494339,,,,,2015_Sep_13_1402,A,facesParametric,2,59.6566506513,
./stim/MorphF5_05_orig.jpg,78,,,,,,,,,0,78,78,78,,,,,,,,,,,,,,,21.181640625,7.96875,1,0,0,1.23890089989,,,,,2015_Sep_13_1402,A,facesParametric,2,59.6566506513,
./stim/MorphF4_10_orig.jpg,79,,,,,,,,,0,79,79,79,,,,,,,,,,,,,,,21.181640625,7.96875,1,0,0,0.868446111679,,,,,2015_Sep_13_1402,A,facesParametric,2,59.6566506513,
./stim/MorphF9_03_orig.jpg,80,,,,,,,,,0,80,80,80,,,,,,,,,,,,,,,21.15234375,7.939453125,1,0,0,1.79236984253,,,,,2015_Sep_13_1402,A,facesParametric,2,59.6566506513,
./stim/MorphM8_04_orig.jpg,81,,,,,,,,,0,81,81,81,,,,,,,,,,,,,,,21.123046875,7.91015625,1,0,0,1.05240511894,,,,,2015_Sep_13_1402,A,facesParametric,2,59.6566506513,
./stim/MorphF2_04_orig.jpg,82,,,,,,,,,0,82,82,82,,,,,,,,,,,,,,,21.123046875,7.91015625,0,0,1,1.27136397362,,,,,2015_Sep_13_1402,A,facesParametric,2,59.6566506513,
./stim/MorphM10_01_orig.jpg,83,,,,,,,,,0,83,83,83,,,,,,,,,,,,,,,21.533203125,7.03125,0,0,1,4.7753469944,,,,,2015_Sep_13_1402,A,facesParametric,2,59.6566506513,
./stim/MorphF6_10_orig.jpg,84,,,,,,,,,0,84,84,84,,,,,,,,,,,,,,,21.62109375,7.03125,1,0,0,1.3057820797,,,,,2015_Sep_13_1402,A,facesParametric,2,59.6566506513,
./stim/MorphF10_00_orig.jpg,85,,,,,,,,,0,85,85,85,,,,,,,,,,,,,,,21.650390625,7.03125,0,0,1,0.870184898376,,,,,2015_Sep_13_1402,A,facesParametric,2,59.6566506513,
./stim/MorphM10_04_orig.jpg,86,,,,,,,,,0,86,86,86,,,,,,,,,,,,,,,21.826171875,7.001953125,0,0,1,5.27760696411,,,,,2015_Sep_13_1402,A,facesParametric,2,59.6566506513,
./stim/MorphM4_07_orig.jpg,87,,,,,,,,,0,87,87,87,,,,,,,,,,,,,,,22.44140625,6.62109375,1,0,0,5.09182596207,,,,,2015_Sep_13_1402,A,facesParametric,2,59.6566506513,
./stim/MorphF10_07_orig.jpg,88,,,,,,,,,0,88,88,88,,,,,,,,,,,,,,,22.55859375,6.62109375,1,0,0,0.836489915848,,,,,2015_Sep_13_1402,A,facesParametric,2,59.6566506513,
./stim/MorphF8_02_orig.jpg,89,,,,,,,,,0,89,89,89,,,,,,,,,,,,,,,23.0859375,5.888671875,0,0,1,5.04323196411,,,,,2015_Sep_13_1402,A,facesParametric,2,59.6566506513,
./stim/MorphM10_06_orig.jpg,90,,,,,,,,,0,90,90,90,,,,,,,,,,,,,,,23.0859375,5.888671875,1,0,0,0.954205036163,,,,,2015_Sep_13_1402,A,facesParametric,2,59.6566506513,
./stim/MorphF6_06_orig.jpg,91,,,,,,,,,0,91,91,91,,,,,,,,,,,,,,,23.115234375,5.859375,0,0,1,2.11036396027,,,,,2015_Sep_13_1402,A,facesParametric,2,59.6566506513,
./stim/MorphF2_07_orig.jpg,92,,,,,,,,,0,92,92,92,,,,,,,,,,,,,,,23.115234375,5.859375,1,0,0,1.0547440052,,,,,2015_Sep_13_1402,A,facesParametric,2,59.6566506513,
./stim/MorphF3_04_orig.jpg,93,,,,,,,,,0,93,93,93,,,,,,,,,,,,,,,23.0859375,5.830078125,0,0,1,2.29479312897,,,,,2015_Sep_13_1402,A,facesParametric,2,59.6566506513,
./stim/MorphM10_10_orig.jpg,94,,,,,,,,,0,94,94,94,,,,,,,,,,,,,,,23.0859375,5.830078125,1,0,0,0.870198965073,,,,,2015_Sep_13_1402,A,facesParametric,2,59.6566506513,
./stim/MorphF3_06_orig.jpg,95,,,,,,,,,0,95,95,95,,,,,,,,,,,,,,,23.203125,5.80078125,0,0,1,5.86467695236,,,,,2015_Sep_13_1402,A,facesParametric,2,59.6566506513,
./stim/MorphM8_06_orig.jpg,96,,,,,,,,,0,96,96,96,,,,,,,,,,,,,,,23.203125,5.80078125,1,0,0,0.753502845764,,,,,2015_Sep_13_1402,A,facesParametric,2,59.6566506513,
./stim/MorphM4_02_orig.jpg,97,,,,,,,,,0,97,97,97,,,,,,,,,,,,,,,23.232421875,5.830078125,0,0,1,1.59084105492,,,,,2015_Sep_13_1402,A,facesParametric,2,59.6566506513,
./stim/MorphF9_08_orig.jpg,98,,,,,,,,,0,98,98,98,,,,,,,,,,,,,,,23.232421875,5.830078125,1,0,0,1.65729689598,,,,,2015_Sep_13_1402,A,facesParametric,2,59.6566506513,
./stim/MorphF3_07_orig.jpg,99,,,,,,,,,0,99,99,99,,,,,,,,,,,,,,,23.26171875,5.830078125,0,0,1,2.22578501701,,,,,2015_Sep_13_1402,A,facesParametric,2,59.6566506513,
./stim/MorphM10_09_orig.jpg,100,,,,,,,,,0,100,100,100,,,,,,,,,,,,,,,23.291015625,5.859375,1,0,0,0.887156009674,,,,,2015_Sep_13_1402,A,facesParametric,2,59.6566506513,
./stim/MorphM4_04_orig.jpg,101,,,,,,,,,0,101,101,101,,,,,,,,,,,,,,,23.291015625,5.859375,0,0,1,1.20545601845,,,,,2015_Sep_13_1402,A,facesParametric,2,59.6566506513,
./stim/MorphM6_07_orig.jpg,102,,,,,,,,,0,102,102,102,,,,,,,,,,,,,,,23.26171875,5.888671875,0,0,1,3.03147006035,,,,,2015_Sep_13_1402,A,facesParametric,2,59.6566506513,
./stim/MorphF4_01_orig.jpg,103,,,,,,,,,0,103,103,103,,,,,,,,,,,,,,,23.26171875,5.888671875,0,0,1,1.6074848175,,,,,2015_Sep_13_1402,A,facesParametric,2,59.6566506513,
./stim/MorphF10_06_orig.jpg,104,,,,,,,,,0,104,104,104,,,,,,,,,,,,,,,23.232421875,5.888671875,1,0,0,0.937525033951,,,,,2015_Sep_13_1402,A,facesParametric,2,59.6566506513,
./stim/MorphM3_00_orig.jpg,105,,,,,,,,,0,105,105,105,,,,,,,,,,,,,,,23.203125,5.91796875,0,0,1,1.95930409431,,,,,2015_Sep_13_1402,A,facesParametric,2,59.6566506513,
./stim/MorphF7_08_orig.jpg,106,,,,,,,,,0,106,106,106,,,,,,,,,,,,,,,23.232421875,5.947265625,1,0,0,1.32320213318,,,,,2015_Sep_13_1402,A,facesParametric,2,59.6566506513,
./stim/MorphF1_06_orig.jpg,107,,,,,,,,,0,107,107,107,,,,,,,,,,,,,,,23.232421875,5.947265625,0,0,1,1.40638899803,,,,,2015_Sep_13_1402,A,facesParametric,2,59.6566506513,
./stim/MorphM7_02_orig.jpg,108,,,,,,,,,0,108,108,108,,,,,,,,,,,,,,,23.232421875,5.947265625,1,0,0,5.37894392014,,,,,2015_Sep_13_1402,A,facesParametric,2,59.6566506513,
./stim/MorphM5_02_orig.jpg,109,,,,,,,,,0,109,109,109,,,,,,,,,,,,,,,23.26171875,5.947265625,0,0,1,1.32225608826,,,,,2015_Sep_13_1402,A,facesParametric,2,59.6566506513,
./stim/MorphM6_08_orig.jpg,110,,,,,,,,,0,110,110,110,,,,,,,,,,,,,,,21.796875,6.240234375,1,0,0,6.9373550415,,,,,2015_Sep_13_1402,A,facesParametric,2,59.6566506513,
./stim/MorphF6_01_orig.jpg,111,,,,,,,,,0,111,111,111,,,,,,,,,,,,,,,21.826171875,6.26953125,0,0,1,1.08643484116,,,,,2015_Sep_13_1402,A,facesParametric,2,59.6566506513,
./stim/MorphM3_08_orig.jpg,112,,,,,,,,,0,112,112,112,,,,,,,,,,,,,,,21.97265625,6.328125,1,0,0,1.74181818962,,,,,2015_Sep_13_1402,A,facesParametric,2,59.6566506513,
./stim/MorphF2_06_orig.jpg,113,,,,,,,,,0,113,113,113,,,,,,,,,,,,,,,22.119140625,6.298828125,1,0,0,1.07135415077,,,,,2015_Sep_13_1402,A,facesParametric,2,59.6566506513,
./stim/MorphM9_05_orig.jpg,114,,,,,,,,,0,114,114,114,,,,,,,,,,,,,,,22.236328125,6.26953125,0,0,1,1.17165017128,,,,,2015_Sep_13_1402,A,facesParametric,2,59.6566506513,
./stim/MorphM7_06_orig.jpg,115,,,,,,,,,0,115,115,115,,,,,,,,,,,,,,,22.32421875,6.2109375,1,0,0,2.39551210403,,,,,2015_Sep_13_1402,A,facesParametric,2,59.6566506513,
./stim/MorphF7_00_orig.jpg,116,,,,,,,,,0,116,116,116,,,,,,,,,,,,,,,22.3828125,6.2109375,0,0,1,1.57405304909,,,,,2015_Sep_13_1402,A,facesParametric,2,59.6566506513,
./stim/MorphM7_00_orig.jpg,117,,,,,,,,,0,117,117,117,,,,,,,,,,,,,,,22.470703125,6.2109375,0,0,1,3.21675086021,,,,,2015_Sep_13_1402,A,facesParametric,2,59.6566506513,
./stim/MorphM6_02_orig.jpg,118,,,,,,,,,0,118,118,118,,,,,,,,,,,,,,,22.44140625,6.181640625,0,0,1,1.43794488907,,,,,2015_Sep_13_1402,A,facesParametric,2,59.6566506513,
./stim/MorphF7_04_orig.jpg,119,,,,,,,,,0,119,119,119,,,,,,,,,,,,,,,22.412109375,6.2109375,1,0,0,0.854517936707,,,,,2015_Sep_13_1402,A,facesParametric,2,59.6566506513,
./stim/MorphF4_00_orig.jpg,120,,,,,,,,,0,120,120,120,,,,,,,,,,,,,,,22.5,6.123046875,0,0,1,2.47828507423,,,,,2015_Sep_13_1402,A,facesParametric,2,59.6566506513,
./stim/MorphF9_07_orig.jpg,121,,,,,,,,,0,121,121,121,,,,,,,,,,,,,,,22.32421875,6.181640625,1,0,0,0.803380966187,,,,,2015_Sep_13_1402,A,facesParametric,2,59.6566506513,
./stim/MorphF4_05_orig.jpg,122,,,,,,,,,0,122,122,122,,,,,,,,,,,,,,,22.236328125,6.240234375,0,0,1,3.65224194527,,,,,2015_Sep_13_1402,A,facesParametric,2,59.6566506513,
./stim/MorphF5_10_orig.jpg,123,,,,,,,,,0,123,123,123,,,,,,,,,,,,,,,22.177734375,6.181640625,1,0,0,0.853532075882,,,,,2015_Sep_13_1402,A,facesParametric,2,59.6566506513,
./stim/MorphM9_06_orig.jpg,124,,,,,,,,,0,124,124,124,,,,,,,,,,,,,,,23.232421875,7.20703125,0,0,1,4.97680306435,,,,,2015_Sep_13_1402,A,facesParametric,2,59.6566506513,
./stim/MorphF1_00_orig.jpg,125,,,,,,,,,0,125,125,125,,,,,,,,,,,,,,,23.173828125,7.177734375,0,0,1,1.13775706291,,,,,2015_Sep_13_1402,A,facesParametric,2,59.6566506513,
./stim/MorphF5_07_orig.jpg,126,,,,,,,,,0,126,126,126,,,,,,,,,,,,,,,23.115234375,7.177734375,1,0,0,0.736601114273,,,,,2015_Sep_13_1402,A,facesParametric,2,59.6566506513,
./stim/MorphM6_06_orig.jpg,127,,,,,,,,,0,127,127,127,,,,,,,,,,,,,,,22.96875,7.177734375,0,0,1,4.00412416458,,,,,2015_Sep_13_1402,A,facesParametric,2,59.6566506513,
./stim/MorphF2_00_orig.jpg,128,,,,,,,,,0,128,128,128,,,,,,,,,,,,,,,22.8515625,7.001953125,0,0,1,2.39559292793,,,,,2015_Sep_13_1402,A,facesParametric,2,59.6566506513,
./stim/MorphM6_03_orig.jpg,129,,,,,,,,,0,129,129,129,,,,,,,,,,,,,,,22.8515625,7.001953125,0,0,1,2.02680110931,,,,,2015_Sep_13_1402,A,facesParametric,2,59.6566506513,
./stim/MorphM3_04_orig.jpg,130,,,,,,,,,0,130,130,130,,,,,,,,,,,,,,,22.8515625,6.943359375,1,0,0,1.87541794777,,,,,2015_Sep_13_1402,A,facesParametric,2,59.6566506513,
./stim/MorphM8_01_orig.jpg,131,,,,,,,,,0,131,131,131,,,,,,,,,,,,,,,22.822265625,6.97265625,1,0,0,0.736456155777,,,,,2015_Sep_13_1402,A,facesParametric,2,59.6566506513,
./stim/MorphM1_06_orig.jpg,132,,,,,,,,,0,132,132,132,,,,,,,,,,,,,,,22.8515625,6.97265625,0,0,1,1.2220389843,,,,,2015_Sep_13_1402,A,facesParametric,2,59.6566506513,
./stim/MorphM2_09_orig.jpg,133,,,,,,,,,0,133,133,133,,,,,,,,,,,,,,,22.880859375,6.97265625,1,0,0,0.93532204628,,,,,2015_Sep_13_1402,A,facesParametric,2,59.6566506513,
./stim/MorphF2_01_orig.jpg,134,,,,,,,,,0,134,134,134,,,,,,,,,,,,,,,22.96875,6.884765625,0,0,1,1.38967895508,,,,,2015_Sep_13_1402,A,facesParametric,2,59.6566506513,
./stim/MorphM5_01_orig.jpg,135,,,,,,,,,0,135,135,135,,,,,,,,,,,,,,,22.939453125,6.826171875,0,0,1,1.18856596947,,,,,2015_Sep_13_1402,A,facesParametric,2,59.6566506513,
./stim/MorphF8_03_orig.jpg,136,,,,,,,,,0,136,136,136,,,,,,,,,,,,,,,22.91015625,6.826171875,0,0,1,2.05934786797,,,,,2015_Sep_13_1402,A,facesParametric,2,59.6566506513,
./stim/MorphF10_03_orig.jpg,137,,,,,,,,,0,137,137,137,,,,,,,,,,,,,,,22.67578125,6.767578125,1,0,0,0.719279050827,,,,,2015_Sep_13_1402,A,facesParametric,2,59.6566506513,
./stim/MorphM7_09_orig.jpg,138,,,,,,,,,0,138,138,138,,,,,,,,,,,,,,,22.705078125,6.85546875,1,0,0,1.17207598686,,,,,2015_Sep_13_1402,A,facesParametric,2,59.6566506513,
./stim/MorphM9_00_orig.jpg,139,,,,,,,,,0,139,139,139,,,,,,,,,,,,,,,22.939453125,6.943359375,0,0,1,4.54051780701,,,,,2015_Sep_13_1402,A,facesParametric,2,59.6566506513,
./stim/MorphM3_05_orig.jpg,140,,,,,,,,,0,140,140,140,,,,,,,,,,,,,,,22.939453125,7.001953125,1,0,0,2.00985097885,,,,,2015_Sep_13_1402,A,facesParametric,2,59.6566506513,
./stim/MorphM1_07_orig.jpg,141,,,,,,,,,0,141,141,141,,,,,,,,,,,,,,,22.91015625,7.03125,1,0,0,1.77313613892,,,,,2015_Sep_13_1402,A,facesParametric,2,59.6566506513,
./stim/MorphM9_07_orig.jpg,142,,,,,,,,,0,142,142,142,,,,,,,,,,,,,,,22.939453125,7.060546875,1,0,0,1.55743384361,,,,,2015_Sep_13_1402,A,facesParametric,2,59.6566506513,
./stim/MorphF3_03_orig.jpg,143,,,,,,,,,0,143,143,143,,,,,,,,,,,,,,,22.939453125,7.060546875,0,0,1,1.74118304253,,,,,2015_Sep_13_1402,A,facesParametric,2,59.6566506513,
./stim/MorphF4_07_orig.jpg,144,,,,,,,,,0,144,144,144,,,,,,,,,,,,,,,22.96875,7.08984375,1,0,0,1.38990902901,,,,,2015_Sep_13_1402,A,facesParametric,2,59.6566506513,
./stim/MorphM2_10_orig.jpg,145,,,,,,,,,0,145,145,145,,,,,,,,,,,,,,,22.96875,7.08984375,1,0,0,0.719256877899,,,,,2015_Sep_13_1402,A,facesParametric,2,59.6566506513,
./stim/MorphF7_06_orig.jpg,146,,,,,,,,,0,146,146,146,,,,,,,,,,,,,,,22.96875,6.85546875,1,0,0,4.30622601509,,,,,2015_Sep_13_1402,A,facesParametric,2,59.6566506513,
./stim/MorphM8_02_orig.jpg,147,,,,,,,,,0,147,147,147,,,,,,,,,,,,,,,23.02734375,6.826171875,0,0,1,1.2721889019,,,,,2015_Sep_13_1402,A,facesParametric,2,59.6566506513,
./stim/MorphF3_05_orig.jpg,148,,,,,,,,,0,148,148,148,,,,,,,,,,,,,,,23.056640625,6.85546875,0,0,1,3.75272798538,,,,,2015_Sep_13_1402,A,facesParametric,2,59.6566506513,
./stim/MorphF6_04_orig.jpg,149,,,,,,,,,0,149,149,149,,,,,,,,,,,,,,,23.056640625,6.85546875,0,0,1,1.0376598835,,,,,2015_Sep_13_1402,A,facesParametric,2,59.6566506513,
./stim/MorphM4_10_orig.jpg,150,,,,,,,,,0,150,150,150,,,,,,,,,,,,,,,23.0859375,6.884765625,1,0,0,1.62246608734,,,,,2015_Sep_13_1402,A,facesParametric,2,59.6566506513,
./stim/MorphF10_08_orig.jpg,151,,,,,,,,,0,151,151,151,,,,,,,,,,,,,,,23.14453125,6.9140625,1,0,0,1.17225813866,,,,,2015_Sep_13_1402,A,facesParametric,2,59.6566506513,
./stim/MorphF5_02_orig.jpg,152,,,,,,,,,0,152,152,152,,,,,,,,,,,,,,,23.14453125,6.9140625,0,0,1,0.937146902084,,,,,2015_Sep_13_1402,A,facesParametric,2,59.6566506513,
./stim/MorphF1_05_orig.jpg,153,,,,,,,,,0,153,153,153,,,,,,,,,,,,,,,23.232421875,6.85546875,0,0,1,4.38984203339,,,,,2015_Sep_13_1402,A,facesParametric,2,59.6566506513,
./stim/MorphF9_09_orig.jpg,154,,,,,,,,,0,154,154,154,,,,,,,,,,,,,,,23.232421875,6.85546875,1,0,0,0.83668088913,,,,,2015_Sep_13_1402,A,facesParametric,2,59.6566506513,
./stim/MorphF5_03_orig.jpg,155,,,,,,,,,0,155,155,155,,,,,,,,,,,,,,,23.26171875,6.9140625,0,0,1,1.30628418922,,,,,2015_Sep_13_1402,A,facesParametric,2,59.6566506513,
./stim/MorphF4_03_orig.jpg,156,,,,,,,,,0,156,156,156,,,,,,,,,,,,,,,23.0859375,6.796875,0,0,1,4.92626094818,,,,,2015_Sep_13_1402,A,facesParametric,2,59.6566506513,
./stim/MorphF5_01_orig.jpg,157,,,,,,,,,0,157,157,157,,,,,,,,,,,,,,,23.056640625,6.826171875,0,0,1,3.14946508408,,,,,2015_Sep_13_1402,A,facesParametric,2,59.6566506513,
./stim/MorphM1_01_orig.jpg,158,,,,,,,,,0,158,158,158,,,,,,,,,,,,,,,23.02734375,6.826171875,0,0,1,4.58960914612,,,,,2015_Sep_13_1402,A,facesParametric,2,59.6566506513,
./stim/MorphF9_02_orig.jpg,159,,,,,,,,,0,159,159,159,,,,,,,,,,,,,,,22.998046875,6.85546875,1,0,0,2.02344107628,,,,,2015_Sep_13_1402,A,facesParametric,2,59.6566506513,
./stim/MorphF2_02_orig.jpg,160,,,,,,,,,0,160,160,160,,,,,,,,,,,,,,,23.02734375,6.884765625,0,0,1,1.87342000008,,,,,2015_Sep_13_1402,A,facesParametric,2,59.6566506513,
./stim/MorphM8_10_orig.jpg,161,,,,,,,,,0,161,161,161,,,,,,,,,,,,,,,23.0859375,6.85546875,1,0,0,0.786122083664,,,,,2015_Sep_13_1402,A,facesParametric,2,59.6566506513,
./stim/MorphM1_10_orig.jpg,162,,,,,,,,,0,162,162,162,,,,,,,,,,,,,,,23.02734375,6.796875,1,0,0,1.15472507477,,,,,2015_Sep_13_1402,A,facesParametric,2,59.6566506513,
./stim/MorphF10_04_orig.jpg,163,,,,,,,,,0,163,163,163,,,,,,,,,,,,,,,22.96875,6.767578125,1,0,0,1.6747469902,,,,,2015_Sep_13_1402,A,facesParametric,2,59.6566506513,
./stim/MorphF3_00_orig.jpg,164,,,,,,,,,0,164,164,164,,,,,,,,,,,,,,,22.939453125,6.73828125,1,0,0,0.568578958511,,,,,2015_Sep_13_1402,A,facesParametric,2,59.6566506513,
./stim/MorphM2_07_orig.jpg,165,,,,,,,,,0,165,165,165,,,,,,,,,,,,,,,23.232421875,7.44140625,1,0,0,5.89742088318,,,,,2015_Sep_13_1402,A,facesParametric,2,59.6566506513,
./stim/MorphF7_05_orig.jpg,166,,,,,,,,,0,166,166,166,,,,,,,,,,,,,,,23.26171875,7.44140625,0,0,1,1.27274084091,,,,,2015_Sep_13_1402,A,facesParametric,2,59.6566506513,
./stim/MorphF6_03_orig.jpg,167,,,,,,,,,0,167,167,167,,,,,,,,,,,,,,,23.349609375,7.353515625,0,0,1,1.10297298431,,,,,2015_Sep_13_1402,A,facesParametric,2,59.6566506513,
./stim/MorphF3_02_orig.jpg,168,,,,,,,,,0,168,168,168,,,,,,,,,,,,,,,23.37890625,7.3828125,0,0,1,1.3060708046,,,,,2015_Sep_13_1402,A,facesParametric,2,59.6566506513,
./stim/MorphF1_01_orig.jpg,169,,,,,,,,,0,169,169,169,,,,,,,,,,,,,,,23.408203125,7.119140625,0,0,1,11.3615629673,,,,,2015_Sep_13_1402,A,facesParametric,2,59.6566506513,
./stim/MorphM1_04_orig.jpg,170,,,,,,,,,0,170,170,170,,,,,,,,,,,,,,,23.408203125,7.03125,0,0,1,2.66345405579,,,,,2015_Sep_13_1402,A,facesParametric,2,59.6566506513,
./stim/MorphF4_09_orig.jpg,171,,,,,,,,,0,171,171,171,,,,,,,,,,,,,,,23.408203125,7.060546875,1,0,0,0.987593889236,,,,,2015_Sep_13_1402,A,facesParametric,2,59.6566506513,
./stim/MorphM6_00_orig.jpg,172,,,,,,,,,0,172,172,172,,,,,,,,,,,,,,,23.408203125,7.1484375,0,0,1,1.22236299515,,,,,2015_Sep_13_1402,A,facesParametric,2,59.6566506513,
./stim/MorphM5_09_orig.jpg,173,,,,,,,,,0,173,173,173,,,,,,,,,,,,,,,23.232421875,7.08984375,1,0,0,1.50730991364,,,,,2015_Sep_13_1402,A,facesParametric,2,59.6566506513,
./stim/MorphF5_06_orig.jpg,174,,,,,,,,,0,174,174,174,,,,,,,,,,,,,,,23.232421875,7.03125,1,0,0,0.88710808754,,,,,2015_Sep_13_1402,A,facesParametric,2,59.6566506513,
./stim/MorphF9_01_orig.jpg,175,,,,,,,,,0,175,175,175,,,,,,,,,,,,,,,23.408203125,6.298828125,0,0,1,5.32852506638,,,,,2015_Sep_13_1402,A,facesParametric,2,59.6566506513,
./stim/MorphM5_07_orig.jpg,176,,,,,,,,,0,176,176,176,,,,,,,,,,,,,,,23.408203125,6.26953125,1,0,0,1.92414307594,,,,,2015_Sep_13_1402,A,facesParametric,2,59.6566506513,
./stim/MorphM2_01_orig.jpg,177,,,,,,,,,0,177,177,177,,,,,,,,,,,,,,,23.408203125,6.298828125,0,0,1,1.70676112175,,,,,2015_Sep_13_1402,A,facesParametric,2,59.6566506513,
./stim/MorphM7_03_orig.jpg,178,,,,,,,,,0,178,178,178,,,,,,,,,,,,,,,23.408203125,6.298828125,0,0,1,13.2056190968,,,,,2015_Sep_13_1402,A,facesParametric,2,59.6566506513,
./stim/MorphM9_09_orig.jpg,179,,,,,,,,,0,179,179,179,,,,,,,,,,,,,,,23.408203125,6.26953125,1,0,0,2.24341201782,,,,,2015_Sep_13_1402,A,facesParametric,2,59.6566506513,
./stim/MorphF9_10_orig.jpg,180,,,,,,,,,0,180,180,180,,,,,,,,,,,,,,,23.408203125,6.240234375,1,0,0,0.702865123749,,,,,2015_Sep_13_1402,A,facesParametric,2,59.6566506513,
./stim/MorphF8_10_orig.jpg,181,,,,,,,,,0,181,181,181,,,,,,,,,,,,,,,23.408203125,6.240234375,1,0,0,0.903829097748,,,,,2015_Sep_13_1402,A,facesParametric,2,59.6566506513,
./stim/MorphF10_10_orig.jpg,182,,,,,,,,,0,182,182,182,,,,,,,,,,,,,,,23.408203125,6.181640625,1,0,0,0.803036928177,,,,,2015_Sep_13_1402,A,facesParametric,2,59.6566506513,
./stim/MorphM3_09_orig.jpg,183,,,,,,,,,0,183,183,183,,,,,,,,,,,,,,,23.408203125,6.15234375,1,0,0,0.83629488945,,,,,2015_Sep_13_1402,A,facesParametric,2,59.6566506513,
./stim/MorphF10_05_orig.jpg,184,,,,,,,,,0,184,184,184,,,,,,,,,,,,,,,23.3203125,6.181640625,1,0,0,3.63570189476,,,,,2015_Sep_13_1402,A,facesParametric,2,59.6566506513,
./stim/MorphF6_00_orig.jpg,185,,,,,,,,,0,185,185,185,,,,,,,,,,,,,,,23.349609375,6.181640625,0,0,1,0.635478973389,,,,,2015_Sep_13_1402,A,facesParametric,2,59.6566506513,
./stim/MorphF8_08_orig.jpg,186,,,,,,,,,0,186,186,186,,,,,,,,,,,,,,,23.408203125,6.240234375,0,0,1,0.988087892532,,,,,2015_Sep_13_1402,A,facesParametric,2,59.6566506513,
./stim/MorphF7_10_orig.jpg,187,,,,,,,,,0,187,187,187,,,,,,,,,,,,,,,23.37890625,6.240234375,1,0,0,0.767950057983,,,,,2015_Sep_13_1402,A,facesParametric,2,59.6566506513,
./stim/MorphM9_10_orig.jpg,188,,,,,,,,,0,188,188,188,,,,,,,,,,,,,,,22.734375,6.123046875,1,0,0,2.91524600983,,,,,2015_Sep_13_1402,A,facesParametric,2,59.6566506513,
./stim/MorphM10_05_orig.jpg,189,,,,,,,,,0,189,189,189,,,,,,,,,,,,,,,22.5,6.064453125,1,0,0,1.74201202393,,,,,2015_Sep_13_1402,A,facesParametric,2,59.6566506513,
./stim/MorphM8_03_orig.jpg,190,,,,,,,,,0,190,190,190,,,,,,,,,,,,,,,22.5,5.91796875,0,0,1,1.08803606033,,,,,2015_Sep_13_1402,A,facesParametric,2,59.6566506513,
./stim/MorphF2_10_orig.jpg,191,,,,,,,,,0,191,191,191,,,,,,,,,,,,,,,22.529296875,6.005859375,1,0,0,0.886796951294,,,,,2015_Sep_13_1402,A,facesParametric,2,59.6566506513,
./stim/MorphM1_02_orig.jpg,192,,,,,,,,,0,192,192,192,,,,,,,,,,,,,,,22.587890625,5.625,0,0,1,6.81990909576,,,,,2015_Sep_13_1402,A,facesParametric,2,59.6566506513,
./stim/MorphM4_09_orig.jpg,193,,,,,,,,,0,193,193,193,,,,,,,,,,,,,,,22.67578125,5.595703125,1,0,0,1.37126803398,,,,,2015_Sep_13_1402,A,facesParametric,2,59.6566506513,
./stim/MorphM8_07_orig.jpg,194,,,,,,,,,0,194,194,194,,,,,,,,,,,,,,,22.763671875,5.537109375,1,0,0,1.0879740715,,,,,2015_Sep_13_1402,A,facesParametric,2,59.6566506513,
./stim/MorphM1_08_orig.jpg,195,,,,,,,,,0,195,195,195,,,,,,,,,,,,,,,22.734375,5.419921875,0,0,1,2.79647803307,,,,,2015_Sep_13_1402,A,facesParametric,2,59.6566506513,
./stim/MorphF4_08_orig.jpg,196,,,,,,,,,0,196,196,196,,,,,,,,,,,,,,,9.78515625,10.400390625,0,0,1,12.7528820038,,,,,2015_Sep_13_1402,A,facesParametric,2,59.6566506513,
./stim/MorphM9_04_orig.jpg,197,,,,,,,,,0,197,197,197,,,,,,,,,,,,,,,9.78515625,10.400390625,0,0,1,0.737329006195,,,,,2015_Sep_13_1402,A,facesParametric,2,59.6566506513,
./stim/MorphF1_09_orig.jpg,198,,,,,,,,,0,198,198,198,,,,,,,,,,,,,,,9.609375,10.37109375,1,0,0,1.30430388451,,,,,2015_Sep_13_1402,A,facesParametric,2,59.6566506513,
./stim/MorphM9_08_orig.jpg,199,,,,,,,,,0,199,199,199,,,,,,,,,,,,,,,9.580078125,10.341796875,1,0,0,1.45702981949,,,,,2015_Sep_13_1402,A,facesParametric,2,59.6566506513,
./stim/MorphF10_01_orig.jpg,200,,,,,,,,,0,200,200,200,,,,,,,,,,,,,,,9.55078125,10.283203125,0,0,1,1.38760519028,,,,,2015_Sep_13_1402,A,facesParametric,2,59.6566506513,
./stim/MorphM10_00_orig.jpg,201,,,,,,,,,0,201,201,201,,,,,,,,,,,,,,,9.521484375,10.25390625,0,0,1,1.65816307068,,,,,2015_Sep_13_1402,A,facesParametric,2,59.6566506513,
./stim/MorphM2_00_orig.jpg,202,,,,,,,,,0,202,202,202,,,,,,,,,,,,,,,9.55078125,10.224609375,0,0,1,0.820251941681,,,,,2015_Sep_13_1402,A,facesParametric,2,59.6566506513,
./stim/MorphM9_01_orig.jpg,203,,,,,,,,,0,203,203,203,,,,,,,,,,,,,,,9.55078125,10.166015625,0,0,1,1.87490987778,,,,,2015_Sep_13_1402,A,facesParametric,2,59.6566506513,
./stim/MorphF7_09_orig.jpg,204,,,,,,,,,0,204,204,204,,,,,,,,,,,,,,,9.462890625,10.25390625,1,0,0,0.851922988892,,,,,2015_Sep_13_1402,A,facesParametric,2,59.6566506513,
./stim/MorphF9_00_orig.jpg,205,,,,,,,,,0,205,205,205,,,,,,,,,,,,,,,9.4921875,10.517578125,1,0,0,3.24951601028,,,,,2015_Sep_13_1402,A,facesParametric,2,59.6566506513,
./stim/MorphM2_02_orig.jpg,206,,,,,,,,,0,206,206,206,,,,,,,,,,,,,,,9.638671875,10.751953125,0,0,1,1.35622906685,,,,,2015_Sep_13_1402,A,facesParametric,2,59.6566506513,
./stim/MorphF8_05_orig.jpg,207,,,,,,,,,0,207,207,207,,,,,,,,,,,,,,,9.814453125,10.8984375,0,0,1,1.22086405754,,,,,2015_Sep_13_1402,A,facesParametric,2,59.6566506513,
./stim/MorphF3_09_orig.jpg,208,,,,,,,,,0,208,208,208,,,,,,,,,,,,,,,9.873046875,10.869140625,1,0,0,3.51795291901,,,,,2015_Sep_13_1402,A,facesParametric,2,59.6566506513,
./stim/MorphM5_10_orig.jpg,209,,,,,,,,,0,209,209,209,,,,,,,,,,,,,,,9.84375,10.8984375,1,0,0,5.21043586731,,,,,2015_Sep_13_1402,A,facesParametric,2,59.6566506513,
./stim/MorphM8_08_orig.jpg,210,,,,,,,,,0,210,210,210,,,,,,,,,,,,,,,9.84375,10.8984375,1,0,0,0.786422967911,,,,,2015_Sep_13_1402,A,facesParametric,2,59.6566506513,
./stim/MorphM3_07_orig.jpg,211,,,,,,,,,0,211,211,211,,,,,,,,,,,,,,,9.84375,10.8984375,1,0,0,1.20535302162,,,,,2015_Sep_13_1402,A,facesParametric,2,59.6566506513,
./stim/MorphM5_06_orig.jpg,212,,,,,,,,,0,212,212,212,,,,,,,,,,,,,,,9.990234375,10.576171875,0,0,1,4.1880209446,,,,,2015_Sep_13_1402,A,facesParametric,2,59.6566506513,
./stim/MorphF5_09_orig.jpg,213,,,,,,,,,0,213,213,213,,,,,,,,,,,,,,,9.873046875,10.576171875,1,0,0,1.9261841774,,,,,2015_Sep_13_1402,A,facesParametric,2,59.6566506513,
./stim/MorphF8_06_orig.jpg,214,,,,,,,,,0,214,214,214,,,,,,,,,,,,,,,6.85546875,6.591796875,0,0,1,29.0759818554,,,,,2015_Sep_13_1402,A,facesParametric,2,59.6566506513,
./stim/MorphF5_04_orig.jpg,215,,,,,,,,,0,215,215,215,,,,,,,,,,,,,,,6.2109375,5.7421875,0,0,1,5.29491996765,,,,,2015_Sep_13_1402,A,facesParametric,2,59.6566506513,
./stim/MorphM2_04_orig.jpg,216,,,,,,,,,0,216,216,216,,,,,,,,,,,,,,,6.15234375,6.03515625,0,0,1,1.45695400238,,,,,2015_Sep_13_1402,A,facesParametric,2,59.6566506513,
./stim/MorphF2_05_orig.jpg,217,,,,,,,,,0,217,217,217,,,,,,,,,,,,,,,6.181640625,5.888671875,1,0,0,6.48355412483,,,,,2015_Sep_13_1402,A,facesParametric,2,59.6566506513,
./stim/MorphM7_01_orig.jpg,218,,,,,,,,,0,218,218,218,,,,,,,,,,,,,,,6.240234375,5.91796875,0,0,1,1.57456111908,,,,,2015_Sep_13_1402,A,facesParametric,2,59.6566506513,
./stim/MorphF10_09_orig.jpg,219,,,,,,,,,0,219,219,219,,,,,,,,,,,,,,,5.244140625,5.244140625,1,0,0,4.57406902313,,,,,2015_Sep_13_1402,A,facesParametric,2,59.6566506513,
,,,,,,,,,,,,,,,,,,,,,,,,,,,,,,,,,,,,return,17.0862081051,2015_Sep_13_1402,A,facesParametric,2,59.6566506513,
