img,num,basicLoop.thisRepN,basicLoop.thisTrialN,basicLoop.thisN,basicLoop.thisIndex,trials.thisRepN,trials.thisTrialN,trials.thisN,trials.thisIndex,trials2.thisRepN,trials2.thisTrialN,trials2.thisN,trials2.thisIndex,key_resp_2.keys,key_resp_2.rt,basicRating1.response,basicRating1.rt,basicRating2.response,basicRating2.rt,basicRating3.response,basicRating3.rt,basicRating4.response,basicRating4.rt,key_resp_3.keys,key_resp_3.rt,key_resp_4.keys,key_resp_4.rt,mouseResp.x,mouseResp.y,mouseResp.leftButton,mouseResp.midButton,mouseResp.rightButton,mouseResp.time,key_resp_5.keys,key_resp_5.rt,date,group,expName,participant,frameRate,
,,,,,,,,,,,,,,return,33.6231870651,,,,,,,,,,,,,,,,,,,,,2015_Sep_02_1456,A,facesParametric,3,59.5957896651,
./basicStim/34M_SA_C.jpg,,0,0,0,74,,,,,,,,,,,SAD,3.393,None,None,None,None,None,None,,,,,,,,,,,,,2015_Sep_02_1456,A,facesParametric,3,59.5957896651,
./basicStim/01F_FE_O.jpg,,0,1,1,2,,,,,,,,,,,None,None,None,None,SUP,5.736,None,None,,,,,,,,,,,,,2015_Sep_02_1456,A,facesParametric,3,59.5957896651,
./basicStim/24M_DI_O.jpg,,0,2,2,57,,,,,,,,,,,None,None,ANG,9.811,None,None,None,None,,,,,,,,,,,,,2015_Sep_02_1456,A,facesParametric,3,59.5957896651,
./basicStim/24M_SP_O.jpg,,0,3,3,61,,,,,,,,,,,None,None,None,None,SUP,2.555,None,None,,,,,,,,,,,,,2015_Sep_02_1456,A,facesParametric,3,59.5957896651,
./basicStim/02F_DI_O.jpg,,0,4,4,8,,,,,,,,,,,None,None,None,None,DIS,6.495,None,None,,,,,,,,,,,,,2015_Sep_02_1456,A,facesParametric,3,59.5957896651,
./basicStim/24M_SA_C.jpg,,0,5,5,60,,,,,,,,,,,None,None,ANG,14.911,None,None,None,None,,,,,,,,,,,,,2015_Sep_02_1456,A,facesParametric,3,59.5957896651,
./basicStim/34M_HA_O.jpg,,0,6,6,73,,,,,,,,,,,HAP,1.998,None,None,None,None,None,None,,,,,,,,,,,,,2015_Sep_02_1456,A,facesParametric,3,59.5957896651,
./basicStim/07F_SA_C.jpg,,0,7,7,32,,,,,,,,,,,SAD,9.492,None,None,None,None,None,None,,,,,,,,,,,,,2015_Sep_02_1456,A,facesParametric,3,59.5957896651,
./basicStim/21M_DI_O.jpg,,0,8,8,43,,,,,,,,,,,None,None,None,None,DIS,2.468,None,None,,,,,,,,,,,,,2015_Sep_02_1456,A,facesParametric,3,59.5957896651,
./basicStim/07F_SP_O.jpg,,0,9,9,33,,,,,,,,,,,None,None,None,None,SUP,2.415,None,None,,,,,,,,,,,,,2015_Sep_02_1456,A,facesParametric,3,59.5957896651,
./basicStim/07F_FE_O.jpg,,0,10,10,30,,,,,,,,,,,None,None,None,None,SUP,7.995,None,None,,,,,,,,,,,,,2015_Sep_02_1456,A,facesParametric,3,59.5957896651,
./basicStim/24M_AN_O.jpg,,0,11,11,56,,,,,,,,,,,None,None,ANG,8.332,None,None,None,None,,,,,,,,,,,,,2015_Sep_02_1456,A,facesParametric,3,59.5957896651,
./basicStim/34M_AN_O.jpg,,0,12,12,70,,,,,,,,,,,None,None,ANG,1.989,None,None,None,None,,,,,,,,,,,,,2015_Sep_02_1456,A,facesParametric,3,59.5957896651,
./basicStim/01F_NE_C.jpg,,0,13,13,6,,,,,,,,,,,None,None,None,None,None,None,NTR,2.486,,,,,,,,,,,,,2015_Sep_02_1456,A,facesParametric,3,59.5957896651,
./basicStim/36M_SA_C.jpg,,0,14,14,81,,,,,,,,,,,SAD,2.805,None,None,None,None,None,None,,,,,,,,,,,,,2015_Sep_02_1456,A,facesParametric,3,59.5957896651,
./basicStim/34M_SP_O.jpg,,0,15,15,75,,,,,,,,,,,None,None,None,None,SUP,2.134,None,None,,,,,,,,,,,,,2015_Sep_02_1456,A,facesParametric,3,59.5957896651,
./basicStim/24M_FE_O.jpg,,0,16,16,58,,,,,,,,,,,None,None,None,None,DIS,6.33,None,None,,,,,,,,,,,,,2015_Sep_02_1456,A,facesParametric,3,59.5957896651,
./basicStim/03F_NE_C.jpg,,0,17,17,20,,,,,,,,,,,None,None,None,None,None,None,NTR,3.922,,,,,,,,,,,,,2015_Sep_02_1456,A,facesParametric,3,59.5957896651,
./basicStim/07F_DI_O.jpg,,0,18,18,29,,,,,,,,,,,None,None,None,None,DIS,3.219,None,None,,,,,,,,,,,,,2015_Sep_02_1456,A,facesParametric,3,59.5957896651,
./basicStim/06F_HA_O.jpg,,0,19,19,24,,,,,,,,,,,HAP,3.089,None,None,None,None,None,None,,,,,,,,,,,,,2015_Sep_02_1456,A,facesParametric,3,59.5957896651,
./basicStim/28M_NE_C.jpg,,0,20,20,69,,,,,,,,,,,None,None,None,None,None,None,NTR,11.3,,,,,,,,,,,,,2015_Sep_02_1456,A,facesParametric,3,59.5957896651,
./basicStim/07F_HA_O.jpg,,0,21,21,31,,,,,,,,,,,HAP,2.706,None,None,None,None,None,None,,,,,,,,,,,,,2015_Sep_02_1456,A,facesParametric,3,59.5957896651,
./basicStim/21M_NE_C.jpg,,0,22,22,48,,,,,,,,,,,None,None,None,None,None,None,NTR,1.442,,,,,,,,,,,,,2015_Sep_02_1456,A,facesParametric,3,59.5957896651,
./basicStim/09F_SA_C.jpg,,0,23,23,39,,,,,,,,,,,None,None,ANG,0.948,None,None,None,None,,,,,,,,,,,,,2015_Sep_02_1456,A,facesParametric,3,59.5957896651,
./basicStim/09F_AN_O.jpg,,0,24,24,35,,,,,,,,,,,None,None,ANG,3.162,None,None,None,None,,,,,,,,,,,,,2015_Sep_02_1456,A,facesParametric,3,59.5957896651,
./basicStim/01F_SA_C.jpg,,0,25,25,4,,,,,,,,,,,SAD,2.924,None,None,None,None,None,None,,,,,,,,,,,,,2015_Sep_02_1456,A,facesParametric,3,59.5957896651,
./basicStim/03F_DI_O.jpg,,0,26,26,15,,,,,,,,,,,None,None,FEA,5.893,None,None,None,None,,,,,,,,,,,,,2015_Sep_02_1456,A,facesParametric,3,59.5957896651,
./basicStim/06F_SA_C.jpg,,0,27,27,25,,,,,,,,,,,SAD,2.235,None,None,None,None,None,None,,,,,,,,,,,,,2015_Sep_02_1456,A,facesParametric,3,59.5957896651,
./basicStim/24M_NE_C.jpg,,0,28,28,62,,,,,,,,,,,None,None,None,None,None,None,NTR,1.73,,,,,,,,,,,,,2015_Sep_02_1456,A,facesParametric,3,59.5957896651,
./basicStim/36M_SP_O.jpg,,0,29,29,82,,,,,,,,,,,None,None,None,None,SUP,0.791,None,None,,,,,,,,,,,,,2015_Sep_02_1456,A,facesParametric,3,59.5957896651,
./basicStim/23M_SP_O.jpg,,0,30,30,54,,,,,,,,,,,None,None,None,None,SUP,0.708,None,None,,,,,,,,,,,,,2015_Sep_02_1456,A,facesParametric,3,59.5957896651,
./basicStim/02F_FE_O.jpg,,0,31,31,9,,,,,,,,,,,None,None,None,None,SUP,8.674,None,None,,,,,,,,,,,,,2015_Sep_02_1456,A,facesParametric,3,59.5957896651,
./basicStim/02F_HA_O.jpg,,0,32,32,10,,,,,,,,,,,HAP,2.823,None,None,None,None,None,None,,,,,,,,,,,,,2015_Sep_02_1456,A,facesParametric,3,59.5957896651,
./basicStim/28M_SA_C.jpg,,0,33,33,67,,,,,,,,,,,None,None,None,None,SUP,3.937,None,None,,,,,,,,,,,,,2015_Sep_02_1456,A,facesParametric,3,59.5957896651,
./basicStim/23M_HA_O.jpg,,0,34,34,52,,,,,,,,,,,HAP,2.303,None,None,None,None,None,None,,,,,,,,,,,,,2015_Sep_02_1456,A,facesParametric,3,59.5957896651,
./basicStim/06F_AN_O.jpg,,0,35,35,21,,,,,,,,,,,None,None,ANG,5.888,None,None,None,None,,,,,,,,,,,,,2015_Sep_02_1456,A,facesParametric,3,59.5957896651,
./basicStim/02F_SA_C.jpg,,0,36,36,11,,,,,,,,,,,SAD,5.72,None,None,None,None,None,None,,,,,,,,,,,,,2015_Sep_02_1456,A,facesParametric,3,59.5957896651,
./basicStim/21M_AN_O.jpg,,0,37,37,42,,,,,,,,,,,None,None,ANG,1.615,None,None,None,None,,,,,,,,,,,,,2015_Sep_02_1456,A,facesParametric,3,59.5957896651,
./basicStim/28M_AN_O.jpg,,0,38,38,63,,,,,,,,,,,SAD,4.277,None,None,None,None,None,None,,,,,,,,,,,,,2015_Sep_02_1456,A,facesParametric,3,59.5957896651,
./basicStim/01F_SP_O.jpg,,0,39,39,5,,,,,,,,,,,None,None,None,None,SUP,1.109,None,None,,,,,,,,,,,,,2015_Sep_02_1456,A,facesParametric,3,59.5957896651,
./basicStim/01F_HA_O.jpg,,0,40,40,3,,,,,,,,,,,HAP,1.362,None,None,None,None,None,None,,,,,,,,,,,,,2015_Sep_02_1456,A,facesParametric,3,59.5957896651,
./basicStim/28M_SP_O.jpg,,0,41,41,68,,,,,,,,,,,None,None,None,None,SUP,11.332,None,None,,,,,,,,,,,,,2015_Sep_02_1456,A,facesParametric,3,59.5957896651,
./basicStim/24M_HA_O.jpg,,0,42,42,59,,,,,,,,,,,HAP,2.034,None,None,None,None,None,None,,,,,,,,,,,,,2015_Sep_02_1456,A,facesParametric,3,59.5957896651,
./basicStim/21M_FE_O.jpg,,0,43,43,44,,,,,,,,,,,None,None,None,None,SUP,1.009,None,None,,,,,,,,,,,,,2015_Sep_02_1456,A,facesParametric,3,59.5957896651,
./basicStim/09F_DI_O.jpg,,0,44,44,36,,,,,,,,,,,None,None,None,None,DIS,8.754,None,None,,,,,,,,,,,,,2015_Sep_02_1456,A,facesParametric,3,59.5957896651,
./basicStim/34M_NE_C.jpg,,0,45,45,76,,,,,,,,,,,None,None,None,None,None,None,NTR,2.819,,,,,,,,,,,,,2015_Sep_02_1456,A,facesParametric,3,59.5957896651,
./basicStim/23M_SA_C.jpg,,0,46,46,53,,,,,,,,,,,SAD,6.072,None,None,None,None,None,None,,,,,,,,,,,,,2015_Sep_02_1456,A,facesParametric,3,59.5957896651,
./basicStim/09F_NE_C.jpg,,0,47,47,41,,,,,,,,,,,None,None,None,None,None,None,NTR,1.56,,,,,,,,,,,,,2015_Sep_02_1456,A,facesParametric,3,59.5957896651,
./basicStim/34M_FE_O.jpg,,0,48,48,72,,,,,,,,,,,None,None,FEA,10.058,None,None,None,None,,,,,,,,,,,,,2015_Sep_02_1456,A,facesParametric,3,59.5957896651,
./basicStim/02F_SP_O.jpg,,0,49,49,12,,,,,,,,,,,None,None,None,None,SUP,5.822,None,None,,,,,,,,,,,,,2015_Sep_02_1456,A,facesParametric,3,59.5957896651,
./basicStim/07F_AN_O.jpg,,0,50,50,28,,,,,,,,,,,None,None,ANG,5.793,None,None,None,None,,,,,,,,,,,,,2015_Sep_02_1456,A,facesParametric,3,59.5957896651,
./basicStim/21M_HA_O.jpg,,0,51,51,45,,,,,,,,,,,HAP,5.492,None,None,None,None,None,None,,,,,,,,,,,,,2015_Sep_02_1456,A,facesParametric,3,59.5957896651,
./basicStim/01F_DI_O.jpg,,0,52,52,1,,,,,,,,,,,None,None,ANG,8.383,None,None,None,None,,,,,,,,,,,,,2015_Sep_02_1456,A,facesParametric,3,59.5957896651,
./basicStim/23M_NE_C.jpg,,0,53,53,55,,,,,,,,,,,None,None,None,None,None,None,NTR,4.778,,,,,,,,,,,,,2015_Sep_02_1456,A,facesParametric,3,59.5957896651,
./basicStim/36M_HA_O.jpg,,0,54,54,80,,,,,,,,,,,HAP,5.07,None,None,None,None,None,None,,,,,,,,,,,,,2015_Sep_02_1456,A,facesParametric,3,59.5957896651,
./basicStim/23M_DI_O.jpg,,0,55,55,50,,,,,,,,,,,SAD,4.462,None,None,None,None,None,None,,,,,,,,,,,,,2015_Sep_02_1456,A,facesParametric,3,59.5957896651,
./basicStim/03F_SP_O.jpg,,0,56,56,19,,,,,,,,,,,None,None,None,None,SUP,2.454,None,None,,,,,,,,,,,,,2015_Sep_02_1456,A,facesParametric,3,59.5957896651,
./basicStim/36M_DI_O.jpg,,0,57,57,78,,,,,,,,,,,None,None,ANG,4.13,None,None,None,None,,,,,,,,,,,,,2015_Sep_02_1456,A,facesParametric,3,59.5957896651,
./basicStim/09F_FE_O.jpg,,0,58,58,37,,,,,,,,,,,None,None,None,None,SUP,1.193,None,None,,,,,,,,,,,,,2015_Sep_02_1456,A,facesParametric,3,59.5957896651,
./basicStim/02F_NE_C.jpg,,0,59,59,13,,,,,,,,,,,None,None,None,None,None,None,NTR,0.603,,,,,,,,,,,,,2015_Sep_02_1456,A,facesParametric,3,59.5957896651,
./basicStim/34M_DI_O.jpg,,0,60,60,71,,,,,,,,,,,None,None,ANG,4.461,None,None,None,None,,,,,,,,,,,,,2015_Sep_02_1456,A,facesParametric,3,59.5957896651,
./basicStim/21M_SA_C.jpg,,0,61,61,46,,,,,,,,,,,SAD,3.775,None,None,None,None,None,None,,,,,,,,,,,,,2015_Sep_02_1456,A,facesParametric,3,59.5957896651,
./basicStim/07F_NE_C.jpg,,0,62,62,34,,,,,,,,,,,None,None,None,None,SUP,6.627,None,None,,,,,,,,,,,,,2015_Sep_02_1456,A,facesParametric,3,59.5957896651,
./basicStim/28M_FE_O.jpg,,0,63,63,65,,,,,,,,,,,None,None,None,None,SUP,3.544,None,None,,,,,,,,,,,,,2015_Sep_02_1456,A,facesParametric,3,59.5957896651,
./basicStim/36M_FE_O.jpg,,0,64,64,79,,,,,,,,,,,None,None,None,None,SUP,6.809,None,None,,,,,,,,,,,,,2015_Sep_02_1456,A,facesParametric,3,59.5957896651,
./basicStim/21M_SP_O.jpg,,0,65,65,47,,,,,,,,,,,None,None,None,None,SUP,1.202,None,None,,,,,,,,,,,,,2015_Sep_02_1456,A,facesParametric,3,59.5957896651,
./basicStim/06F_SP_O.jpg,,0,66,66,26,,,,,,,,,,,None,None,None,None,SUP,0.504,None,None,,,,,,,,,,,,,2015_Sep_02_1456,A,facesParametric,3,59.5957896651,
./basicStim/06F_NE_C.jpg,,0,67,67,27,,,,,,,,,,,None,None,None,None,None,None,NTR,1.122,,,,,,,,,,,,,2015_Sep_02_1456,A,facesParametric,3,59.5957896651,
./basicStim/09F_SP_O.jpg,,0,68,68,40,,,,,,,,,,,None,None,None,None,SUP,2.871,None,None,,,,,,,,,,,,,2015_Sep_02_1456,A,facesParametric,3,59.5957896651,
./basicStim/36M_AN_O.jpg,,0,69,69,77,,,,,,,,,,,None,None,ANG,1.527,None,None,None,None,,,,,,,,,,,,,2015_Sep_02_1456,A,facesParametric,3,59.5957896651,
./basicStim/09F_HA_O.jpg,,0,70,70,38,,,,,,,,,,,HAP,1.73,None,None,None,None,None,None,,,,,,,,,,,,,2015_Sep_02_1456,A,facesParametric,3,59.5957896651,
./basicStim/06F_DI_O.jpg,,0,71,71,22,,,,,,,,,,,None,None,None,None,DIS,2.287,None,None,,,,,,,,,,,,,2015_Sep_02_1456,A,facesParametric,3,59.5957896651,
./basicStim/03F_FE_O.jpg,,0,72,72,16,,,,,,,,,,,None,None,None,None,SUP,1.344,None,None,,,,,,,,,,,,,2015_Sep_02_1456,A,facesParametric,3,59.5957896651,
./basicStim/01F_AN_O.jpg,,0,73,73,0,,,,,,,,,,,None,None,ANG,2.032,None,None,None,None,,,,,,,,,,,,,2015_Sep_02_1456,A,facesParametric,3,59.5957896651,
./basicStim/28M_DI_O.jpg,,0,74,74,64,,,,,,,,,,,None,None,ANG,2.468,None,None,None,None,,,,,,,,,,,,,2015_Sep_02_1456,A,facesParametric,3,59.5957896651,
./basicStim/23M_FE_O.jpg,,0,75,75,51,,,,,,,,,,,None,None,FEA,4.803,None,None,None,None,,,,,,,,,,,,,2015_Sep_02_1456,A,facesParametric,3,59.5957896651,
./basicStim/02F_AN_O.jpg,,0,76,76,7,,,,,,,,,,,None,None,ANG,2.633,None,None,None,None,,,,,,,,,,,,,2015_Sep_02_1456,A,facesParametric,3,59.5957896651,
./basicStim/03F_SA_C.jpg,,0,77,77,18,,,,,,,,,,,SAD,4.162,None,None,None,None,None,None,,,,,,,,,,,,,2015_Sep_02_1456,A,facesParametric,3,59.5957896651,
./basicStim/03F_HA_O.jpg,,0,78,78,17,,,,,,,,,,,HAP,1.364,None,None,None,None,None,None,,,,,,,,,,,,,2015_Sep_02_1456,A,facesParametric,3,59.5957896651,
./basicStim/28M_HA_O.jpg,,0,79,79,66,,,,,,,,,,,HAP,1.339,None,None,None,None,None,None,,,,,,,,,,,,,2015_Sep_02_1456,A,facesParametric,3,59.5957896651,
./basicStim/06F_FE_O.jpg,,0,80,80,23,,,,,,,,,,,None,None,FEA,3.139,None,None,None,None,,,,,,,,,,,,,2015_Sep_02_1456,A,facesParametric,3,59.5957896651,
./basicStim/23M_AN_O.jpg,,0,81,81,49,,,,,,,,,,,None,None,ANG,1.984,None,None,None,None,,,,,,,,,,,,,2015_Sep_02_1456,A,facesParametric,3,59.5957896651,
./basicStim/03F_AN_O.jpg,,0,82,82,14,,,,,,,,,,,None,None,ANG,6.062,None,None,None,None,,,,,,,,,,,,,2015_Sep_02_1456,A,facesParametric,3,59.5957896651,
./basicStim/36M_NE_C.jpg,,0,83,83,83,,,,,,,,,,,None,None,None,None,None,None,NTR,5.57,,,,,,,,,,,,,2015_Sep_02_1456,A,facesParametric,3,59.5957896651,
,,,,,,,,,,,,,,,,,,,,,,,,return,8.07454204559,,,,,,,,,,,2015_Sep_02_1456,A,facesParametric,3,59.5957896651,
,,,,,,,,,,,,,,return,17.127972126,,,,,,,,,,,,,,,,,,,,,2015_Sep_02_1456,A,facesParametric,3,59.5957896651,
,,,,,,,,,,,,,,,,,,,,,,,,return,16.2232758999,,,,,,,,,,,2015_Sep_02_1456,A,facesParametric,3,59.5957896651,
,,,,,,,,,,,,,,,,,,,,,,,,,,return,7.34066390991,,,,,,,,,2015_Sep_02_1456,A,facesParametric,3,59.5957896651,
./stim/MorphM6_10_orig.jpg,0,,,,,0,0,0,0,,,,,,,,,,,,,,,,,,,11.689453125,-1.552734375,0,0,1,3.74991202354,,,2015_Sep_02_1456,A,facesParametric,3,59.5957896651,
./stim/MorphF9_04_orig.jpg,1,,,,,0,1,1,1,,,,,,,,,,,,,,,,,,,11.689453125,-1.552734375,1,0,0,1.12072491646,,,2015_Sep_02_1456,A,facesParametric,3,59.5957896651,
./stim/MorphM3_03_orig.jpg,2,,,,,0,2,2,2,,,,,,,,,,,,,,,,,,,11.689453125,-1.552734375,1,0,0,1.21980786324,,,2015_Sep_02_1456,A,facesParametric,3,59.5957896651,
./stim/MorphM1_00_orig.jpg,3,,,,,0,3,3,3,,,,,,,,,,,,,,,,,,,11.689453125,-1.552734375,1,0,0,1.62462210655,,,2015_Sep_02_1456,A,facesParametric,3,59.5957896651,
./stim/MorphM6_09_orig.jpg,4,,,,,0,4,4,4,,,,,,,,,,,,,,,,,,,11.689453125,-1.552734375,0,0,1,2.27769184113,,,2015_Sep_02_1456,A,facesParametric,3,59.5957896651,
./stim/MorphM10_02_orig.jpg,5,,,,,0,5,5,5,,,,,,,,,,,,,,,,,,,11.689453125,-1.552734375,1,0,0,2.1268351078,,,2015_Sep_02_1456,A,facesParametric,3,59.5957896651,
./stim/MorphM3_06_orig.jpg,6,,,,,0,6,6,6,,,,,,,,,,,,,,,,,,,11.689453125,-1.552734375,1,0,0,2.04404401779,,,2015_Sep_02_1456,A,facesParametric,3,59.5957896651,
./stim/MorphM7_08_orig.jpg,7,,,,,0,7,7,7,,,,,,,,,,,,,,,,,,,11.689453125,-1.552734375,0,0,1,0.567648887634,,,2015_Sep_02_1456,A,facesParametric,3,59.5957896651,
./stim/MorphM6_04_orig.jpg,8,,,,,0,8,8,8,,,,,,,,,,,,,,,,,,,11.689453125,-1.552734375,1,0,0,0.987099885941,,,2015_Sep_02_1456,A,facesParametric,3,59.5957896651,
./stim/MorphM2_05_orig.jpg,9,,,,,0,9,9,9,,,,,,,,,,,,,,,,,,,11.689453125,-1.552734375,1,0,0,1.06941199303,,,2015_Sep_02_1456,A,facesParametric,3,59.5957896651,
./stim/MorphM3_01_orig.jpg,10,,,,,0,10,10,10,,,,,,,,,,,,,,,,,,,11.689453125,-1.552734375,1,0,0,0.836549043655,,,2015_Sep_02_1456,A,facesParametric,3,59.5957896651,
./stim/MorphF1_03_orig.jpg,11,,,,,0,11,11,11,,,,,,,,,,,,,,,,,,,11.689453125,-1.552734375,1,0,0,0.887179851532,,,2015_Sep_02_1456,A,facesParametric,3,59.5957896651,
./stim/MorphF8_09_orig.jpg,12,,,,,0,12,12,12,,,,,,,,,,,,,,,,,,,11.689453125,-1.552734375,0,0,1,0.651310920715,,,2015_Sep_02_1456,A,facesParametric,3,59.5957896651,
./stim/MorphF3_01_orig.jpg,13,,,,,0,13,13,13,,,,,,,,,,,,,,,,,,,11.689453125,-1.552734375,1,0,0,0.702493906021,,,2015_Sep_02_1456,A,facesParametric,3,59.5957896651,
./stim/MorphF7_03_orig.jpg,14,,,,,0,14,14,14,,,,,,,,,,,,,,,,,,,11.689453125,-1.552734375,0,0,1,0.635617017746,,,2015_Sep_02_1456,A,facesParametric,3,59.5957896651,
./stim/MorphM1_05_orig.jpg,15,,,,,0,15,15,15,,,,,,,,,,,,,,,,,,,11.689453125,-1.552734375,1,0,0,0.6694419384,,,2015_Sep_02_1456,A,facesParametric,3,59.5957896651,
./stim/MorphM5_08_orig.jpg,16,,,,,0,16,16,16,,,,,,,,,,,,,,,,,,,11.689453125,-1.552734375,0,0,1,0.633744955063,,,2015_Sep_02_1456,A,facesParametric,3,59.5957896651,
./stim/MorphF7_01_orig.jpg,17,,,,,0,17,17,17,,,,,,,,,,,,,,,,,,,11.66015625,-1.5234375,1,0,0,1.74201107025,,,2015_Sep_02_1456,A,facesParametric,3,59.5957896651,
./stim/MorphF1_10_orig.jpg,18,,,,,0,18,18,18,,,,,,,,,,,,,,,,,,,11.66015625,-1.5234375,1,0,0,1.06961894035,,,2015_Sep_02_1456,A,facesParametric,3,59.5957896651,
./stim/MorphF9_06_orig.jpg,19,,,,,0,19,19,19,,,,,,,,,,,,,,,,,,,11.66015625,-1.5234375,1,0,0,0.837047100067,,,2015_Sep_02_1456,A,facesParametric,3,59.5957896651,
./stim/MorphM4_00_orig.jpg,20,,,,,0,20,20,20,,,,,,,,,,,,,,,,,,,11.66015625,-1.5234375,1,0,0,1.13843989372,,,2015_Sep_02_1456,A,facesParametric,3,59.5957896651,
./stim/MorphM10_08_orig.jpg,21,,,,,0,21,21,21,,,,,,,,,,,,,,,,,,,11.66015625,-1.5234375,0,0,1,0.518158912659,,,2015_Sep_02_1456,A,facesParametric,3,59.5957896651,
./stim/MorphF8_07_orig.jpg,22,,,,,0,22,22,22,,,,,,,,,,,,,,,,,,,11.66015625,-1.5234375,0,0,1,0.7022960186,,,2015_Sep_02_1456,A,facesParametric,3,59.5957896651,
./stim/MorphF6_02_orig.jpg,23,,,,,0,23,23,23,,,,,,,,,,,,,,,,,,,11.66015625,-1.5234375,0,0,1,0.635497093201,,,2015_Sep_02_1456,A,facesParametric,3,59.5957896651,
./stim/MorphM2_08_orig.jpg,24,,,,,0,24,24,24,,,,,,,,,,,,,,,,,,,11.66015625,-1.5234375,0,0,1,2.52991819382,,,2015_Sep_02_1456,A,facesParametric,3,59.5957896651,
./stim/MorphF9_05_orig.jpg,25,,,,,0,25,25,25,,,,,,,,,,,,,,,,,,,11.66015625,-1.5234375,1,0,0,4.50706505775,,,2015_Sep_02_1456,A,facesParametric,3,59.5957896651,
./stim/MorphF1_08_orig.jpg,26,,,,,0,26,26,26,,,,,,,,,,,,,,,,,,,11.513671875,-2.87109375,1,0,0,4.27250409126,,,2015_Sep_02_1456,A,facesParametric,3,59.5957896651,
./stim/MorphF6_09_orig.jpg,27,,,,,0,27,27,27,,,,,,,,,,,,,,,,,,,11.513671875,-2.87109375,0,0,1,2.12603592873,,,2015_Sep_02_1456,A,facesParametric,3,59.5957896651,
./stim/MorphF2_09_orig.jpg,28,,,,,0,28,28,28,,,,,,,,,,,,,,,,,,,11.513671875,-2.900390625,1,0,0,2.66256093979,,,2015_Sep_02_1456,A,facesParametric,3,59.5957896651,
./stim/MorphF1_04_orig.jpg,29,,,,,0,29,29,29,,,,,,,,,,,,,,,,,,,11.513671875,-2.900390625,1,0,0,0.987679958344,,,2015_Sep_02_1456,A,facesParametric,3,59.5957896651,
./stim/MorphM4_06_orig.jpg,30,,,,,0,30,30,30,,,,,,,,,,,,,,,,,,,11.513671875,-2.900390625,0,0,1,0.970659971237,,,2015_Sep_02_1456,A,facesParametric,3,59.5957896651,
./stim/MorphM5_04_orig.jpg,31,,,,,0,31,31,31,,,,,,,,,,,,,,,,,,,11.513671875,-2.900390625,1,0,0,0.451191902161,,,2015_Sep_02_1456,A,facesParametric,3,59.5957896651,
./stim/MorphF10_02_orig.jpg,32,,,,,0,32,32,32,,,,,,,,,,,,,,,,,,,11.513671875,-2.900390625,1,0,0,2.02676987648,,,2015_Sep_02_1456,A,facesParametric,3,59.5957896651,
./stim/MorphF6_05_orig.jpg,33,,,,,0,33,33,33,,,,,,,,,,,,,,,,,,,11.513671875,-2.900390625,0,0,1,0.887179136276,,,2015_Sep_02_1456,A,facesParametric,3,59.5957896651,
./stim/MorphF8_01_orig.jpg,34,,,,,0,34,34,34,,,,,,,,,,,,,,,,,,,11.513671875,-2.900390625,1,0,0,0.93724489212,,,2015_Sep_02_1456,A,facesParametric,3,59.5957896651,
./stim/MorphM2_06_orig.jpg,35,,,,,0,35,35,35,,,,,,,,,,,,,,,,,,,11.513671875,-2.900390625,1,0,0,5.66364097595,,,2015_Sep_02_1456,A,facesParametric,3,59.5957896651,
./stim/MorphM9_02_orig.jpg,36,,,,,0,36,36,36,,,,,,,,,,,,,,,,,,,11.513671875,-2.900390625,1,0,0,0.819632053375,,,2015_Sep_02_1456,A,facesParametric,3,59.5957896651,
./stim/MorphM5_03_orig.jpg,37,,,,,0,37,37,37,,,,,,,,,,,,,,,,,,,11.513671875,-2.900390625,1,0,0,0.7697057724,,,2015_Sep_02_1456,A,facesParametric,3,59.5957896651,
./stim/MorphM4_01_orig.jpg,38,,,,,0,38,38,38,,,,,,,,,,,,,,,,,,,11.513671875,-2.900390625,1,0,0,0.702399969101,,,2015_Sep_02_1456,A,facesParametric,3,59.5957896651,
./stim/MorphM6_05_orig.jpg,39,,,,,0,39,39,39,,,,,,,,,,,,,,,,,,,11.513671875,-2.9296875,1,0,0,1.42352414131,,,2015_Sep_02_1456,A,facesParametric,3,59.5957896651,
./stim/MorphF4_02_orig.jpg,40,,,,,0,40,40,40,,,,,,,,,,,,,,,,,,,11.513671875,-2.9296875,1,0,0,1.67469191551,,,2015_Sep_02_1456,A,facesParametric,3,59.5957896651,
./stim/MorphM9_03_orig.jpg,41,,,,,0,41,41,41,,,,,,,,,,,,,,,,,,,11.513671875,-2.9296875,1,0,0,0.702404975891,,,2015_Sep_02_1456,A,facesParametric,3,59.5957896651,
./stim/MorphF4_06_orig.jpg,42,,,,,0,42,42,42,,,,,,,,,,,,,,,,,,,11.513671875,-2.9296875,1,0,0,0.618934869766,,,2015_Sep_02_1456,A,facesParametric,3,59.5957896651,
./stim/MorphF5_00_orig.jpg,43,,,,,0,43,43,43,,,,,,,,,,,,,,,,,,,11.484375,-2.958984375,1,0,0,0.685940027237,,,2015_Sep_02_1456,A,facesParametric,3,59.5957896651,
./stim/MorphM7_04_orig.jpg,44,,,,,0,44,44,44,,,,,,,,,,,,,,,,,,,11.484375,-2.958984375,0,0,1,0.60210609436,,,2015_Sep_02_1456,A,facesParametric,3,59.5957896651,
./stim/MorphF1_07_orig.jpg,45,,,,,0,45,45,45,,,,,,,,,,,,,,,,,,,11.484375,-2.958984375,1,0,0,1.3902900219,,,2015_Sep_02_1456,A,facesParametric,3,59.5957896651,
./stim/MorphF7_02_orig.jpg,46,,,,,0,46,46,46,,,,,,,,,,,,,,,,,,,11.484375,-2.958984375,1,0,0,0.516501903534,,,2015_Sep_02_1456,A,facesParametric,3,59.5957896651,
./stim/MorphF3_08_orig.jpg,47,,,,,0,47,47,47,,,,,,,,,,,,,,,,,,,11.484375,-2.958984375,0,0,1,0.719166040421,,,2015_Sep_02_1456,A,facesParametric,3,59.5957896651,
./stim/MorphM4_03_orig.jpg,48,,,,,0,48,48,48,,,,,,,,,,,,,,,,,,,11.484375,-2.958984375,1,0,0,2.67825484276,,,2015_Sep_02_1456,A,facesParametric,3,59.5957896651,
./stim/MorphM7_05_orig.jpg,49,,,,,0,49,49,49,,,,,,,,,,,,,,,,,,,11.484375,-2.958984375,0,0,1,0.97084903717,,,2015_Sep_02_1456,A,facesParametric,3,59.5957896651,
./stim/MorphM4_08_orig.jpg,50,,,,,0,50,50,50,,,,,,,,,,,,,,,,,,,11.484375,-2.958984375,0,0,1,0.819511175156,,,2015_Sep_02_1456,A,facesParametric,3,59.5957896651,
./stim/MorphM2_03_orig.jpg,51,,,,,0,51,51,51,,,,,,,,,,,,,,,,,,,11.484375,-2.958984375,1,0,0,2.51270508766,,,2015_Sep_02_1456,A,facesParametric,3,59.5957896651,
./stim/MorphF3_10_orig.jpg,52,,,,,0,52,52,52,,,,,,,,,,,,,,,,,,,11.484375,-2.958984375,0,0,1,1.54038405418,,,2015_Sep_02_1456,A,facesParametric,3,59.5957896651,
./stim/MorphF6_08_orig.jpg,53,,,,,0,53,53,53,,,,,,,,,,,,,,,,,,,11.484375,-2.958984375,0,0,1,0.903770923615,,,2015_Sep_02_1456,A,facesParametric,3,59.5957896651,
./stim/MorphM3_10_orig.jpg,54,,,,,0,54,54,54,,,,,,,,,,,,,,,,,,,11.484375,-2.958984375,0,0,1,1.32238006592,,,2015_Sep_02_1456,A,facesParametric,3,59.5957896651,
./stim/MorphM10_03_orig.jpg,55,,,,,0,55,55,55,,,,,,,,,,,,,,,,,,,11.484375,-2.958984375,1,0,0,1.92576217651,,,2015_Sep_02_1456,A,facesParametric,3,59.5957896651,
./stim/MorphF2_03_orig.jpg,56,,,,,0,56,56,56,,,,,,,,,,,,,,,,,,,11.484375,-2.958984375,1,0,0,1.97663998604,,,2015_Sep_02_1456,A,facesParametric,3,59.5957896651,
./stim/MorphM7_10_orig.jpg,57,,,,,0,57,57,57,,,,,,,,,,,,,,,,,,,11.484375,-2.958984375,0,0,1,0.820343971252,,,2015_Sep_02_1456,A,facesParametric,3,59.5957896651,
./stim/MorphF8_00_orig.jpg,58,,,,,0,58,58,58,,,,,,,,,,,,,,,,,,,11.484375,-2.958984375,1,0,0,1.17176604271,,,2015_Sep_02_1456,A,facesParametric,3,59.5957896651,
./stim/MorphF7_07_orig.jpg,59,,,,,0,59,59,59,,,,,,,,,,,,,,,,,,,11.484375,-2.958984375,0,0,1,2.39506196976,,,2015_Sep_02_1456,A,facesParametric,3,59.5957896651,
./stim/MorphM8_09_orig.jpg,60,,,,,0,60,60,60,,,,,,,,,,,,,,,,,,,11.484375,-2.958984375,0,0,1,1.28820514679,,,2015_Sep_02_1456,A,facesParametric,3,59.5957896651,
./stim/MorphF5_08_orig.jpg,61,,,,,0,61,61,61,,,,,,,,,,,,,,,,,,,11.484375,-2.958984375,0,0,1,1.4570710659,,,2015_Sep_02_1456,A,facesParametric,3,59.5957896651,
./stim/MorphM8_00_orig.jpg,62,,,,,0,62,62,62,,,,,,,,,,,,,,,,,,,11.484375,-2.958984375,1,0,0,4.17000603676,,,2015_Sep_02_1456,A,facesParametric,3,59.5957896651,
./stim/MorphF4_04_orig.jpg,63,,,,,0,63,63,63,,,,,,,,,,,,,,,,,,,11.484375,-2.958984375,1,0,0,2.02648091316,,,2015_Sep_02_1456,A,facesParametric,3,59.5957896651,
./stim/MorphM8_05_orig.jpg,64,,,,,0,64,64,64,,,,,,,,,,,,,,,,,,,11.484375,-2.958984375,1,0,0,1.95952987671,,,2015_Sep_02_1456,A,facesParametric,3,59.5957896651,
./stim/MorphM1_09_orig.jpg,65,,,,,0,65,65,65,,,,,,,,,,,,,,,,,,,11.484375,-2.958984375,1,0,0,1.07122302055,,,2015_Sep_02_1456,A,facesParametric,3,59.5957896651,
./stim/MorphF8_04_orig.jpg,66,,,,,0,66,66,66,,,,,,,,,,,,,,,,,,,11.484375,-2.958984375,1,0,0,1.0211288929,,,2015_Sep_02_1456,A,facesParametric,3,59.5957896651,
./stim/MorphM10_07_orig.jpg,67,,,,,0,67,67,67,,,,,,,,,,,,,,,,,,,11.484375,-2.958984375,0,0,1,1.22223305702,,,2015_Sep_02_1456,A,facesParametric,3,59.5957896651,
./stim/MorphM5_05_orig.jpg,68,,,,,0,68,68,68,,,,,,,,,,,,,,,,,,,11.484375,-2.958984375,1,0,0,1.2388420105,,,2015_Sep_02_1456,A,facesParametric,3,59.5957896651,
./stim/MorphM3_02_orig.jpg,69,,,,,0,69,69,69,,,,,,,,,,,,,,,,,,,11.484375,-2.958984375,1,0,0,3.09940505028,,,2015_Sep_02_1456,A,facesParametric,3,59.5957896651,
./stim/MorphF2_08_orig.jpg,70,,,,,0,70,70,70,,,,,,,,,,,,,,,,,,,11.484375,-2.958984375,1,0,0,4.17157506943,,,2015_Sep_02_1456,A,facesParametric,3,59.5957896651,
./stim/MorphM5_00_orig.jpg,71,,,,,0,71,71,71,,,,,,,,,,,,,,,,,,,11.484375,-2.958984375,1,0,0,0.786571025848,,,2015_Sep_02_1456,A,facesParametric,3,59.5957896651,
./stim/MorphF6_07_orig.jpg,72,,,,,0,72,72,72,,,,,,,,,,,,,,,,,,,11.484375,-2.958984375,0,0,1,0.92066192627,,,2015_Sep_02_1456,A,facesParametric,3,59.5957896651,
./stim/MorphM7_07_orig.jpg,73,,,,,0,73,73,73,,,,,,,,,,,,,,,,,,,11.484375,-2.958984375,0,0,1,0.534415006638,,,2015_Sep_02_1456,A,facesParametric,3,59.5957896651,
./stim/MorphM4_05_orig.jpg,74,,,,,0,74,74,74,,,,,,,,,,,,,,,,,,,11.42578125,-3.10546875,0,0,1,5.35887312889,,,2015_Sep_02_1456,A,facesParametric,3,59.5957896651,
./stim/MorphF1_02_orig.jpg,75,,,,,0,75,75,75,,,,,,,,,,,,,,,,,,,11.42578125,-3.10546875,1,0,0,0.702242136002,,,2015_Sep_02_1456,A,facesParametric,3,59.5957896651,
./stim/MorphM1_03_orig.jpg,76,,,,,0,76,76,76,,,,,,,,,,,,,,,,,,,11.42578125,-3.10546875,1,0,0,0.852422952652,,,2015_Sep_02_1456,A,facesParametric,3,59.5957896651,
./stim/MorphM6_01_orig.jpg,77,,,,,0,77,77,77,,,,,,,,,,,,,,,,,,,11.42578125,-3.10546875,1,0,0,0.719669818878,,,2015_Sep_02_1456,A,facesParametric,3,59.5957896651,
./stim/MorphF5_05_orig.jpg,78,,,,,0,78,78,78,,,,,,,,,,,,,,,,,,,11.42578125,-3.10546875,1,0,0,0.886821985245,,,2015_Sep_02_1456,A,facesParametric,3,59.5957896651,
./stim/MorphF4_10_orig.jpg,79,,,,,0,79,79,79,,,,,,,,,,,,,,,,,,,11.396484375,-3.076171875,0,0,1,0.686017990112,,,2015_Sep_02_1456,A,facesParametric,3,59.5957896651,
./stim/MorphF9_03_orig.jpg,80,,,,,0,80,80,80,,,,,,,,,,,,,,,,,,,11.396484375,-3.076171875,1,0,0,0.770160913467,,,2015_Sep_02_1456,A,facesParametric,3,59.5957896651,
./stim/MorphM8_04_orig.jpg,81,,,,,0,81,81,81,,,,,,,,,,,,,,,,,,,11.396484375,-3.076171875,1,0,0,1.18836688995,,,2015_Sep_02_1456,A,facesParametric,3,59.5957896651,
./stim/MorphF2_04_orig.jpg,82,,,,,0,82,82,82,,,,,,,,,,,,,,,,,,,11.396484375,-3.076171875,1,0,0,0.752645015717,,,2015_Sep_02_1456,A,facesParametric,3,59.5957896651,
./stim/MorphM10_01_orig.jpg,83,,,,,0,83,83,83,,,,,,,,,,,,,,,,,,,11.396484375,-3.076171875,1,0,0,1.23886799812,,,2015_Sep_02_1456,A,facesParametric,3,59.5957896651,
./stim/MorphF6_10_orig.jpg,84,,,,,0,84,84,84,,,,,,,,,,,,,,,,,,,11.396484375,-3.076171875,0,0,1,0.887362957001,,,2015_Sep_02_1456,A,facesParametric,3,59.5957896651,
./stim/MorphF10_00_orig.jpg,85,,,,,0,85,85,85,,,,,,,,,,,,,,,,,,,11.396484375,-3.076171875,1,0,0,1.87626099586,,,2015_Sep_02_1456,A,facesParametric,3,59.5957896651,
./stim/MorphM10_04_orig.jpg,86,,,,,0,86,86,86,,,,,,,,,,,,,,,,,,,11.396484375,-3.076171875,0,0,1,0.651230096817,,,2015_Sep_02_1456,A,facesParametric,3,59.5957896651,
./stim/MorphM4_07_orig.jpg,87,,,,,0,87,87,87,,,,,,,,,,,,,,,,,,,11.396484375,-3.076171875,0,0,1,0.734381914139,,,2015_Sep_02_1456,A,facesParametric,3,59.5957896651,
./stim/MorphF10_07_orig.jpg,88,,,,,0,88,88,88,,,,,,,,,,,,,,,,,,,11.396484375,-3.076171875,0,0,1,1.05419802666,,,2015_Sep_02_1456,A,facesParametric,3,59.5957896651,
./stim/MorphF8_02_orig.jpg,89,,,,,0,89,89,89,,,,,,,,,,,,,,,,,,,11.3671875,-3.10546875,1,0,0,1.18920183182,,,2015_Sep_02_1456,A,facesParametric,3,59.5957896651,
./stim/MorphM10_06_orig.jpg,90,,,,,0,90,90,90,,,,,,,,,,,,,,,,,,,11.337890625,-3.076171875,0,0,1,0.650957107544,,,2015_Sep_02_1456,A,facesParametric,3,59.5957896651,
./stim/MorphF6_06_orig.jpg,91,,,,,0,91,91,91,,,,,,,,,,,,,,,,,,,11.337890625,-3.076171875,0,0,1,0.819823026657,,,2015_Sep_02_1456,A,facesParametric,3,59.5957896651,
./stim/MorphF2_07_orig.jpg,92,,,,,0,92,92,92,,,,,,,,,,,,,,,,,,,11.30859375,-3.046875,1,0,0,2.9821600914,,,2015_Sep_02_1456,A,facesParametric,3,59.5957896651,
./stim/MorphF3_04_orig.jpg,93,,,,,0,93,93,93,,,,,,,,,,,,,,,,,,,11.30859375,-3.046875,1,0,0,3.30057382584,,,2015_Sep_02_1456,A,facesParametric,3,59.5957896651,
./stim/MorphM10_10_orig.jpg,94,,,,,0,94,94,94,,,,,,,,,,,,,,,,,,,11.30859375,-3.046875,0,0,1,0.952712059021,,,2015_Sep_02_1456,A,facesParametric,3,59.5957896651,
./stim/MorphF3_06_orig.jpg,95,,,,,0,95,95,95,,,,,,,,,,,,,,,,,,,11.279296875,-3.017578125,1,0,0,0.736108064651,,,2015_Sep_02_1456,A,facesParametric,3,59.5957896651,
./stim/MorphM8_06_orig.jpg,96,,,,,0,96,96,96,,,,,,,,,,,,,,,,,,,11.279296875,-3.017578125,1,0,0,0.785811185837,,,2015_Sep_02_1456,A,facesParametric,3,59.5957896651,
./stim/MorphM4_02_orig.jpg,97,,,,,0,97,97,97,,,,,,,,,,,,,,,,,,,11.279296875,-3.017578125,1,0,0,0.868402004242,,,2015_Sep_02_1456,A,facesParametric,3,59.5957896651,
./stim/MorphF9_08_orig.jpg,98,,,,,0,98,98,98,,,,,,,,,,,,,,,,,,,11.279296875,-3.017578125,1,0,0,1.33904099464,,,2015_Sep_02_1456,A,facesParametric,3,59.5957896651,
./stim/MorphF3_07_orig.jpg,99,,,,,0,99,99,99,,,,,,,,,,,,,,,,,,,11.279296875,-3.017578125,1,0,0,4.18769192696,,,2015_Sep_02_1456,A,facesParametric,3,59.5957896651,
./stim/MorphM10_09_orig.jpg,100,,,,,0,100,100,100,,,,,,,,,,,,,,,,,,,11.279296875,-3.017578125,0,0,1,0.669349193573,,,2015_Sep_02_1456,A,facesParametric,3,59.5957896651,
./stim/MorphM4_04_orig.jpg,101,,,,,0,101,101,101,,,,,,,,,,,,,,,,,,,11.279296875,-3.017578125,1,0,0,1.1023709774,,,2015_Sep_02_1456,A,facesParametric,3,59.5957896651,
./stim/MorphM6_07_orig.jpg,102,,,,,0,102,102,102,,,,,,,,,,,,,,,,,,,11.279296875,-3.017578125,1,0,0,0.619132041931,,,2015_Sep_02_1456,A,facesParametric,3,59.5957896651,
./stim/MorphF4_01_orig.jpg,103,,,,,0,103,103,103,,,,,,,,,,,,,,,,,,,11.279296875,-3.017578125,1,0,0,0.601832151413,,,2015_Sep_02_1456,A,facesParametric,3,59.5957896651,
./stim/MorphF10_06_orig.jpg,104,,,,,0,104,104,104,,,,,,,,,,,,,,,,,,,11.279296875,-3.017578125,0,0,1,0.652647018433,,,2015_Sep_02_1456,A,facesParametric,3,59.5957896651,
./stim/MorphM3_00_orig.jpg,105,,,,,0,105,105,105,,,,,,,,,,,,,,,,,,,11.279296875,-3.017578125,1,0,0,0.68480014801,,,2015_Sep_02_1456,A,facesParametric,3,59.5957896651,
./stim/MorphF7_08_orig.jpg,106,,,,,0,106,106,106,,,,,,,,,,,,,,,,,,,11.279296875,-3.017578125,0,0,1,0.786101102829,,,2015_Sep_02_1456,A,facesParametric,3,59.5957896651,
./stim/MorphF1_06_orig.jpg,107,,,,,0,107,107,107,,,,,,,,,,,,,,,,,,,11.279296875,-3.017578125,1,0,0,0.702661991119,,,2015_Sep_02_1456,A,facesParametric,3,59.5957896651,
./stim/MorphM7_02_orig.jpg,108,,,,,0,108,108,108,,,,,,,,,,,,,,,,,,,11.103515625,-3.134765625,1,0,0,4.03789305687,,,2015_Sep_02_1456,A,facesParametric,3,59.5957896651,
./stim/MorphM5_02_orig.jpg,109,,,,,0,109,109,109,,,,,,,,,,,,,,,,,,,11.103515625,-3.134765625,1,0,0,1.25569701195,,,2015_Sep_02_1456,A,facesParametric,3,59.5957896651,
./stim/MorphM6_08_orig.jpg,110,,,,,0,110,110,110,,,,,,,,,,,,,,,,,,,11.103515625,-3.134765625,1,0,0,0.80340385437,,,2015_Sep_02_1456,A,facesParametric,3,59.5957896651,
./stim/MorphF6_01_orig.jpg,111,,,,,0,111,111,111,,,,,,,,,,,,,,,,,,,11.103515625,-3.134765625,1,0,0,1.72470498085,,,2015_Sep_02_1456,A,facesParametric,3,59.5957896651,
./stim/MorphM3_08_orig.jpg,112,,,,,0,112,112,112,,,,,,,,,,,,,,,,,,,11.103515625,-3.134765625,0,0,1,1.07169914246,,,2015_Sep_02_1456,A,facesParametric,3,59.5957896651,
./stim/MorphF2_06_orig.jpg,113,,,,,0,113,113,113,,,,,,,,,,,,,,,,,,,11.103515625,-3.134765625,0,0,1,2.61407208443,,,2015_Sep_02_1456,A,facesParametric,3,59.5957896651,
./stim/MorphM9_05_orig.jpg,114,,,,,0,114,114,114,,,,,,,,,,,,,,,,,,,11.103515625,-3.134765625,1,0,0,1.69092202187,,,2015_Sep_02_1456,A,facesParametric,3,59.5957896651,
./stim/MorphM7_06_orig.jpg,115,,,,,0,115,115,115,,,,,,,,,,,,,,,,,,,11.103515625,-3.134765625,0,0,1,0.685503959656,,,2015_Sep_02_1456,A,facesParametric,3,59.5957896651,
./stim/MorphF7_00_orig.jpg,116,,,,,0,116,116,116,,,,,,,,,,,,,,,,,,,22.880859375,-2.548828125,1,0,0,3.23117089272,,,2015_Sep_02_1456,A,facesParametric,3,59.5957896651,
./stim/MorphM7_00_orig.jpg,117,,,,,0,117,117,117,,,,,,,,,,,,,,,,,,,21.474609375,-3.28125,1,0,0,1.03783798218,,,2015_Sep_02_1456,A,facesParametric,3,59.5957896651,
./stim/MorphM6_02_orig.jpg,118,,,,,0,118,118,118,,,,,,,,,,,,,,,,,,,21.38671875,-3.33984375,1,0,0,3.16679596901,,,2015_Sep_02_1456,A,facesParametric,3,59.5957896651,
./stim/MorphF7_04_orig.jpg,119,,,,,0,119,119,119,,,,,,,,,,,,,,,,,,,21.09375,-3.1640625,0,0,1,1.80901288986,,,2015_Sep_02_1456,A,facesParametric,3,59.5957896651,
./stim/MorphF4_00_orig.jpg,120,,,,,0,120,120,120,,,,,,,,,,,,,,,,,,,20.91796875,-3.076171875,1,0,0,0.734589099884,,,2015_Sep_02_1456,A,facesParametric,3,59.5957896651,
./stim/MorphF9_07_orig.jpg,121,,,,,0,121,121,121,,,,,,,,,,,,,,,,,,,20.91796875,-2.98828125,1,0,0,3.43438506126,,,2015_Sep_02_1456,A,facesParametric,3,59.5957896651,
./stim/MorphF4_05_orig.jpg,122,,,,,0,122,122,122,,,,,,,,,,,,,,,,,,,20.91796875,-2.98828125,1,0,0,0.702616930008,,,2015_Sep_02_1456,A,facesParametric,3,59.5957896651,
./stim/MorphF5_10_orig.jpg,123,,,,,0,123,123,123,,,,,,,,,,,,,,,,,,,20.91796875,-2.98828125,1,0,0,0.903742074966,,,2015_Sep_02_1456,A,facesParametric,3,59.5957896651,
./stim/MorphM9_06_orig.jpg,124,,,,,0,124,124,124,,,,,,,,,,,,,,,,,,,20.91796875,-2.98828125,1,0,0,0.769926071167,,,2015_Sep_02_1456,A,facesParametric,3,59.5957896651,
./stim/MorphF1_00_orig.jpg,125,,,,,0,125,125,125,,,,,,,,,,,,,,,,,,,20.91796875,-2.98828125,1,0,0,0.718883991241,,,2015_Sep_02_1456,A,facesParametric,3,59.5957896651,
./stim/MorphF5_07_orig.jpg,126,,,,,0,126,126,126,,,,,,,,,,,,,,,,,,,20.91796875,-2.98828125,1,0,0,1.15490889549,,,2015_Sep_02_1456,A,facesParametric,3,59.5957896651,
./stim/MorphM6_06_orig.jpg,127,,,,,0,127,127,127,,,,,,,,,,,,,,,,,,,21.6796875,-9.814453125,1,0,0,10.6585869789,,,2015_Sep_02_1456,A,facesParametric,3,59.5957896651,
./stim/MorphF2_00_orig.jpg,128,,,,,0,128,128,128,,,,,,,,,,,,,,,,,,,21.943359375,-9.375,1,0,0,2.14389514923,,,2015_Sep_02_1456,A,facesParametric,3,59.5957896651,
./stim/MorphM6_03_orig.jpg,129,,,,,0,129,129,129,,,,,,,,,,,,,,,,,,,22.822265625,-8.90625,1,0,0,0.836874961853,,,2015_Sep_02_1456,A,facesParametric,3,59.5957896651,
./stim/MorphM3_04_orig.jpg,130,,,,,0,130,130,130,,,,,,,,,,,,,,,,,,,22.734375,-8.84765625,1,0,0,1.65606212616,,,2015_Sep_02_1456,A,facesParametric,3,59.5957896651,
./stim/MorphM8_01_orig.jpg,131,,,,,0,131,131,131,,,,,,,,,,,,,,,,,,,22.587890625,-8.84765625,1,0,0,1.65831494331,,,2015_Sep_02_1456,A,facesParametric,3,59.5957896651,
./stim/MorphM1_06_orig.jpg,132,,,,,0,132,132,132,,,,,,,,,,,,,,,,,,,22.55859375,-8.876953125,1,0,0,0.887060880661,,,2015_Sep_02_1456,A,facesParametric,3,59.5957896651,
./stim/MorphM2_09_orig.jpg,133,,,,,0,133,133,133,,,,,,,,,,,,,,,,,,,22.6171875,-9.169921875,0,0,1,4.3561770916,,,2015_Sep_02_1456,A,facesParametric,3,59.5957896651,
./stim/MorphF2_01_orig.jpg,134,,,,,0,134,134,134,,,,,,,,,,,,,,,,,,,23.408203125,-8.583984375,1,0,0,3.2490170002,,,2015_Sep_02_1456,A,facesParametric,3,59.5957896651,
./stim/MorphM5_01_orig.jpg,135,,,,,0,135,135,135,,,,,,,,,,,,,,,,,,,23.173828125,-8.759765625,1,0,0,2.47814702988,,,2015_Sep_02_1456,A,facesParametric,3,59.5957896651,
./stim/MorphF8_03_orig.jpg,136,,,,,0,136,136,136,,,,,,,,,,,,,,,,,,,23.408203125,-7.03125,1,0,0,8.14221692085,,,2015_Sep_02_1456,A,facesParametric,3,59.5957896651,
./stim/MorphF10_03_orig.jpg,137,,,,,0,137,137,137,,,,,,,,,,,,,,,,,,,-0.87890625,-9.4921875,1,0,0,2.83104991913,,,2015_Sep_02_1456,A,facesParametric,3,59.5957896651,
./stim/MorphM7_09_orig.jpg,138,,,,,0,138,138,138,,,,,,,,,,,,,,,,,,,-0.87890625,-9.4921875,0,0,1,0.585590839386,,,2015_Sep_02_1456,A,facesParametric,3,59.5957896651,
./stim/MorphM9_00_orig.jpg,139,,,,,0,139,139,139,,,,,,,,,,,,,,,,,,,0.8203125,-8.818359375,1,0,0,3.81744408607,,,2015_Sep_02_1456,A,facesParametric,3,59.5957896651,
./stim/MorphM3_05_orig.jpg,140,,,,,0,140,140,140,,,,,,,,,,,,,,,,,,,0.87890625,-8.935546875,1,0,0,1.05462098122,,,2015_Sep_02_1456,A,facesParametric,3,59.5957896651,
./stim/MorphM1_07_orig.jpg,141,,,,,0,141,141,141,,,,,,,,,,,,,,,,,,,0.908203125,-8.96484375,1,0,0,0.820103883743,,,2015_Sep_02_1456,A,facesParametric,3,59.5957896651,
./stim/MorphM9_07_orig.jpg,142,,,,,0,142,142,142,,,,,,,,,,,,,,,,,,,1.11328125,-9.19921875,1,0,0,4.22234201431,,,2015_Sep_02_1456,A,facesParametric,3,59.5957896651,
./stim/MorphF3_03_orig.jpg,143,,,,,0,143,143,143,,,,,,,,,,,,,,,,,,,1.11328125,-9.19921875,1,0,0,2.54646587372,,,2015_Sep_02_1456,A,facesParametric,3,59.5957896651,
./stim/MorphF4_07_orig.jpg,144,,,,,0,144,144,144,,,,,,,,,,,,,,,,,,,1.11328125,-9.19921875,1,0,0,0.837966918945,,,2015_Sep_02_1456,A,facesParametric,3,59.5957896651,
./stim/MorphM2_10_orig.jpg,145,,,,,0,145,145,145,,,,,,,,,,,,,,,,,,,1.11328125,-9.19921875,0,0,1,0.565150976181,,,2015_Sep_02_1456,A,facesParametric,3,59.5957896651,
./stim/MorphF7_06_orig.jpg,146,,,,,0,146,146,146,,,,,,,,,,,,,,,,,,,1.11328125,-9.19921875,0,0,1,0.987668037415,,,2015_Sep_02_1456,A,facesParametric,3,59.5957896651,
./stim/MorphM8_02_orig.jpg,147,,,,,0,147,147,147,,,,,,,,,,,,,,,,,,,1.142578125,-9.228515625,1,0,0,1.94287204742,,,2015_Sep_02_1456,A,facesParametric,3,59.5957896651,
./stim/MorphF3_05_orig.jpg,148,,,,,0,148,148,148,,,,,,,,,,,,,,,,,,,1.142578125,-9.228515625,1,0,0,0.920515060425,,,2015_Sep_02_1456,A,facesParametric,3,59.5957896651,
./stim/MorphF6_04_orig.jpg,149,,,,,0,149,149,149,,,,,,,,,,,,,,,,,,,1.142578125,-9.228515625,1,0,0,3.1319360733,,,2015_Sep_02_1456,A,facesParametric,3,59.5957896651,
./stim/MorphM4_10_orig.jpg,150,,,,,0,150,150,150,,,,,,,,,,,,,,,,,,,1.142578125,-9.228515625,0,0,1,0.970340013504,,,2015_Sep_02_1456,A,facesParametric,3,59.5957896651,
./stim/MorphF10_08_orig.jpg,151,,,,,0,151,151,151,,,,,,,,,,,,,,,,,,,1.142578125,-9.228515625,0,0,1,0.753037929535,,,2015_Sep_02_1456,A,facesParametric,3,59.5957896651,
./stim/MorphF5_02_orig.jpg,152,,,,,0,152,152,152,,,,,,,,,,,,,,,,,,,1.142578125,-9.228515625,1,0,0,0.785183191299,,,2015_Sep_02_1456,A,facesParametric,3,59.5957896651,
./stim/MorphF1_05_orig.jpg,153,,,,,0,153,153,153,,,,,,,,,,,,,,,,,,,1.142578125,-9.228515625,1,0,0,0.969697952271,,,2015_Sep_02_1456,A,facesParametric,3,59.5957896651,
./stim/MorphF9_09_orig.jpg,154,,,,,0,154,154,154,,,,,,,,,,,,,,,,,,,1.142578125,-9.228515625,1,0,0,1.32170605659,,,2015_Sep_02_1456,A,facesParametric,3,59.5957896651,
./stim/MorphF5_03_orig.jpg,155,,,,,0,155,155,155,,,,,,,,,,,,,,,,,,,0.908203125,-9.052734375,1,0,0,3.31580805779,,,2015_Sep_02_1456,A,facesParametric,3,59.5957896651,
./stim/MorphF4_03_orig.jpg,156,,,,,0,156,156,156,,,,,,,,,,,,,,,,,,,0.908203125,-9.0234375,1,0,0,0.836610078812,,,2015_Sep_02_1456,A,facesParametric,3,59.5957896651,
./stim/MorphF5_01_orig.jpg,157,,,,,0,157,157,157,,,,,,,,,,,,,,,,,,,0.908203125,-9.0234375,1,0,0,0.684215068817,,,2015_Sep_02_1456,A,facesParametric,3,59.5957896651,
./stim/MorphM1_01_orig.jpg,158,,,,,0,158,158,158,,,,,,,,,,,,,,,,,,,0.908203125,-9.0234375,1,0,0,0.970195055008,,,2015_Sep_02_1456,A,facesParametric,3,59.5957896651,
./stim/MorphF9_02_orig.jpg,159,,,,,0,159,159,159,,,,,,,,,,,,,,,,,,,0.908203125,-9.0234375,1,0,0,0.651468992233,,,2015_Sep_02_1456,A,facesParametric,3,59.5957896651,
./stim/MorphF2_02_orig.jpg,160,,,,,0,160,160,160,,,,,,,,,,,,,,,,,,,0.908203125,-9.0234375,1,0,0,1.15493083,,,2015_Sep_02_1456,A,facesParametric,3,59.5957896651,
./stim/MorphM8_10_orig.jpg,161,,,,,0,161,161,161,,,,,,,,,,,,,,,,,,,0.908203125,-9.0234375,0,0,1,0.937366962433,,,2015_Sep_02_1456,A,facesParametric,3,59.5957896651,
./stim/MorphM1_10_orig.jpg,162,,,,,0,162,162,162,,,,,,,,,,,,,,,,,,,0.9375,-8.994140625,0,0,1,0.633450031281,,,2015_Sep_02_1456,A,facesParametric,3,59.5957896651,
./stim/MorphF10_04_orig.jpg,163,,,,,0,163,163,163,,,,,,,,,,,,,,,,,,,0.9375,-8.994140625,1,0,0,4.50681900978,,,2015_Sep_02_1456,A,facesParametric,3,59.5957896651,
./stim/MorphF3_00_orig.jpg,164,,,,,0,164,164,164,,,,,,,,,,,,,,,,,,,0.9375,-8.994140625,1,0,0,0.618822097778,,,2015_Sep_02_1456,A,facesParametric,3,59.5957896651,
./stim/MorphM2_07_orig.jpg,165,,,,,0,165,165,165,,,,,,,,,,,,,,,,,,,0.9375,-8.994140625,1,0,0,1.52442789078,,,2015_Sep_02_1456,A,facesParametric,3,59.5957896651,
./stim/MorphF7_05_orig.jpg,166,,,,,0,166,166,166,,,,,,,,,,,,,,,,,,,0.9375,-8.994140625,0,0,1,1.02053904533,,,2015_Sep_02_1456,A,facesParametric,3,59.5957896651,
./stim/MorphF6_03_orig.jpg,167,,,,,0,167,167,167,,,,,,,,,,,,,,,,,,,0.966796875,-8.994140625,1,0,0,1.45692610741,,,2015_Sep_02_1456,A,facesParametric,3,59.5957896651,
./stim/MorphF3_02_orig.jpg,168,,,,,0,168,168,168,,,,,,,,,,,,,,,,,,,0.966796875,-8.994140625,1,0,0,1.0543680191,,,2015_Sep_02_1456,A,facesParametric,3,59.5957896651,
./stim/MorphF1_01_orig.jpg,169,,,,,0,169,169,169,,,,,,,,,,,,,,,,,,,0.966796875,-8.994140625,1,0,0,0.585675954819,,,2015_Sep_02_1456,A,facesParametric,3,59.5957896651,
./stim/MorphM1_04_orig.jpg,170,,,,,0,170,170,170,,,,,,,,,,,,,,,,,,,0.498046875,-8.759765625,1,0,0,3.55150508881,,,2015_Sep_02_1456,A,facesParametric,3,59.5957896651,
./stim/MorphF4_09_orig.jpg,171,,,,,0,171,171,171,,,,,,,,,,,,,,,,,,,1.0546875,-8.408203125,1,0,0,3.35114192963,,,2015_Sep_02_1456,A,facesParametric,3,59.5957896651,
./stim/MorphM6_00_orig.jpg,172,,,,,0,172,172,172,,,,,,,,,,,,,,,,,,,1.0546875,-8.408203125,1,0,0,0.568495988846,,,2015_Sep_02_1456,A,facesParametric,3,59.5957896651,
./stim/MorphM5_09_orig.jpg,173,,,,,0,173,173,173,,,,,,,,,,,,,,,,,,,1.0546875,-8.37890625,0,0,1,1.05229711533,,,2015_Sep_02_1456,A,facesParametric,3,59.5957896651,
./stim/MorphF5_06_orig.jpg,174,,,,,0,174,174,174,,,,,,,,,,,,,,,,,,,1.0546875,-8.37890625,1,0,0,0.684480905533,,,2015_Sep_02_1456,A,facesParametric,3,59.5957896651,
./stim/MorphF9_01_orig.jpg,175,,,,,0,175,175,175,,,,,,,,,,,,,,,,,,,1.0546875,-8.37890625,1,0,0,0.81992816925,,,2015_Sep_02_1456,A,facesParametric,3,59.5957896651,
./stim/MorphM5_07_orig.jpg,176,,,,,0,176,176,176,,,,,,,,,,,,,,,,,,,0.87890625,-8.642578125,0,0,1,1.59098696709,,,2015_Sep_02_1456,A,facesParametric,3,59.5957896651,
./stim/MorphM2_01_orig.jpg,177,,,,,0,177,177,177,,,,,,,,,,,,,,,,,,,0.791015625,-8.701171875,1,0,0,0.903880834579,,,2015_Sep_02_1456,A,facesParametric,3,59.5957896651,
./stim/MorphM7_03_orig.jpg,178,,,,,0,178,178,178,,,,,,,,,,,,,,,,,,,0.791015625,-8.701171875,0,0,1,1.23883795738,,,2015_Sep_02_1456,A,facesParametric,3,59.5957896651,
./stim/MorphM9_09_orig.jpg,179,,,,,0,179,179,179,,,,,,,,,,,,,,,,,,,0.76171875,-8.701171875,0,0,1,0.73631978035,,,2015_Sep_02_1456,A,facesParametric,3,59.5957896651,
./stim/MorphF9_10_orig.jpg,180,,,,,0,180,180,180,,,,,,,,,,,,,,,,,,,0.76171875,-8.701171875,0,0,1,0.768532991409,,,2015_Sep_02_1456,A,facesParametric,3,59.5957896651,
./stim/MorphF8_10_orig.jpg,181,,,,,0,181,181,181,,,,,,,,,,,,,,,,,,,0.76171875,-8.701171875,0,0,1,0.719221830368,,,2015_Sep_02_1456,A,facesParametric,3,59.5957896651,
./stim/MorphF10_10_orig.jpg,182,,,,,0,182,182,182,,,,,,,,,,,,,,,,,,,0.76171875,-8.701171875,0,0,1,0.635706186295,,,2015_Sep_02_1456,A,facesParametric,3,59.5957896651,
./stim/MorphM3_09_orig.jpg,183,,,,,0,183,183,183,,,,,,,,,,,,,,,,,,,0.64453125,-8.7890625,0,0,1,0.71827507019,,,2015_Sep_02_1456,A,facesParametric,3,59.5957896651,
./stim/MorphF10_05_orig.jpg,184,,,,,0,184,184,184,,,,,,,,,,,,,,,,,,,0.64453125,-8.7890625,0,0,1,0.618244171143,,,2015_Sep_02_1456,A,facesParametric,3,59.5957896651,
./stim/MorphF6_00_orig.jpg,185,,,,,0,185,185,185,,,,,,,,,,,,,,,,,,,0.64453125,-8.7890625,1,0,0,0.902094841003,,,2015_Sep_02_1456,A,facesParametric,3,59.5957896651,
./stim/MorphF8_08_orig.jpg,186,,,,,0,186,186,186,,,,,,,,,,,,,,,,,,,0.64453125,-8.7890625,0,0,1,0.753144025803,,,2015_Sep_02_1456,A,facesParametric,3,59.5957896651,
./stim/MorphF7_10_orig.jpg,187,,,,,0,187,187,187,,,,,,,,,,,,,,,,,,,0.615234375,-8.583984375,0,0,1,1.58850288391,,,2015_Sep_02_1456,A,facesParametric,3,59.5957896651,
./stim/MorphM9_10_orig.jpg,188,,,,,0,188,188,188,,,,,,,,,,,,,,,,,,,0.615234375,-8.5546875,0,0,1,0.753359079361,,,2015_Sep_02_1456,A,facesParametric,3,59.5957896651,
./stim/MorphM10_05_orig.jpg,189,,,,,0,189,189,189,,,,,,,,,,,,,,,,,,,0.615234375,-8.5546875,1,0,0,0.702519178391,,,2015_Sep_02_1456,A,facesParametric,3,59.5957896651,
./stim/MorphM8_03_orig.jpg,190,,,,,0,190,190,190,,,,,,,,,,,,,,,,,,,0.615234375,-8.5546875,1,0,0,3.43413090706,,,2015_Sep_02_1456,A,facesParametric,3,59.5957896651,
./stim/MorphF2_10_orig.jpg,191,,,,,0,191,191,191,,,,,,,,,,,,,,,,,,,0.615234375,-8.5546875,0,0,1,0.787518024445,,,2015_Sep_02_1456,A,facesParametric,3,59.5957896651,
./stim/MorphM1_02_orig.jpg,192,,,,,0,192,192,192,,,,,,,,,,,,,,,,,,,0.615234375,-8.5546875,1,0,0,1.20513010025,,,2015_Sep_02_1456,A,facesParametric,3,59.5957896651,
./stim/MorphM4_09_orig.jpg,193,,,,,0,193,193,193,,,,,,,,,,,,,,,,,,,0.703125,-8.4375,0,0,1,2.88036680222,,,2015_Sep_02_1456,A,facesParametric,3,59.5957896651,
./stim/MorphM8_07_orig.jpg,194,,,,,0,194,194,194,,,,,,,,,,,,,,,,,,,0.703125,-8.4375,0,0,1,1.0179810524,,,2015_Sep_02_1456,A,facesParametric,3,59.5957896651,
./stim/MorphM1_08_orig.jpg,195,,,,,0,195,195,195,,,,,,,,,,,,,,,,,,,0.703125,-8.4375,0,0,1,1.54056096077,,,2015_Sep_02_1456,A,facesParametric,3,59.5957896651,
./stim/MorphF4_08_orig.jpg,196,,,,,0,196,196,196,,,,,,,,,,,,,,,,,,,0.703125,-8.4375,0,0,1,0.786700963974,,,2015_Sep_02_1456,A,facesParametric,3,59.5957896651,
./stim/MorphM9_04_orig.jpg,197,,,,,0,197,197,197,,,,,,,,,,,,,,,,,,,0.703125,-8.4375,1,0,0,1.1193318367,,,2015_Sep_02_1456,A,facesParametric,3,59.5957896651,
./stim/MorphF1_09_orig.jpg,198,,,,,0,198,198,198,,,,,,,,,,,,,,,,,,,0.703125,-8.4375,1,0,0,1.13775110245,,,2015_Sep_02_1456,A,facesParametric,3,59.5957896651,
./stim/MorphM9_08_orig.jpg,199,,,,,0,199,199,199,,,,,,,,,,,,,,,,,,,0.703125,-8.4375,0,0,1,0.870847940445,,,2015_Sep_02_1456,A,facesParametric,3,59.5957896651,
./stim/MorphF10_01_orig.jpg,200,,,,,0,200,200,200,,,,,,,,,,,,,,,,,,,0.703125,-8.4375,1,0,0,1.54041194916,,,2015_Sep_02_1456,A,facesParametric,3,59.5957896651,
./stim/MorphM10_00_orig.jpg,201,,,,,0,201,201,201,,,,,,,,,,,,,,,,,,,0.703125,-8.4375,1,0,0,1.64090895653,,,2015_Sep_02_1456,A,facesParametric,3,59.5957896651,
./stim/MorphM2_00_orig.jpg,202,,,,,0,202,202,202,,,,,,,,,,,,,,,,,,,0.703125,-8.4375,1,0,0,1.12198901176,,,2015_Sep_02_1456,A,facesParametric,3,59.5957896651,
./stim/MorphM9_01_orig.jpg,203,,,,,0,203,203,203,,,,,,,,,,,,,,,,,,,0.703125,-8.4375,1,0,0,0.700575113297,,,2015_Sep_02_1456,A,facesParametric,3,59.5957896651,
./stim/MorphF7_09_orig.jpg,204,,,,,0,204,204,204,,,,,,,,,,,,,,,,,,,0.703125,-8.4375,1,0,0,0.650322914124,,,2015_Sep_02_1456,A,facesParametric,3,59.5957896651,
./stim/MorphF9_00_orig.jpg,205,,,,,0,205,205,205,,,,,,,,,,,,,,,,,,,18.80859375,2.63671875,1,0,0,10.2722449303,,,2015_Sep_02_1456,A,facesParametric,3,59.5957896651,
./stim/MorphM2_02_orig.jpg,206,,,,,0,206,206,206,,,,,,,,,,,,,,,,,,,19.013671875,2.666015625,1,0,0,1.69128990173,,,2015_Sep_02_1456,A,facesParametric,3,59.5957896651,
./stim/MorphF8_05_orig.jpg,207,,,,,0,207,207,207,,,,,,,,,,,,,,,,,,,19.130859375,2.6953125,0,0,1,1.08620595932,,,2015_Sep_02_1456,A,facesParametric,3,59.5957896651,
./stim/MorphF3_09_orig.jpg,208,,,,,0,208,208,208,,,,,,,,,,,,,,,,,,,19.072265625,2.63671875,0,0,1,1.03791713715,,,2015_Sep_02_1456,A,facesParametric,3,59.5957896651,
./stim/MorphM5_10_orig.jpg,209,,,,,0,209,209,209,,,,,,,,,,,,,,,,,,,19.1015625,2.87109375,0,0,1,1.8086411953,,,2015_Sep_02_1456,A,facesParametric,3,59.5957896651,
./stim/MorphM8_08_orig.jpg,210,,,,,0,210,210,210,,,,,,,,,,,,,,,,,,,18.603515625,1.845703125,0,0,1,2.48014497757,,,2015_Sep_02_1456,A,facesParametric,3,59.5957896651,
./stim/MorphM3_07_orig.jpg,211,,,,,0,211,211,211,,,,,,,,,,,,,,,,,,,18.69140625,1.962890625,1,0,0,2.59356999397,,,2015_Sep_02_1456,A,facesParametric,3,59.5957896651,
./stim/MorphM5_06_orig.jpg,212,,,,,0,212,212,212,,,,,,,,,,,,,,,,,,,18.837890625,2.05078125,0,0,1,1.00454497337,,,2015_Sep_02_1456,A,facesParametric,3,59.5957896651,
./stim/MorphF5_09_orig.jpg,213,,,,,0,213,213,213,,,,,,,,,,,,,,,,,,,18.720703125,2.021484375,0,0,1,0.803051948547,,,2015_Sep_02_1456,A,facesParametric,3,59.5957896651,
./stim/MorphF8_06_orig.jpg,214,,,,,0,214,214,214,,,,,,,,,,,,,,,,,,,18.662109375,2.021484375,0,0,1,1.17223000526,,,2015_Sep_02_1456,A,facesParametric,3,59.5957896651,
./stim/MorphF5_04_orig.jpg,215,,,,,0,215,215,215,,,,,,,,,,,,,,,,,,,19.423828125,2.314453125,1,0,0,2.94608807564,,,2015_Sep_02_1456,A,facesParametric,3,59.5957896651,
./stim/MorphM2_04_orig.jpg,216,,,,,0,216,216,216,,,,,,,,,,,,,,,,,,,19.453125,2.314453125,1,0,0,0.803205013275,,,2015_Sep_02_1456,A,facesParametric,3,59.5957896651,
./stim/MorphF2_05_orig.jpg,217,,,,,0,217,217,217,,,,,,,,,,,,,,,,,,,19.453125,2.314453125,0,0,1,0.702804088593,,,2015_Sep_02_1456,A,facesParametric,3,59.5957896651,
./stim/MorphM7_01_orig.jpg,218,,,,,0,218,218,218,,,,,,,,,,,,,,,,,,,19.482421875,2.724609375,1,0,0,1.92606091499,,,2015_Sep_02_1456,A,facesParametric,3,59.5957896651,
./stim/MorphF10_09_orig.jpg,219,,,,,0,219,219,219,,,,,,,,,,,,,,,,,,,19.453125,2.724609375,0,0,1,0.668756961823,,,2015_Sep_02_1456,A,facesParametric,3,59.5957896651,
,,,,,,,,,,,,,,,,,,,,,,,,,,,,,,,,,,return,12.4861080647,2015_Sep_02_1456,A,facesParametric,3,59.5957896651,
./stim/MorphM6_10_orig.jpg,0,,,,,,,,,0,0,0,0,,,,,,,,,,,,,,,19.013671875,11.953125,0,0,1,2.64949393272,,,2015_Sep_02_1456,A,facesParametric,3,59.5957896651,
./stim/MorphF9_04_orig.jpg,1,,,,,,,,,0,1,1,1,,,,,,,,,,,,,,,19.130859375,12.099609375,1,0,0,1.0203499794,,,2015_Sep_02_1456,A,facesParametric,3,59.5957896651,
./stim/MorphM3_03_orig.jpg,2,,,,,,,,,0,2,2,2,,,,,,,,,,,,,,,19.130859375,12.158203125,1,0,0,1.17188501358,,,2015_Sep_02_1456,A,facesParametric,3,59.5957896651,
./stim/MorphM1_00_orig.jpg,3,,,,,,,,,0,3,3,3,,,,,,,,,,,,,,,19.130859375,12.1875,1,0,0,0.770045995712,,,2015_Sep_02_1456,A,facesParametric,3,59.5957896651,
./stim/MorphM6_09_orig.jpg,4,,,,,,,,,0,4,4,4,,,,,,,,,,,,,,,19.1015625,12.24609375,0,0,1,1.50713801384,,,2015_Sep_02_1456,A,facesParametric,3,59.5957896651,
./stim/MorphM10_02_orig.jpg,5,,,,,,,,,0,5,5,5,,,,,,,,,,,,,,,19.21875,12.216796875,1,0,0,4.40637397766,,,2015_Sep_02_1456,A,facesParametric,3,59.5957896651,
./stim/MorphM3_06_orig.jpg,6,,,,,,,,,0,6,6,6,,,,,,,,,,,,,,,19.21875,12.216796875,1,0,0,0.937479019165,,,2015_Sep_02_1456,A,facesParametric,3,59.5957896651,
./stim/MorphM7_08_orig.jpg,7,,,,,,,,,0,7,7,7,,,,,,,,,,,,,,,19.306640625,12.216796875,0,0,1,0.651148080826,,,2015_Sep_02_1456,A,facesParametric,3,59.5957896651,
./stim/MorphM6_04_orig.jpg,8,,,,,,,,,0,8,8,8,,,,,,,,,,,,,,,19.16015625,12.158203125,1,0,0,1.44078207016,,,2015_Sep_02_1456,A,facesParametric,3,59.5957896651,
./stim/MorphM2_05_orig.jpg,9,,,,,,,,,0,9,9,9,,,,,,,,,,,,,,,19.16015625,12.158203125,1,0,0,0.970051050186,,,2015_Sep_02_1456,A,facesParametric,3,59.5957896651,
./stim/MorphM3_01_orig.jpg,10,,,,,,,,,0,10,10,10,,,,,,,,,,,,,,,19.189453125,12.12890625,1,0,0,0.803107976913,,,2015_Sep_02_1456,A,facesParametric,3,59.5957896651,
./stim/MorphF1_03_orig.jpg,11,,,,,,,,,0,11,11,11,,,,,,,,,,,,,,,19.189453125,12.12890625,1,0,0,0.635577917099,,,2015_Sep_02_1456,A,facesParametric,3,59.5957896651,
./stim/MorphF8_09_orig.jpg,12,,,,,,,,,0,12,12,12,,,,,,,,,,,,,,,19.248046875,12.12890625,0,0,1,3.6852209568,,,2015_Sep_02_1456,A,facesParametric,3,59.5957896651,
./stim/MorphF3_01_orig.jpg,13,,,,,,,,,0,13,13,13,,,,,,,,,,,,,,,19.248046875,12.12890625,1,0,0,1.67432999611,,,2015_Sep_02_1456,A,facesParametric,3,59.5957896651,
./stim/MorphF7_03_orig.jpg,14,,,,,,,,,0,14,14,14,,,,,,,,,,,,,,,19.248046875,12.12890625,0,0,1,1.39013695717,,,2015_Sep_02_1456,A,facesParametric,3,59.5957896651,
./stim/MorphM1_05_orig.jpg,15,,,,,,,,,0,15,15,15,,,,,,,,,,,,,,,19.21875,12.099609375,1,0,0,0.853397846222,,,2015_Sep_02_1456,A,facesParametric,3,59.5957896651,
./stim/MorphM5_08_orig.jpg,16,,,,,,,,,0,16,16,16,,,,,,,,,,,,,,,19.189453125,12.0703125,0,0,1,0.719447851181,,,2015_Sep_02_1456,A,facesParametric,3,59.5957896651,
./stim/MorphF7_01_orig.jpg,17,,,,,,,,,0,17,17,17,,,,,,,,,,,,,,,19.189453125,12.0703125,1,0,0,2.6465690136,,,2015_Sep_02_1456,A,facesParametric,3,59.5957896651,
./stim/MorphF1_10_orig.jpg,18,,,,,,,,,0,18,18,18,,,,,,,,,,,,,,,19.16015625,12.0703125,1,0,0,1.08822584152,,,2015_Sep_02_1456,A,facesParametric,3,59.5957896651,
./stim/MorphF9_06_orig.jpg,19,,,,,,,,,0,19,19,19,,,,,,,,,,,,,,,19.130859375,12.0703125,1,0,0,0.803082942963,,,2015_Sep_02_1456,A,facesParametric,3,59.5957896651,
./stim/MorphM4_00_orig.jpg,20,,,,,,,,,0,20,20,20,,,,,,,,,,,,,,,19.130859375,12.0703125,1,0,0,0.668566942215,,,2015_Sep_02_1456,A,facesParametric,3,59.5957896651,
./stim/MorphM10_08_orig.jpg,21,,,,,,,,,0,21,21,21,,,,,,,,,,,,,,,19.072265625,12.041015625,0,0,1,0.652455091476,,,2015_Sep_02_1456,A,facesParametric,3,59.5957896651,
./stim/MorphF8_07_orig.jpg,22,,,,,,,,,0,22,22,22,,,,,,,,,,,,,,,19.072265625,12.041015625,0,0,1,0.601899147034,,,2015_Sep_02_1456,A,facesParametric,3,59.5957896651,
./stim/MorphF6_02_orig.jpg,23,,,,,,,,,0,23,23,23,,,,,,,,,,,,,,,19.1015625,12.01171875,0,0,1,0.568888902664,,,2015_Sep_02_1456,A,facesParametric,3,59.5957896651,
./stim/MorphM2_08_orig.jpg,24,,,,,,,,,0,24,24,24,,,,,,,,,,,,,,,19.1015625,12.01171875,0,0,1,0.585233926773,,,2015_Sep_02_1456,A,facesParametric,3,59.5957896651,
./stim/MorphF9_05_orig.jpg,25,,,,,,,,,0,25,25,25,,,,,,,,,,,,,,,19.04296875,11.953125,1,0,0,3.85366201401,,,2015_Sep_02_1456,A,facesParametric,3,59.5957896651,
./stim/MorphF1_08_orig.jpg,26,,,,,,,,,0,26,26,26,,,,,,,,,,,,,,,19.04296875,11.953125,1,0,0,0.853507041931,,,2015_Sep_02_1456,A,facesParametric,3,59.5957896651,
./stim/MorphF6_09_orig.jpg,27,,,,,,,,,0,27,27,27,,,,,,,,,,,,,,,19.072265625,11.923828125,0,0,1,0.583417892456,,,2015_Sep_02_1456,A,facesParametric,3,59.5957896651,
./stim/MorphF2_09_orig.jpg,28,,,,,,,,,0,28,28,28,,,,,,,,,,,,,,,19.072265625,11.923828125,0,0,1,0.534706115723,,,2015_Sep_02_1456,A,facesParametric,3,59.5957896651,
./stim/MorphF1_04_orig.jpg,29,,,,,,,,,0,29,29,29,,,,,,,,,,,,,,,19.013671875,11.865234375,1,0,0,8.02648591995,,,2015_Sep_02_1456,A,facesParametric,3,59.5957896651,
./stim/MorphM4_06_orig.jpg,30,,,,,,,,,0,30,30,30,,,,,,,,,,,,,,,19.013671875,11.865234375,1,0,0,0.802532911301,,,2015_Sep_02_1456,A,facesParametric,3,59.5957896651,
./stim/MorphM5_04_orig.jpg,31,,,,,,,,,0,31,31,31,,,,,,,,,,,,,,,19.013671875,11.865234375,1,0,0,1.27169513702,,,2015_Sep_02_1456,A,facesParametric,3,59.5957896651,
./stim/MorphF10_02_orig.jpg,32,,,,,,,,,0,32,32,32,,,,,,,,,,,,,,,19.04296875,11.806640625,1,0,0,6.30035114288,,,2015_Sep_02_1456,A,facesParametric,3,59.5957896651,
./stim/MorphF6_05_orig.jpg,33,,,,,,,,,0,33,33,33,,,,,,,,,,,,,,,19.04296875,11.806640625,0,0,1,0.736044168472,,,2015_Sep_02_1456,A,facesParametric,3,59.5957896651,
./stim/MorphF8_01_orig.jpg,34,,,,,,,,,0,34,34,34,,,,,,,,,,,,,,,19.04296875,11.806640625,0,0,1,1.25551390648,,,2015_Sep_02_1456,A,facesParametric,3,59.5957896651,
./stim/MorphM2_06_orig.jpg,35,,,,,,,,,0,35,35,35,,,,,,,,,,,,,,,19.013671875,11.8359375,1,0,0,1.37342000008,,,2015_Sep_02_1456,A,facesParametric,3,59.5957896651,
./stim/MorphM9_02_orig.jpg,36,,,,,,,,,0,36,36,36,,,,,,,,,,,,,,,19.04296875,11.8359375,1,0,0,1.33777618408,,,2015_Sep_02_1456,A,facesParametric,3,59.5957896651,
./stim/MorphM5_03_orig.jpg,37,,,,,,,,,0,37,37,37,,,,,,,,,,,,,,,19.1015625,11.77734375,1,0,0,1.15496706963,,,2015_Sep_02_1456,A,facesParametric,3,59.5957896651,
./stim/MorphM4_01_orig.jpg,38,,,,,,,,,0,38,38,38,,,,,,,,,,,,,,,19.04296875,11.6015625,1,0,0,0.735982894897,,,2015_Sep_02_1456,A,facesParametric,3,59.5957896651,
./stim/MorphM6_05_orig.jpg,39,,,,,,,,,0,39,39,39,,,,,,,,,,,,,,,19.072265625,11.66015625,1,0,0,2.37873601913,,,2015_Sep_02_1456,A,facesParametric,3,59.5957896651,
./stim/MorphF4_02_orig.jpg,40,,,,,,,,,0,40,40,40,,,,,,,,,,,,,,,19.27734375,11.54296875,1,0,0,0.702574014664,,,2015_Sep_02_1456,A,facesParametric,3,59.5957896651,
./stim/MorphM9_03_orig.jpg,41,,,,,,,,,0,41,41,41,,,,,,,,,,,,,,,19.27734375,11.513671875,1,0,0,0.652596950531,,,2015_Sep_02_1456,A,facesParametric,3,59.5957896651,
./stim/MorphF4_06_orig.jpg,42,,,,,,,,,0,42,42,42,,,,,,,,,,,,,,,19.04296875,11.513671875,1,0,0,0.969567060471,,,2015_Sep_02_1456,A,facesParametric,3,59.5957896651,
./stim/MorphF5_00_orig.jpg,43,,,,,,,,,0,43,43,43,,,,,,,,,,,,,,,18.779296875,11.455078125,1,0,0,1.02034306526,,,2015_Sep_02_1456,A,facesParametric,3,59.5957896651,
./stim/MorphM7_04_orig.jpg,44,,,,,,,,,0,44,44,44,,,,,,,,,,,,,,,18.955078125,11.396484375,0,0,1,1.35533714294,,,2015_Sep_02_1456,A,facesParametric,3,59.5957896651,
./stim/MorphF1_07_orig.jpg,45,,,,,,,,,0,45,45,45,,,,,,,,,,,,,,,18.8671875,11.337890625,0,0,1,1.60689806938,,,2015_Sep_02_1456,A,facesParametric,3,59.5957896651,
./stim/MorphF7_02_orig.jpg,46,,,,,,,,,0,46,46,46,,,,,,,,,,,,,,,18.80859375,11.30859375,0,0,1,1.45700502396,,,2015_Sep_02_1456,A,facesParametric,3,59.5957896651,
./stim/MorphF3_08_orig.jpg,47,,,,,,,,,0,47,47,47,,,,,,,,,,,,,,,18.80859375,11.279296875,0,0,1,0.836551904678,,,2015_Sep_02_1456,A,facesParametric,3,59.5957896651,
./stim/MorphM4_03_orig.jpg,48,,,,,,,,,0,48,48,48,,,,,,,,,,,,,,,18.837890625,11.30859375,1,0,0,1.74216580391,,,2015_Sep_02_1456,A,facesParametric,3,59.5957896651,
./stim/MorphM7_05_orig.jpg,49,,,,,,,,,0,49,49,49,,,,,,,,,,,,,,,18.837890625,11.337890625,0,0,1,0.60107088089,,,2015_Sep_02_1456,A,facesParametric,3,59.5957896651,
./stim/MorphM4_08_orig.jpg,50,,,,,,,,,0,50,50,50,,,,,,,,,,,,,,,18.603515625,11.220703125,0,0,1,0.685590982437,,,2015_Sep_02_1456,A,facesParametric,3,59.5957896651,
./stim/MorphM2_03_orig.jpg,51,,,,,,,,,0,51,51,51,,,,,,,,,,,,,,,18.603515625,11.162109375,1,0,0,1.05550479889,,,2015_Sep_02_1456,A,facesParametric,3,59.5957896651,
./stim/MorphF3_10_orig.jpg,52,,,,,,,,,0,52,52,52,,,,,,,,,,,,,,,18.662109375,11.162109375,0,0,1,0.936732053757,,,2015_Sep_02_1456,A,facesParametric,3,59.5957896651,
./stim/MorphF6_08_orig.jpg,53,,,,,,,,,0,53,53,53,,,,,,,,,,,,,,,18.662109375,11.162109375,0,0,1,0.669139862061,,,2015_Sep_02_1456,A,facesParametric,3,59.5957896651,
./stim/MorphM3_10_orig.jpg,54,,,,,,,,,0,54,54,54,,,,,,,,,,,,,,,18.720703125,11.1328125,1,0,0,11.0434191227,,,2015_Sep_02_1456,A,facesParametric,3,59.5957896651,
./stim/MorphM10_03_orig.jpg,55,,,,,,,,,0,55,55,55,,,,,,,,,,,,,,,18.720703125,11.19140625,1,0,0,1.79161405563,,,2015_Sep_02_1456,A,facesParametric,3,59.5957896651,
./stim/MorphF2_03_orig.jpg,56,,,,,,,,,0,56,56,56,,,,,,,,,,,,,,,18.75,11.19140625,1,0,0,5.68041014671,,,2015_Sep_02_1456,A,facesParametric,3,59.5957896651,
./stim/MorphM7_10_orig.jpg,57,,,,,,,,,0,57,57,57,,,,,,,,,,,,,,,18.75,11.19140625,0,0,1,1.77465486526,,,2015_Sep_02_1456,A,facesParametric,3,59.5957896651,
./stim/MorphF8_00_orig.jpg,58,,,,,,,,,0,58,58,58,,,,,,,,,,,,,,,15.703125,7.08984375,1,0,0,7.92611598969,,,2015_Sep_02_1456,A,facesParametric,3,59.5957896651,
./stim/MorphF7_07_orig.jpg,59,,,,,,,,,0,59,59,59,,,,,,,,,,,,,,,16.81640625,7.03125,0,0,1,1.30617809296,,,2015_Sep_02_1456,A,facesParametric,3,59.5957896651,
./stim/MorphM8_09_orig.jpg,60,,,,,,,,,0,60,60,60,,,,,,,,,,,,,,,16.81640625,7.03125,0,0,1,0.870303869247,,,2015_Sep_02_1456,A,facesParametric,3,59.5957896651,
./stim/MorphF5_08_orig.jpg,61,,,,,,,,,0,61,61,61,,,,,,,,,,,,,,,16.787109375,7.060546875,0,0,1,0.786853075027,,,2015_Sep_02_1456,A,facesParametric,3,59.5957896651,
./stim/MorphM8_00_orig.jpg,62,,,,,,,,,0,62,62,62,,,,,,,,,,,,,,,16.787109375,7.060546875,1,0,0,0.887578010559,,,2015_Sep_02_1456,A,facesParametric,3,59.5957896651,
./stim/MorphF4_04_orig.jpg,63,,,,,,,,,0,63,63,63,,,,,,,,,,,,,,,16.81640625,7.08984375,1,0,0,0.936330795288,,,2015_Sep_02_1456,A,facesParametric,3,59.5957896651,
./stim/MorphM8_05_orig.jpg,64,,,,,,,,,0,64,64,64,,,,,,,,,,,,,,,16.81640625,7.08984375,1,0,0,0.852373123169,,,2015_Sep_02_1456,A,facesParametric,3,59.5957896651,
./stim/MorphM1_09_orig.jpg,65,,,,,,,,,0,65,65,65,,,,,,,,,,,,,,,16.81640625,7.08984375,0,0,1,0.920212030411,,,2015_Sep_02_1456,A,facesParametric,3,59.5957896651,
./stim/MorphF8_04_orig.jpg,66,,,,,,,,,0,66,66,66,,,,,,,,,,,,,,,16.81640625,7.08984375,0,0,1,1.85754799843,,,2015_Sep_02_1456,A,facesParametric,3,59.5957896651,
./stim/MorphM10_07_orig.jpg,67,,,,,,,,,0,67,67,67,,,,,,,,,,,,,,,16.81640625,7.08984375,0,0,1,0.719265937805,,,2015_Sep_02_1456,A,facesParametric,3,59.5957896651,
./stim/MorphM5_05_orig.jpg,68,,,,,,,,,0,68,68,68,,,,,,,,,,,,,,,16.81640625,7.08984375,1,0,0,0.669287919998,,,2015_Sep_02_1456,A,facesParametric,3,59.5957896651,
./stim/MorphM3_02_orig.jpg,69,,,,,,,,,0,69,69,69,,,,,,,,,,,,,,,16.875,7.060546875,1,0,0,1.17102789879,,,2015_Sep_02_1456,A,facesParametric,3,59.5957896651,
./stim/MorphF2_08_orig.jpg,70,,,,,,,,,0,70,70,70,,,,,,,,,,,,,,,16.875,7.060546875,0,0,1,1.15627884865,,,2015_Sep_02_1456,A,facesParametric,3,59.5957896651,
./stim/MorphM5_00_orig.jpg,71,,,,,,,,,0,71,71,71,,,,,,,,,,,,,,,16.875,7.060546875,1,0,0,1.99207091331,,,2015_Sep_02_1456,A,facesParametric,3,59.5957896651,
./stim/MorphF6_07_orig.jpg,72,,,,,,,,,0,72,72,72,,,,,,,,,,,,,,,16.904296875,7.119140625,0,0,1,0.753309011459,,,2015_Sep_02_1456,A,facesParametric,3,59.5957896651,
./stim/MorphM7_07_orig.jpg,73,,,,,,,,,0,73,73,73,,,,,,,,,,,,,,,16.904296875,7.119140625,0,0,1,0.534873962402,,,2015_Sep_02_1456,A,facesParametric,3,59.5957896651,
./stim/MorphM4_05_orig.jpg,74,,,,,,,,,0,74,74,74,,,,,,,,,,,,,,,16.904296875,7.119140625,0,0,1,0.80317401886,,,2015_Sep_02_1456,A,facesParametric,3,59.5957896651,
./stim/MorphF1_02_orig.jpg,75,,,,,,,,,0,75,75,75,,,,,,,,,,,,,,,17.109375,7.177734375,1,0,0,2.22724199295,,,2015_Sep_02_1456,A,facesParametric,3,59.5957896651,
./stim/MorphM1_03_orig.jpg,76,,,,,,,,,0,76,76,76,,,,,,,,,,,,,,,17.109375,7.177734375,1,0,0,0.702776908875,,,2015_Sep_02_1456,A,facesParametric,3,59.5957896651,
./stim/MorphM6_01_orig.jpg,77,,,,,,,,,0,77,77,77,,,,,,,,,,,,,,,17.138671875,7.1484375,1,0,0,2.04320502281,,,2015_Sep_02_1456,A,facesParametric,3,59.5957896651,
./stim/MorphF5_05_orig.jpg,78,,,,,,,,,0,78,78,78,,,,,,,,,,,,,,,17.138671875,7.1484375,1,0,0,0.651295900345,,,2015_Sep_02_1456,A,facesParametric,3,59.5957896651,
./stim/MorphF4_10_orig.jpg,79,,,,,,,,,0,79,79,79,,,,,,,,,,,,,,,17.138671875,7.1484375,0,0,1,0.66840004921,,,2015_Sep_02_1456,A,facesParametric,3,59.5957896651,
./stim/MorphF9_03_orig.jpg,80,,,,,,,,,0,80,80,80,,,,,,,,,,,,,,,17.138671875,7.1484375,1,0,0,0.650317907333,,,2015_Sep_02_1456,A,facesParametric,3,59.5957896651,
./stim/MorphM8_04_orig.jpg,81,,,,,,,,,0,81,81,81,,,,,,,,,,,,,,,17.138671875,7.1484375,0,0,1,0.635761022568,,,2015_Sep_02_1456,A,facesParametric,3,59.5957896651,
./stim/MorphF2_04_orig.jpg,82,,,,,,,,,0,82,82,82,,,,,,,,,,,,,,,17.138671875,7.1484375,0,0,1,1.05469202995,,,2015_Sep_02_1456,A,facesParametric,3,59.5957896651,
./stim/MorphM10_01_orig.jpg,83,,,,,,,,,0,83,83,83,,,,,,,,,,,,,,,17.138671875,7.1484375,1,0,0,0.987322092056,,,2015_Sep_02_1456,A,facesParametric,3,59.5957896651,
./stim/MorphF6_10_orig.jpg,84,,,,,,,,,0,84,84,84,,,,,,,,,,,,,,,17.138671875,7.1484375,0,0,1,0.668795824051,,,2015_Sep_02_1456,A,facesParametric,3,59.5957896651,
./stim/MorphF10_00_orig.jpg,85,,,,,,,,,0,85,85,85,,,,,,,,,,,,,,,17.138671875,7.1484375,1,0,0,0.770035028458,,,2015_Sep_02_1456,A,facesParametric,3,59.5957896651,
./stim/MorphM10_04_orig.jpg,86,,,,,,,,,0,86,86,86,,,,,,,,,,,,,,,17.138671875,7.1484375,0,0,1,1.90864396095,,,2015_Sep_02_1456,A,facesParametric,3,59.5957896651,
./stim/MorphM4_07_orig.jpg,87,,,,,,,,,0,87,87,87,,,,,,,,,,,,,,,17.138671875,7.1484375,0,0,1,1.00454306602,,,2015_Sep_02_1456,A,facesParametric,3,59.5957896651,
./stim/MorphF10_07_orig.jpg,88,,,,,,,,,0,88,88,88,,,,,,,,,,,,,,,17.138671875,7.1484375,0,0,1,0.652288198471,,,2015_Sep_02_1456,A,facesParametric,3,59.5957896651,
./stim/MorphF8_02_orig.jpg,89,,,,,,,,,0,89,89,89,,,,,,,,,,,,,,,17.138671875,7.1484375,1,0,0,0.903871059418,,,2015_Sep_02_1456,A,facesParametric,3,59.5957896651,
./stim/MorphM10_06_orig.jpg,90,,,,,,,,,0,90,90,90,,,,,,,,,,,,,,,17.138671875,7.1484375,0,0,1,0.651295900345,,,2015_Sep_02_1456,A,facesParametric,3,59.5957896651,
./stim/MorphF6_06_orig.jpg,91,,,,,,,,,0,91,91,91,,,,,,,,,,,,,,,17.138671875,7.1484375,0,0,1,1.13841199875,,,2015_Sep_02_1456,A,facesParametric,3,59.5957896651,
./stim/MorphF2_07_orig.jpg,92,,,,,,,,,0,92,92,92,,,,,,,,,,,,,,,17.138671875,7.1484375,0,0,1,0.820081949234,,,2015_Sep_02_1456,A,facesParametric,3,59.5957896651,
./stim/MorphF3_04_orig.jpg,93,,,,,,,,,0,93,93,93,,,,,,,,,,,,,,,17.138671875,7.1484375,1,0,0,2.94831299782,,,2015_Sep_02_1456,A,facesParametric,3,59.5957896651,
./stim/MorphM10_10_orig.jpg,94,,,,,,,,,0,94,94,94,,,,,,,,,,,,,,,17.138671875,7.1484375,0,0,1,0.751930952072,,,2015_Sep_02_1456,A,facesParametric,3,59.5957896651,
./stim/MorphF3_06_orig.jpg,95,,,,,,,,,0,95,95,95,,,,,,,,,,,,,,,17.138671875,7.1484375,1,0,0,1.59108304977,,,2015_Sep_02_1456,A,facesParametric,3,59.5957896651,
./stim/MorphM8_06_orig.jpg,96,,,,,,,,,0,96,96,96,,,,,,,,,,,,,,,17.138671875,7.1484375,1,0,0,1.3056910038,,,2015_Sep_02_1456,A,facesParametric,3,59.5957896651,
./stim/MorphM4_02_orig.jpg,97,,,,,,,,,0,97,97,97,,,,,,,,,,,,,,,17.138671875,7.1484375,1,0,0,1.20533108711,,,2015_Sep_02_1456,A,facesParametric,3,59.5957896651,
./stim/MorphF9_08_orig.jpg,98,,,,,,,,,0,98,98,98,,,,,,,,,,,,,,,17.109375,7.177734375,1,0,0,3.56750798225,,,2015_Sep_02_1456,A,facesParametric,3,59.5957896651,
./stim/MorphF3_07_orig.jpg,99,,,,,,,,,0,99,99,99,,,,,,,,,,,,,,,16.58203125,7.44140625,0,0,1,2.59649991989,,,2015_Sep_02_1456,A,facesParametric,3,59.5957896651,
./stim/MorphM10_09_orig.jpg,100,,,,,,,,,0,100,100,100,,,,,,,,,,,,,,,16.58203125,7.44140625,0,0,1,0.718955993652,,,2015_Sep_02_1456,A,facesParametric,3,59.5957896651,
./stim/MorphM4_04_orig.jpg,101,,,,,,,,,0,101,101,101,,,,,,,,,,,,,,,16.552734375,7.470703125,0,0,1,1.11893606186,,,2015_Sep_02_1456,A,facesParametric,3,59.5957896651,
./stim/MorphM6_07_orig.jpg,102,,,,,,,,,0,102,102,102,,,,,,,,,,,,,,,15.99609375,7.822265625,1,0,0,11.4126110077,,,2015_Sep_02_1456,A,facesParametric,3,59.5957896651,
./stim/MorphF4_01_orig.jpg,103,,,,,,,,,0,103,103,103,,,,,,,,,,,,,,,15.703125,8.203125,1,0,0,0.66793513298,,,2015_Sep_02_1456,A,facesParametric,3,59.5957896651,
./stim/MorphF10_06_orig.jpg,104,,,,,,,,,0,104,104,104,,,,,,,,,,,,,,,14.853515625,8.5546875,0,0,1,1.022108078,,,2015_Sep_02_1456,A,facesParametric,3,59.5957896651,
./stim/MorphM3_00_orig.jpg,105,,,,,,,,,0,105,105,105,,,,,,,,,,,,,,,17.28515625,9.7265625,1,0,0,7.03638696671,,,2015_Sep_02_1456,A,facesParametric,3,59.5957896651,
./stim/MorphF7_08_orig.jpg,106,,,,,,,,,0,106,106,106,,,,,,,,,,,,,,,17.28515625,9.7265625,1,0,0,0.820550203323,,,2015_Sep_02_1456,A,facesParametric,3,59.5957896651,
./stim/MorphF1_06_orig.jpg,107,,,,,,,,,0,107,107,107,,,,,,,,,,,,,,,17.28515625,9.7265625,1,0,0,2.79772400856,,,2015_Sep_02_1456,A,facesParametric,3,59.5957896651,
./stim/MorphM7_02_orig.jpg,108,,,,,,,,,0,108,108,108,,,,,,,,,,,,,,,17.431640625,9.609375,0,0,1,0.971347093582,,,2015_Sep_02_1456,A,facesParametric,3,59.5957896651,
./stim/MorphM5_02_orig.jpg,109,,,,,,,,,0,109,109,109,,,,,,,,,,,,,,,17.431640625,9.609375,1,0,0,1.28968191147,,,2015_Sep_02_1456,A,facesParametric,3,59.5957896651,
./stim/MorphM6_08_orig.jpg,110,,,,,,,,,0,110,110,110,,,,,,,,,,,,,,,15.439453125,5.302734375,1,0,0,3.41820693016,,,2015_Sep_02_1456,A,facesParametric,3,59.5957896651,
./stim/MorphF6_01_orig.jpg,111,,,,,,,,,0,111,111,111,,,,,,,,,,,,,,,15.703125,4.8046875,1,0,0,1.6747610569,,,2015_Sep_02_1456,A,facesParametric,3,59.5957896651,
./stim/MorphM3_08_orig.jpg,112,,,,,,,,,0,112,112,112,,,,,,,,,,,,,,,15.703125,4.8046875,1,0,0,0.803177833557,,,2015_Sep_02_1456,A,facesParametric,3,59.5957896651,
./stim/MorphF2_06_orig.jpg,113,,,,,,,,,0,113,113,113,,,,,,,,,,,,,,,15.703125,4.8046875,0,0,1,0.618904829025,,,2015_Sep_02_1456,A,facesParametric,3,59.5957896651,
./stim/MorphM9_05_orig.jpg,114,,,,,,,,,0,114,114,114,,,,,,,,,,,,,,,15.673828125,4.775390625,1,0,0,2.06048488617,,,2015_Sep_02_1456,A,facesParametric,3,59.5957896651,
./stim/MorphM7_06_orig.jpg,115,,,,,,,,,0,115,115,115,,,,,,,,,,,,,,,15.791015625,5.068359375,0,0,1,0.684054136276,,,2015_Sep_02_1456,A,facesParametric,3,59.5957896651,
./stim/MorphF7_00_orig.jpg,116,,,,,,,,,0,116,116,116,,,,,,,,,,,,,,,15.791015625,5.068359375,1,0,0,0.769082784653,,,2015_Sep_02_1456,A,facesParametric,3,59.5957896651,
./stim/MorphM7_00_orig.jpg,117,,,,,,,,,0,117,117,117,,,,,,,,,,,,,,,15.791015625,5.068359375,1,0,0,0.886976003647,,,2015_Sep_02_1456,A,facesParametric,3,59.5957896651,
./stim/MorphM6_02_orig.jpg,118,,,,,,,,,0,118,118,118,,,,,,,,,,,,,,,15.791015625,5.068359375,1,0,0,3.23319292068,,,2015_Sep_02_1456,A,facesParametric,3,59.5957896651,
./stim/MorphF7_04_orig.jpg,119,,,,,,,,,0,119,119,119,,,,,,,,,,,,,,,15.791015625,5.068359375,0,0,1,2.5469918251,,,2015_Sep_02_1456,A,facesParametric,3,59.5957896651,
./stim/MorphF4_00_orig.jpg,120,,,,,,,,,0,120,120,120,,,,,,,,,,,,,,,15.791015625,5.068359375,1,0,0,0.817545175552,,,2015_Sep_02_1456,A,facesParametric,3,59.5957896651,
./stim/MorphF9_07_orig.jpg,121,,,,,,,,,0,121,121,121,,,,,,,,,,,,,,,15.76171875,5.09765625,0,0,1,0.669116020203,,,2015_Sep_02_1456,A,facesParametric,3,59.5957896651,
./stim/MorphF4_05_orig.jpg,122,,,,,,,,,0,122,122,122,,,,,,,,,,,,,,,15.76171875,5.09765625,1,0,0,1.28743600845,,,2015_Sep_02_1456,A,facesParametric,3,59.5957896651,
./stim/MorphF5_10_orig.jpg,123,,,,,,,,,0,123,123,123,,,,,,,,,,,,,,,15.76171875,5.09765625,0,0,1,0.736629962921,,,2015_Sep_02_1456,A,facesParametric,3,59.5957896651,
./stim/MorphM9_06_orig.jpg,124,,,,,,,,,0,124,124,124,,,,,,,,,,,,,,,15.76171875,5.09765625,0,0,1,1.32103896141,,,2015_Sep_02_1456,A,facesParametric,3,59.5957896651,
./stim/MorphF1_00_orig.jpg,125,,,,,,,,,0,125,125,125,,,,,,,,,,,,,,,15.732421875,5.068359375,1,0,0,2.07687711716,,,2015_Sep_02_1456,A,facesParametric,3,59.5957896651,
./stim/MorphF5_07_orig.jpg,126,,,,,,,,,0,126,126,126,,,,,,,,,,,,,,,15.732421875,5.068359375,0,0,1,0.92070889473,,,2015_Sep_02_1456,A,facesParametric,3,59.5957896651,
./stim/MorphM6_06_orig.jpg,127,,,,,,,,,0,127,127,127,,,,,,,,,,,,,,,15.673828125,5.068359375,0,0,1,3.01613211632,,,2015_Sep_02_1456,A,facesParametric,3,59.5957896651,
./stim/MorphF2_00_orig.jpg,128,,,,,,,,,0,128,128,128,,,,,,,,,,,,,,,15.673828125,5.068359375,1,0,0,1.4396109581,,,2015_Sep_02_1456,A,facesParametric,3,59.5957896651,
./stim/MorphM6_03_orig.jpg,129,,,,,,,,,0,129,129,129,,,,,,,,,,,,,,,15.673828125,5.068359375,1,0,0,1.79203510284,,,2015_Sep_02_1456,A,facesParametric,3,59.5957896651,
./stim/MorphM3_04_orig.jpg,130,,,,,,,,,0,130,130,130,,,,,,,,,,,,,,,15.8203125,5.185546875,1,0,0,9.80358099937,,,2015_Sep_02_1456,A,facesParametric,3,59.5957896651,
./stim/MorphM8_01_orig.jpg,131,,,,,,,,,0,131,131,131,,,,,,,,,,,,,,,15.8203125,5.185546875,1,0,0,0.852149009705,,,2015_Sep_02_1456,A,facesParametric,3,59.5957896651,
./stim/MorphM1_06_orig.jpg,132,,,,,,,,,0,132,132,132,,,,,,,,,,,,,,,15.8203125,5.185546875,1,0,0,0.870276927948,,,2015_Sep_02_1456,A,facesParametric,3,59.5957896651,
./stim/MorphM2_09_orig.jpg,133,,,,,,,,,0,133,133,133,,,,,,,,,,,,,,,15.8203125,5.185546875,0,0,1,0.886741161346,,,2015_Sep_02_1456,A,facesParametric,3,59.5957896651,
./stim/MorphF2_01_orig.jpg,134,,,,,,,,,0,134,134,134,,,,,,,,,,,,,,,15.8203125,5.185546875,1,0,0,0.78626203537,,,2015_Sep_02_1456,A,facesParametric,3,59.5957896651,
./stim/MorphM5_01_orig.jpg,135,,,,,,,,,0,135,135,135,,,,,,,,,,,,,,,15.8203125,5.185546875,1,0,0,0.853749036789,,,2015_Sep_02_1456,A,facesParametric,3,59.5957896651,
./stim/MorphF8_03_orig.jpg,136,,,,,,,,,0,136,136,136,,,,,,,,,,,,,,,15.8203125,5.185546875,1,0,0,1.3395588398,,,2015_Sep_02_1456,A,facesParametric,3,59.5957896651,
./stim/MorphF10_03_orig.jpg,137,,,,,,,,,0,137,137,137,,,,,,,,,,,,,,,15.791015625,5.185546875,1,0,0,0.718894958496,,,2015_Sep_02_1456,A,facesParametric,3,59.5957896651,
./stim/MorphM7_09_orig.jpg,138,,,,,,,,,0,138,138,138,,,,,,,,,,,,,,,15.76171875,5.185546875,0,0,1,0.552357912064,,,2015_Sep_02_1456,A,facesParametric,3,59.5957896651,
./stim/MorphM9_00_orig.jpg,139,,,,,,,,,0,139,139,139,,,,,,,,,,,,,,,16.0546875,4.62890625,1,0,0,3.6013982296,,,2015_Sep_02_1456,A,facesParametric,3,59.5957896651,
./stim/MorphM3_05_orig.jpg,140,,,,,,,,,0,140,140,140,,,,,,,,,,,,,,,16.2890625,4.6875,1,0,0,6.217648983,,,2015_Sep_02_1456,A,facesParametric,3,59.5957896651,
./stim/MorphM1_07_orig.jpg,141,,,,,,,,,0,141,141,141,,,,,,,,,,,,,,,16.259765625,4.6875,1,0,0,1.12070012093,,,2015_Sep_02_1456,A,facesParametric,3,59.5957896651,
./stim/MorphM9_07_orig.jpg,142,,,,,,,,,0,142,142,142,,,,,,,,,,,,,,,16.259765625,4.6875,1,0,0,1.18801808357,,,2015_Sep_02_1456,A,facesParametric,3,59.5957896651,
./stim/MorphF3_03_orig.jpg,143,,,,,,,,,0,143,143,143,,,,,,,,,,,,,,,16.171875,4.541015625,1,0,0,0.987607955933,,,2015_Sep_02_1456,A,facesParametric,3,59.5957896651,
./stim/MorphF4_07_orig.jpg,144,,,,,,,,,0,144,144,144,,,,,,,,,,,,,,,15.849609375,4.51171875,1,0,0,1.30631089211,,,2015_Sep_02_1456,A,facesParametric,3,59.5957896651,
./stim/MorphM2_10_orig.jpg,145,,,,,,,,,0,145,145,145,,,,,,,,,,,,,,,15.849609375,4.51171875,0,0,1,2.93137407303,,,2015_Sep_02_1456,A,facesParametric,3,59.5957896651,
./stim/MorphF7_06_orig.jpg,146,,,,,,,,,0,146,146,146,,,,,,,,,,,,,,,15.849609375,4.51171875,0,0,1,0.719778060913,,,2015_Sep_02_1456,A,facesParametric,3,59.5957896651,
./stim/MorphM8_02_orig.jpg,147,,,,,,,,,0,147,147,147,,,,,,,,,,,,,,,15.849609375,4.453125,1,0,0,1.40651106834,,,2015_Sep_02_1456,A,facesParametric,3,59.5957896651,
./stim/MorphF3_05_orig.jpg,148,,,,,,,,,0,148,148,148,,,,,,,,,,,,,,,15.849609375,4.423828125,1,0,0,0.803539037704,,,2015_Sep_02_1456,A,facesParametric,3,59.5957896651,
./stim/MorphF6_04_orig.jpg,149,,,,,,,,,0,149,149,149,,,,,,,,,,,,,,,15.849609375,4.423828125,0,0,1,0.634896993637,,,2015_Sep_02_1456,A,facesParametric,3,59.5957896651,
./stim/MorphM4_10_orig.jpg,150,,,,,,,,,0,150,150,150,,,,,,,,,,,,,,,15.849609375,4.423828125,0,0,1,1.33823394775,,,2015_Sep_02_1456,A,facesParametric,3,59.5957896651,
./stim/MorphF10_08_orig.jpg,151,,,,,,,,,0,151,151,151,,,,,,,,,,,,,,,15.849609375,4.423828125,0,0,1,0.63575387001,,,2015_Sep_02_1456,A,facesParametric,3,59.5957896651,
./stim/MorphF5_02_orig.jpg,152,,,,,,,,,0,152,152,152,,,,,,,,,,,,,,,15.76171875,4.39453125,1,0,0,0.903563022614,,,2015_Sep_02_1456,A,facesParametric,3,59.5957896651,
./stim/MorphF1_05_orig.jpg,153,,,,,,,,,0,153,153,153,,,,,,,,,,,,,,,15.322265625,4.5703125,1,0,0,1.05489182472,,,2015_Sep_02_1456,A,facesParametric,3,59.5957896651,
./stim/MorphF9_09_orig.jpg,154,,,,,,,,,0,154,154,154,,,,,,,,,,,,,,,15.322265625,4.482421875,1,0,0,3.19929099083,,,2015_Sep_02_1456,A,facesParametric,3,59.5957896651,
./stim/MorphF5_03_orig.jpg,155,,,,,,,,,0,155,155,155,,,,,,,,,,,,,,,15.322265625,4.482421875,1,0,0,0.652360916138,,,2015_Sep_02_1456,A,facesParametric,3,59.5957896651,
./stim/MorphF4_03_orig.jpg,156,,,,,,,,,0,156,156,156,,,,,,,,,,,,,,,15.380859375,4.51171875,1,0,0,0.853245019913,,,2015_Sep_02_1456,A,facesParametric,3,59.5957896651,
./stim/MorphF5_01_orig.jpg,157,,,,,,,,,0,157,157,157,,,,,,,,,,,,,,,15.41015625,4.541015625,1,0,0,0.600672960281,,,2015_Sep_02_1456,A,facesParametric,3,59.5957896651,
./stim/MorphM1_01_orig.jpg,158,,,,,,,,,0,158,158,158,,,,,,,,,,,,,,,15.41015625,4.541015625,1,0,0,0.585359096527,,,2015_Sep_02_1456,A,facesParametric,3,59.5957896651,
./stim/MorphF9_02_orig.jpg,159,,,,,,,,,0,159,159,159,,,,,,,,,,,,,,,15.41015625,4.541015625,1,0,0,0.60183596611,,,2015_Sep_02_1456,A,facesParametric,3,59.5957896651,
./stim/MorphF2_02_orig.jpg,160,,,,,,,,,0,160,160,160,,,,,,,,,,,,,,,15.41015625,4.541015625,1,0,0,0.970996141434,,,2015_Sep_02_1456,A,facesParametric,3,59.5957896651,
./stim/MorphM8_10_orig.jpg,161,,,,,,,,,0,161,161,161,,,,,,,,,,,,,,,15.41015625,4.541015625,0,0,1,0.819959878922,,,2015_Sep_02_1456,A,facesParametric,3,59.5957896651,
./stim/MorphM1_10_orig.jpg,162,,,,,,,,,0,162,162,162,,,,,,,,,,,,,,,15.41015625,4.541015625,0,0,1,0.669454097748,,,2015_Sep_02_1456,A,facesParametric,3,59.5957896651,
./stim/MorphF10_04_orig.jpg,163,,,,,,,,,0,163,163,163,,,,,,,,,,,,,,,15.41015625,4.541015625,0,0,1,0.618708133698,,,2015_Sep_02_1456,A,facesParametric,3,59.5957896651,
./stim/MorphF3_00_orig.jpg,164,,,,,,,,,0,164,164,164,,,,,,,,,,,,,,,15.41015625,4.541015625,1,0,0,0.753221035004,,,2015_Sep_02_1456,A,facesParametric,3,59.5957896651,
./stim/MorphM2_07_orig.jpg,165,,,,,,,,,0,165,165,165,,,,,,,,,,,,,,,15.41015625,4.541015625,1,0,0,2.4290099144,,,2015_Sep_02_1456,A,facesParametric,3,59.5957896651,
./stim/MorphF7_05_orig.jpg,166,,,,,,,,,0,166,166,166,,,,,,,,,,,,,,,15.439453125,4.51171875,1,0,0,0.718928098679,,,2015_Sep_02_1456,A,facesParametric,3,59.5957896651,
./stim/MorphF6_03_orig.jpg,167,,,,,,,,,0,167,167,167,,,,,,,,,,,,,,,15.439453125,4.51171875,1,0,0,0.870679855347,,,2015_Sep_02_1456,A,facesParametric,3,59.5957896651,
./stim/MorphF3_02_orig.jpg,168,,,,,,,,,0,168,168,168,,,,,,,,,,,,,,,15.439453125,4.51171875,1,0,0,1.13858008385,,,2015_Sep_02_1456,A,facesParametric,3,59.5957896651,
./stim/MorphF1_01_orig.jpg,169,,,,,,,,,0,169,169,169,,,,,,,,,,,,,,,15.439453125,4.51171875,1,0,0,1.03812885284,,,2015_Sep_02_1456,A,facesParametric,3,59.5957896651,
./stim/MorphM1_04_orig.jpg,170,,,,,,,,,0,170,170,170,,,,,,,,,,,,,,,15.439453125,4.51171875,1,0,0,0.800945043564,,,2015_Sep_02_1456,A,facesParametric,3,59.5957896651,
./stim/MorphF4_09_orig.jpg,171,,,,,,,,,0,171,171,171,,,,,,,,,,,,,,,15.439453125,4.51171875,0,0,1,0.685661077499,,,2015_Sep_02_1456,A,facesParametric,3,59.5957896651,
./stim/MorphM6_00_orig.jpg,172,,,,,,,,,0,172,172,172,,,,,,,,,,,,,,,15.439453125,4.51171875,1,0,0,0.802203893661,,,2015_Sep_02_1456,A,facesParametric,3,59.5957896651,
./stim/MorphM5_09_orig.jpg,173,,,,,,,,,0,173,173,173,,,,,,,,,,,,,,,15.439453125,4.51171875,0,0,1,0.985701084137,,,2015_Sep_02_1456,A,facesParametric,3,59.5957896651,
./stim/MorphF5_06_orig.jpg,174,,,,,,,,,0,174,174,174,,,,,,,,,,,,,,,15.439453125,4.51171875,0,0,1,0.921080827713,,,2015_Sep_02_1456,A,facesParametric,3,59.5957896651,
./stim/MorphF9_01_orig.jpg,175,,,,,,,,,0,175,175,175,,,,,,,,,,,,,,,15.439453125,4.51171875,1,0,0,1.0377061367,,,2015_Sep_02_1456,A,facesParametric,3,59.5957896651,
./stim/MorphM5_07_orig.jpg,176,,,,,,,,,0,176,176,176,,,,,,,,,,,,,,,15.41015625,4.51171875,0,0,1,0.95395898819,,,2015_Sep_02_1456,A,facesParametric,3,59.5957896651,
./stim/MorphM2_01_orig.jpg,177,,,,,,,,,0,177,177,177,,,,,,,,,,,,,,,14.677734375,4.189453125,1,0,0,10.1385998726,,,2015_Sep_02_1456,A,facesParametric,3,59.5957896651,
./stim/MorphM7_03_orig.jpg,178,,,,,,,,,0,178,178,178,,,,,,,,,,,,,,,14.58984375,4.130859375,1,0,0,4.90881204605,,,2015_Sep_02_1456,A,facesParametric,3,59.5957896651,
./stim/MorphM9_09_orig.jpg,179,,,,,,,,,0,179,179,179,,,,,,,,,,,,,,,14.326171875,4.86328125,0,0,1,11.2111320496,,,2015_Sep_02_1456,A,facesParametric,3,59.5957896651,
./stim/MorphF9_10_orig.jpg,180,,,,,,,,,0,180,180,180,,,,,,,,,,,,,,,14.296875,4.86328125,0,0,1,1.03466105461,,,2015_Sep_02_1456,A,facesParametric,3,59.5957896651,
./stim/MorphF8_10_orig.jpg,181,,,,,,,,,0,181,181,181,,,,,,,,,,,,,,,14.296875,4.86328125,0,0,1,0.836698055267,,,2015_Sep_02_1456,A,facesParametric,3,59.5957896651,
./stim/MorphF10_10_orig.jpg,182,,,,,,,,,0,182,182,182,,,,,,,,,,,,,,,14.296875,4.86328125,0,0,1,0.853626012802,,,2015_Sep_02_1456,A,facesParametric,3,59.5957896651,
./stim/MorphM3_09_orig.jpg,183,,,,,,,,,0,183,183,183,,,,,,,,,,,,,,,14.296875,4.86328125,0,0,1,0.852358818054,,,2015_Sep_02_1456,A,facesParametric,3,59.5957896651,
./stim/MorphF10_05_orig.jpg,184,,,,,,,,,0,184,184,184,,,,,,,,,,,,,,,14.296875,4.86328125,0,0,1,2.98186588287,,,2015_Sep_02_1456,A,facesParametric,3,59.5957896651,
./stim/MorphF6_00_orig.jpg,185,,,,,,,,,0,185,185,185,,,,,,,,,,,,,,,14.296875,4.86328125,1,0,0,0.770178794861,,,2015_Sep_02_1456,A,facesParametric,3,59.5957896651,
./stim/MorphF8_08_orig.jpg,186,,,,,,,,,0,186,186,186,,,,,,,,,,,,,,,14.296875,4.86328125,0,0,1,5.92928791046,,,2015_Sep_02_1456,A,facesParametric,3,59.5957896651,
./stim/MorphF7_10_orig.jpg,187,,,,,,,,,0,187,187,187,,,,,,,,,,,,,,,14.296875,4.86328125,0,0,1,1.10513901711,,,2015_Sep_02_1456,A,facesParametric,3,59.5957896651,
./stim/MorphM9_10_orig.jpg,188,,,,,,,,,0,188,188,188,,,,,,,,,,,,,,,14.296875,4.86328125,0,0,1,0.769436120987,,,2015_Sep_02_1456,A,facesParametric,3,59.5957896651,
./stim/MorphM10_05_orig.jpg,189,,,,,,,,,0,189,189,189,,,,,,,,,,,,,,,14.296875,4.86328125,0,0,1,0.68535900116,,,2015_Sep_02_1456,A,facesParametric,3,59.5957896651,
./stim/MorphM8_03_orig.jpg,190,,,,,,,,,0,190,190,190,,,,,,,,,,,,,,,14.296875,4.86328125,1,0,0,1.74185490608,,,2015_Sep_02_1456,A,facesParametric,3,59.5957896651,
./stim/MorphF2_10_orig.jpg,191,,,,,,,,,0,191,191,191,,,,,,,,,,,,,,,14.296875,4.86328125,0,0,1,0.937199115753,,,2015_Sep_02_1456,A,facesParametric,3,59.5957896651,
./stim/MorphM1_02_orig.jpg,192,,,,,,,,,0,192,192,192,,,,,,,,,,,,,,,14.296875,4.86328125,1,0,0,1.74166202545,,,2015_Sep_02_1456,A,facesParametric,3,59.5957896651,
./stim/MorphM4_09_orig.jpg,193,,,,,,,,,0,193,193,193,,,,,,,,,,,,,,,14.853515625,5.654296875,0,0,1,2.62949705124,,,2015_Sep_02_1456,A,facesParametric,3,59.5957896651,
./stim/MorphM8_07_orig.jpg,194,,,,,,,,,0,194,194,194,,,,,,,,,,,,,,,14.853515625,5.654296875,1,0,0,2.27740097046,,,2015_Sep_02_1456,A,facesParametric,3,59.5957896651,
./stim/MorphM1_08_orig.jpg,195,,,,,,,,,0,195,195,195,,,,,,,,,,,,,,,14.82421875,5.68359375,1,0,0,0.652336120605,,,2015_Sep_02_1456,A,facesParametric,3,59.5957896651,
./stim/MorphF4_08_orig.jpg,196,,,,,,,,,0,196,196,196,,,,,,,,,,,,,,,14.82421875,5.68359375,1,0,0,0.836359024048,,,2015_Sep_02_1456,A,facesParametric,3,59.5957896651,
./stim/MorphM9_04_orig.jpg,197,,,,,,,,,0,197,197,197,,,,,,,,,,,,,,,14.765625,5.68359375,1,0,0,1.50718998909,,,2015_Sep_02_1456,A,facesParametric,3,59.5957896651,
./stim/MorphF1_09_orig.jpg,198,,,,,,,,,0,198,198,198,,,,,,,,,,,,,,,14.765625,5.68359375,1,0,0,0.987612962723,,,2015_Sep_02_1456,A,facesParametric,3,59.5957896651,
./stim/MorphM9_08_orig.jpg,199,,,,,,,,,0,199,199,199,,,,,,,,,,,,,,,14.736328125,5.68359375,0,0,1,1.45693206787,,,2015_Sep_02_1456,A,facesParametric,3,59.5957896651,
./stim/MorphF10_01_orig.jpg,200,,,,,,,,,0,200,200,200,,,,,,,,,,,,,,,14.736328125,5.68359375,1,0,0,1.0702278614,,,2015_Sep_02_1456,A,facesParametric,3,59.5957896651,
./stim/MorphM10_00_orig.jpg,201,,,,,,,,,0,201,201,201,,,,,,,,,,,,,,,14.736328125,5.68359375,1,0,0,2.59425497055,,,2015_Sep_02_1456,A,facesParametric,3,59.5957896651,
./stim/MorphM2_00_orig.jpg,202,,,,,,,,,0,202,202,202,,,,,,,,,,,,,,,14.765625,5.654296875,1,0,0,2.52932620049,,,2015_Sep_02_1456,A,facesParametric,3,59.5957896651,
./stim/MorphM9_01_orig.jpg,203,,,,,,,,,0,203,203,203,,,,,,,,,,,,,,,14.765625,5.654296875,1,0,0,0.668747186661,,,2015_Sep_02_1456,A,facesParametric,3,59.5957896651,
./stim/MorphF7_09_orig.jpg,204,,,,,,,,,0,204,204,204,,,,,,,,,,,,,,,14.765625,5.654296875,0,0,1,0.636407136917,,,2015_Sep_02_1456,A,facesParametric,3,59.5957896651,
./stim/MorphF9_00_orig.jpg,205,,,,,,,,,0,205,205,205,,,,,,,,,,,,,,,14.765625,5.654296875,1,0,0,0.735340118408,,,2015_Sep_02_1456,A,facesParametric,3,59.5957896651,
./stim/MorphM2_02_orig.jpg,206,,,,,,,,,0,206,206,206,,,,,,,,,,,,,,,14.765625,5.654296875,1,0,0,0.736675024033,,,2015_Sep_02_1456,A,facesParametric,3,59.5957896651,
./stim/MorphF8_05_orig.jpg,207,,,,,,,,,0,207,207,207,,,,,,,,,,,,,,,2.841796875,13.18359375,1,0,0,36.6689088345,,,2015_Sep_02_1456,A,facesParametric,3,59.5957896651,
./stim/MorphF3_09_orig.jpg,208,,,,,,,,,0,208,208,208,,,,,,,,,,,,,,,2.87109375,13.18359375,0,0,1,4.70787405968,,,2015_Sep_02_1456,A,facesParametric,3,59.5957896651,
./stim/MorphM5_10_orig.jpg,209,,,,,,,,,0,209,209,209,,,,,,,,,,,,,,,2.87109375,13.18359375,0,0,1,0.836529970169,,,2015_Sep_02_1456,A,facesParametric,3,59.5957896651,
./stim/MorphM8_08_orig.jpg,210,,,,,,,,,0,210,210,210,,,,,,,,,,,,,,,2.87109375,13.18359375,0,0,1,5.14235901833,,,2015_Sep_02_1456,A,facesParametric,3,59.5957896651,
./stim/MorphM3_07_orig.jpg,211,,,,,,,,,0,211,211,211,,,,,,,,,,,,,,,5.830078125,13.18359375,0,0,1,5.14341020584,,,2015_Sep_02_1456,A,facesParametric,3,59.5957896651,
./stim/MorphM5_06_orig.jpg,212,,,,,,,,,0,212,212,212,,,,,,,,,,,,,,,5.91796875,13.06640625,0,0,1,1.13860201836,,,2015_Sep_02_1456,A,facesParametric,3,59.5957896651,
./stim/MorphF5_09_orig.jpg,213,,,,,,,,,0,213,213,213,,,,,,,,,,,,,,,5.21484375,12.421875,0,0,1,0.903827905655,,,2015_Sep_02_1456,A,facesParametric,3,59.5957896651,
./stim/MorphF8_06_orig.jpg,214,,,,,,,,,0,214,214,214,,,,,,,,,,,,,,,4.16015625,12.041015625,0,0,1,3.85233283043,,,2015_Sep_02_1456,A,facesParametric,3,59.5957896651,
./stim/MorphF5_04_orig.jpg,215,,,,,,,,,0,215,215,215,,,,,,,,,,,,,,,4.16015625,12.041015625,1,0,0,0.820719957352,,,2015_Sep_02_1456,A,facesParametric,3,59.5957896651,
./stim/MorphM2_04_orig.jpg,216,,,,,,,,,0,216,216,216,,,,,,,,,,,,,,,4.16015625,12.041015625,1,0,0,0.817734956741,,,2015_Sep_02_1456,A,facesParametric,3,59.5957896651,
./stim/MorphF2_05_orig.jpg,217,,,,,,,,,0,217,217,217,,,,,,,,,,,,,,,4.16015625,12.041015625,0,0,1,0.669072151184,,,2015_Sep_02_1456,A,facesParametric,3,59.5957896651,
./stim/MorphM7_01_orig.jpg,218,,,,,,,,,0,218,218,218,,,,,,,,,,,,,,,4.423828125,11.748046875,1,0,0,7.50721693039,,,2015_Sep_02_1456,A,facesParametric,3,59.5957896651,
./stim/MorphF10_09_orig.jpg,219,,,,,,,,,0,219,219,219,,,,,,,,,,,,,,,11.396484375,13.125,0,0,1,9.0152130127,,,2015_Sep_02_1456,A,facesParametric,3,59.5957896651,
