img,num,basicLoop.thisRepN,basicLoop.thisTrialN,basicLoop.thisN,basicLoop.thisIndex,trials.thisRepN,trials.thisTrialN,trials.thisN,trials.thisIndex,trials2.thisRepN,trials2.thisTrialN,trials2.thisN,trials2.thisIndex,key_resp_2.keys,key_resp_2.rt,basicRating1.response,basicRating1.rt,basicRating2.response,basicRating2.rt,basicRating3.response,basicRating3.rt,basicRating4.response,basicRating4.rt,key_resp_3.keys,key_resp_3.rt,key_resp_4.keys,key_resp_4.rt,mouseResp.x,mouseResp.y,mouseResp.leftButton,mouseResp.midButton,mouseResp.rightButton,mouseResp.time,key_resp_5.keys,key_resp_5.rt,key_resp_7.keys,key_resp_7.rt,date,group,expName,participant,frameRate,
,,,,,,,,,,,,,,return,36.2287678719,,,,,,,,,,,,,,,,,,,,,,,2015_Sep_02_1917,A,facesParametric,4,59.7453670071,
./basicStim/21M_SA_C.jpg,,0,0,0,46,,,,,,,,,,,None,None,ANG,10.231,None,None,None,None,,,,,,,,,,,,,,,2015_Sep_02_1917,A,facesParametric,4,59.7453670071,
./basicStim/24M_FE_O.jpg,,0,1,1,58,,,,,,,,,,,None,None,None,None,SUP,4.968,None,None,,,,,,,,,,,,,,,2015_Sep_02_1917,A,facesParametric,4,59.7453670071,
./basicStim/34M_SA_C.jpg,,0,2,2,74,,,,,,,,,,,None,None,None,None,None,None,NTR,5.597,,,,,,,,,,,,,,,2015_Sep_02_1917,A,facesParametric,4,59.7453670071,
./basicStim/03F_DI_O.jpg,,0,3,3,15,,,,,,,,,,,None,None,None,None,DIS,9.21,None,None,,,,,,,,,,,,,,,2015_Sep_02_1917,A,facesParametric,4,59.7453670071,
./basicStim/24M_NE_C.jpg,,0,4,4,62,,,,,,,,,,,None,None,None,None,None,None,NTR,1.978,,,,,,,,,,,,,,,2015_Sep_02_1917,A,facesParametric,4,59.7453670071,
./basicStim/23M_SA_C.jpg,,0,5,5,53,,,,,,,,,,,None,None,None,None,DIS,10.478,None,None,,,,,,,,,,,,,,,2015_Sep_02_1917,A,facesParametric,4,59.7453670071,
./basicStim/28M_FE_O.jpg,,0,6,6,65,,,,,,,,,,,None,None,None,None,SUP,2.891,None,None,,,,,,,,,,,,,,,2015_Sep_02_1917,A,facesParametric,4,59.7453670071,
./basicStim/09F_FE_O.jpg,,0,7,7,37,,,,,,,,,,,None,None,FEA,3.007,None,None,None,None,,,,,,,,,,,,,,,2015_Sep_02_1917,A,facesParametric,4,59.7453670071,
./basicStim/06F_SP_O.jpg,,0,8,8,26,,,,,,,,,,,None,None,None,None,SUP,2.433,None,None,,,,,,,,,,,,,,,2015_Sep_02_1917,A,facesParametric,4,59.7453670071,
./basicStim/28M_SP_O.jpg,,0,9,9,68,,,,,,,,,,,None,None,None,None,SUP,5.557,None,None,,,,,,,,,,,,,,,2015_Sep_02_1917,A,facesParametric,4,59.7453670071,
./basicStim/07F_HA_O.jpg,,0,10,10,31,,,,,,,,,,,HAP,3.865,None,None,None,None,None,None,,,,,,,,,,,,,,,2015_Sep_02_1917,A,facesParametric,4,59.7453670071,
./basicStim/09F_SA_C.jpg,,0,11,11,39,,,,,,,,,,,None,None,None,None,SUP,7.85,None,None,,,,,,,,,,,,,,,2015_Sep_02_1917,A,facesParametric,4,59.7453670071,
./basicStim/28M_NE_C.jpg,,0,12,12,69,,,,,,,,,,,None,None,None,None,None,None,NTR,2.197,,,,,,,,,,,,,,,2015_Sep_02_1917,A,facesParametric,4,59.7453670071,
./basicStim/06F_DI_O.jpg,,0,13,13,22,,,,,,,,,,,None,None,None,None,DIS,9.804,None,None,,,,,,,,,,,,,,,2015_Sep_02_1917,A,facesParametric,4,59.7453670071,
./basicStim/02F_SP_O.jpg,,0,14,14,12,,,,,,,,,,,None,None,None,None,SUP,3.209,None,None,,,,,,,,,,,,,,,2015_Sep_02_1917,A,facesParametric,4,59.7453670071,
./basicStim/24M_DI_O.jpg,,0,15,15,57,,,,,,,,,,,None,None,ANG,6.714,None,None,None,None,,,,,,,,,,,,,,,2015_Sep_02_1917,A,facesParametric,4,59.7453670071,
./basicStim/28M_SA_C.jpg,,0,16,16,67,,,,,,,,,,,None,None,None,None,None,None,NTR,2.268,,,,,,,,,,,,,,,2015_Sep_02_1917,A,facesParametric,4,59.7453670071,
./basicStim/21M_DI_O.jpg,,0,17,17,43,,,,,,,,,,,None,None,None,None,DIS,6.527,None,None,,,,,,,,,,,,,,,2015_Sep_02_1917,A,facesParametric,4,59.7453670071,
./basicStim/03F_FE_O.jpg,,0,18,18,16,,,,,,,,,,,None,None,None,None,SUP,2.466,None,None,,,,,,,,,,,,,,,2015_Sep_02_1917,A,facesParametric,4,59.7453670071,
./basicStim/21M_FE_O.jpg,,0,19,19,44,,,,,,,,,,,None,None,ANG,4.786,None,None,None,None,,,,,,,,,,,,,,,2015_Sep_02_1917,A,facesParametric,4,59.7453670071,
./basicStim/01F_FE_O.jpg,,0,20,20,2,,,,,,,,,,,None,None,None,None,SUP,2.482,None,None,,,,,,,,,,,,,,,2015_Sep_02_1917,A,facesParametric,4,59.7453670071,
./basicStim/24M_HA_O.jpg,,0,21,21,59,,,,,,,,,,,HAP,2.872,None,None,None,None,None,None,,,,,,,,,,,,,,,2015_Sep_02_1917,A,facesParametric,4,59.7453670071,
./basicStim/07F_AN_O.jpg,,0,22,22,28,,,,,,,,,,,None,None,ANG,10.427,None,None,None,None,,,,,,,,,,,,,,,2015_Sep_02_1917,A,facesParametric,4,59.7453670071,
./basicStim/24M_SP_O.jpg,,0,23,23,61,,,,,,,,,,,None,None,None,None,None,None,NTR,1.616,,,,,,,,,,,,,,,2015_Sep_02_1917,A,facesParametric,4,59.7453670071,
./basicStim/36M_NE_C.jpg,,0,24,24,83,,,,,,,,,,,None,None,None,None,None,None,NTR,1.475,,,,,,,,,,,,,,,2015_Sep_02_1917,A,facesParametric,4,59.7453670071,
./basicStim/06F_SA_C.jpg,,0,25,25,25,,,,,,,,,,,None,None,FEA,5.701,None,None,None,None,,,,,,,,,,,,,,,2015_Sep_02_1917,A,facesParametric,4,59.7453670071,
./basicStim/36M_HA_O.jpg,,0,26,26,80,,,,,,,,,,,HAP,2.134,None,None,None,None,None,None,,,,,,,,,,,,,,,2015_Sep_02_1917,A,facesParametric,4,59.7453670071,
./basicStim/28M_AN_O.jpg,,0,27,27,63,,,,,,,,,,,None,None,None,None,SUP,5.249,None,None,,,,,,,,,,,,,,,2015_Sep_02_1917,A,facesParametric,4,59.7453670071,
./basicStim/28M_HA_O.jpg,,0,28,28,66,,,,,,,,,,,HAP,2.602,None,None,None,None,None,None,,,,,,,,,,,,,,,2015_Sep_02_1917,A,facesParametric,4,59.7453670071,
./basicStim/02F_AN_O.jpg,,0,29,29,7,,,,,,,,,,,None,None,None,None,DIS,4.23,None,None,,,,,,,,,,,,,,,2015_Sep_02_1917,A,facesParametric,4,59.7453670071,
./basicStim/34M_FE_O.jpg,,0,30,30,72,,,,,,,,,,,None,None,FEA,8.239,None,None,None,None,,,,,,,,,,,,,,,2015_Sep_02_1917,A,facesParametric,4,59.7453670071,
./basicStim/03F_HA_O.jpg,,0,31,31,17,,,,,,,,,,,HAP,1.764,None,None,None,None,None,None,,,,,,,,,,,,,,,2015_Sep_02_1917,A,facesParametric,4,59.7453670071,
./basicStim/02F_SA_C.jpg,,0,32,32,11,,,,,,,,,,,SAD,3.274,None,None,None,None,None,None,,,,,,,,,,,,,,,2015_Sep_02_1917,A,facesParametric,4,59.7453670071,
./basicStim/06F_NE_C.jpg,,0,33,33,27,,,,,,,,,,,None,None,None,None,None,None,NTR,1.358,,,,,,,,,,,,,,,2015_Sep_02_1917,A,facesParametric,4,59.7453670071,
./basicStim/34M_AN_O.jpg,,0,34,34,70,,,,,,,,,,,None,None,ANG,2.085,None,None,None,None,,,,,,,,,,,,,,,2015_Sep_02_1917,A,facesParametric,4,59.7453670071,
./basicStim/09F_SP_O.jpg,,0,35,35,40,,,,,,,,,,,None,None,None,None,SUP,1.398,None,None,,,,,,,,,,,,,,,2015_Sep_02_1917,A,facesParametric,4,59.7453670071,
./basicStim/02F_NE_C.jpg,,0,36,36,13,,,,,,,,,,,None,None,None,None,None,None,NTR,0.937,,,,,,,,,,,,,,,2015_Sep_02_1917,A,facesParametric,4,59.7453670071,
./basicStim/03F_NE_C.jpg,,0,37,37,20,,,,,,,,,,,None,None,None,None,None,None,NTR,1.045,,,,,,,,,,,,,,,2015_Sep_02_1917,A,facesParametric,4,59.7453670071,
./basicStim/03F_AN_O.jpg,,0,38,38,14,,,,,,,,,,,None,None,None,None,SUP,1.162,None,None,,,,,,,,,,,,,,,2015_Sep_02_1917,A,facesParametric,4,59.7453670071,
./basicStim/01F_SP_O.jpg,,0,39,39,5,,,,,,,,,,,None,None,None,None,SUP,1.812,None,None,,,,,,,,,,,,,,,2015_Sep_02_1917,A,facesParametric,4,59.7453670071,
./basicStim/21M_NE_C.jpg,,0,40,40,48,,,,,,,,,,,None,None,None,None,None,None,NTR,1.63,,,,,,,,,,,,,,,2015_Sep_02_1917,A,facesParametric,4,59.7453670071,
./basicStim/09F_NE_C.jpg,,0,41,41,41,,,,,,,,,,,None,None,None,None,None,None,NTR,1.634,,,,,,,,,,,,,,,2015_Sep_02_1917,A,facesParametric,4,59.7453670071,
./basicStim/34M_SP_O.jpg,,0,42,42,75,,,,,,,,,,,None,None,None,None,SUP,1.429,None,None,,,,,,,,,,,,,,,2015_Sep_02_1917,A,facesParametric,4,59.7453670071,
./basicStim/28M_DI_O.jpg,,0,43,43,64,,,,,,,,,,,None,None,None,None,SUP,2.485,None,None,,,,,,,,,,,,,,,2015_Sep_02_1917,A,facesParametric,4,59.7453670071,
./basicStim/01F_NE_C.jpg,,0,44,44,6,,,,,,,,,,,None,None,None,None,None,None,NTR,1.176,,,,,,,,,,,,,,,2015_Sep_02_1917,A,facesParametric,4,59.7453670071,
./basicStim/09F_AN_O.jpg,,0,45,45,35,,,,,,,,,,,None,None,ANG,6.362,None,None,None,None,,,,,,,,,,,,,,,2015_Sep_02_1917,A,facesParametric,4,59.7453670071,
./basicStim/23M_AN_O.jpg,,0,46,46,49,,,,,,,,,,,None,None,ANG,6.654,None,None,None,None,,,,,,,,,,,,,,,2015_Sep_02_1917,A,facesParametric,4,59.7453670071,
./basicStim/06F_HA_O.jpg,,0,47,47,24,,,,,,,,,,,HAP,5.672,None,None,None,None,None,None,,,,,,,,,,,,,,,2015_Sep_02_1917,A,facesParametric,4,59.7453670071,
./basicStim/07F_SP_O.jpg,,0,48,48,33,,,,,,,,,,,None,None,None,None,SUP,2.651,None,None,,,,,,,,,,,,,,,2015_Sep_02_1917,A,facesParametric,4,59.7453670071,
./basicStim/34M_DI_O.jpg,,0,49,49,71,,,,,,,,,,,None,None,ANG,7.357,None,None,None,None,,,,,,,,,,,,,,,2015_Sep_02_1917,A,facesParametric,4,59.7453670071,
./basicStim/34M_HA_O.jpg,,0,50,50,73,,,,,,,,,,,HAP,2.034,None,None,None,None,None,None,,,,,,,,,,,,,,,2015_Sep_02_1917,A,facesParametric,4,59.7453670071,
./basicStim/21M_SP_O.jpg,,0,51,51,47,,,,,,,,,,,None,None,None,None,SUP,9.238,None,None,,,,,,,,,,,,,,,2015_Sep_02_1917,A,facesParametric,4,59.7453670071,
./basicStim/02F_DI_O.jpg,,0,52,52,8,,,,,,,,,,,None,None,ANG,3.69,None,None,None,None,,,,,,,,,,,,,,,2015_Sep_02_1917,A,facesParametric,4,59.7453670071,
./basicStim/06F_FE_O.jpg,,0,53,53,23,,,,,,,,,,,SAD,8.553,None,None,None,None,None,None,,,,,,,,,,,,,,,2015_Sep_02_1917,A,facesParametric,4,59.7453670071,
./basicStim/36M_DI_O.jpg,,0,54,54,78,,,,,,,,,,,None,None,ANG,5.172,None,None,None,None,,,,,,,,,,,,,,,2015_Sep_02_1917,A,facesParametric,4,59.7453670071,
./basicStim/23M_NE_C.jpg,,0,55,55,55,,,,,,,,,,,None,None,None,None,None,None,NTR,1.341,,,,,,,,,,,,,,,2015_Sep_02_1917,A,facesParametric,4,59.7453670071,
./basicStim/01F_SA_C.jpg,,0,56,56,4,,,,,,,,,,,None,None,None,None,None,None,NTR,3.469,,,,,,,,,,,,,,,2015_Sep_02_1917,A,facesParametric,4,59.7453670071,
./basicStim/07F_DI_O.jpg,,0,57,57,29,,,,,,,,,,,None,None,FEA,6.137,None,None,None,None,,,,,,,,,,,,,,,2015_Sep_02_1917,A,facesParametric,4,59.7453670071,
./basicStim/01F_AN_O.jpg,,0,58,58,0,,,,,,,,,,,None,None,ANG,5.569,None,None,None,None,,,,,,,,,,,,,,,2015_Sep_02_1917,A,facesParametric,4,59.7453670071,
./basicStim/07F_NE_C.jpg,,0,59,59,34,,,,,,,,,,,None,None,None,None,None,None,NTR,2.219,,,,,,,,,,,,,,,2015_Sep_02_1917,A,facesParametric,4,59.7453670071,
./basicStim/03F_SA_C.jpg,,0,60,60,18,,,,,,,,,,,None,None,None,None,None,None,NTR,1.545,,,,,,,,,,,,,,,2015_Sep_02_1917,A,facesParametric,4,59.7453670071,
./basicStim/07F_SA_C.jpg,,0,61,61,32,,,,,,,,,,,None,None,ANG,2.072,None,None,None,None,,,,,,,,,,,,,,,2015_Sep_02_1917,A,facesParametric,4,59.7453670071,
./basicStim/21M_AN_O.jpg,,0,62,62,42,,,,,,,,,,,SAD,9.474,None,None,None,None,None,None,,,,,,,,,,,,,,,2015_Sep_02_1917,A,facesParametric,4,59.7453670071,
./basicStim/34M_NE_C.jpg,,0,63,63,76,,,,,,,,,,,None,None,None,None,None,None,NTR,2.095,,,,,,,,,,,,,,,2015_Sep_02_1917,A,facesParametric,4,59.7453670071,
./basicStim/23M_DI_O.jpg,,0,64,64,50,,,,,,,,,,,SAD,3.225,None,None,None,None,None,None,,,,,,,,,,,,,,,2015_Sep_02_1917,A,facesParametric,4,59.7453670071,
./basicStim/06F_AN_O.jpg,,0,65,65,21,,,,,,,,,,,None,None,FEA,4.131,None,None,None,None,,,,,,,,,,,,,,,2015_Sep_02_1917,A,facesParametric,4,59.7453670071,
./basicStim/24M_AN_O.jpg,,0,66,66,56,,,,,,,,,,,None,None,ANG,1.678,None,None,None,None,,,,,,,,,,,,,,,2015_Sep_02_1917,A,facesParametric,4,59.7453670071,
./basicStim/07F_FE_O.jpg,,0,67,67,30,,,,,,,,,,,None,None,None,None,SUP,2.052,None,None,,,,,,,,,,,,,,,2015_Sep_02_1917,A,facesParametric,4,59.7453670071,
./basicStim/36M_FE_O.jpg,,0,68,68,79,,,,,,,,,,,None,None,None,None,SUP,1.292,None,None,,,,,,,,,,,,,,,2015_Sep_02_1917,A,facesParametric,4,59.7453670071,
./basicStim/09F_HA_O.jpg,,0,69,69,38,,,,,,,,,,,HAP,1.19,None,None,None,None,None,None,,,,,,,,,,,,,,,2015_Sep_02_1917,A,facesParametric,4,59.7453670071,
./basicStim/21M_HA_O.jpg,,0,70,70,45,,,,,,,,,,,HAP,1.314,None,None,None,None,None,None,,,,,,,,,,,,,,,2015_Sep_02_1917,A,facesParametric,4,59.7453670071,
./basicStim/24M_SA_C.jpg,,0,71,71,60,,,,,,,,,,,None,None,None,None,None,None,NTR,1.864,,,,,,,,,,,,,,,2015_Sep_02_1917,A,facesParametric,4,59.7453670071,
./basicStim/36M_SP_O.jpg,,0,72,72,82,,,,,,,,,,,None,None,None,None,SUP,2.704,None,None,,,,,,,,,,,,,,,2015_Sep_02_1917,A,facesParametric,4,59.7453670071,
./basicStim/09F_DI_O.jpg,,0,73,73,36,,,,,,,,,,,None,None,FEA,3.739,None,None,None,None,,,,,,,,,,,,,,,2015_Sep_02_1917,A,facesParametric,4,59.7453670071,
./basicStim/02F_FE_O.jpg,,0,74,74,9,,,,,,,,,,,None,None,None,None,None,None,NTR,2.434,,,,,,,,,,,,,,,2015_Sep_02_1917,A,facesParametric,4,59.7453670071,
./basicStim/23M_FE_O.jpg,,0,75,75,51,,,,,,,,,,,None,None,None,None,SUP,2.045,None,None,,,,,,,,,,,,,,,2015_Sep_02_1917,A,facesParametric,4,59.7453670071,
./basicStim/36M_SA_C.jpg,,0,76,76,81,,,,,,,,,,,None,None,None,None,None,None,NTR,2.212,,,,,,,,,,,,,,,2015_Sep_02_1917,A,facesParametric,4,59.7453670071,
./basicStim/23M_HA_O.jpg,,0,77,77,52,,,,,,,,,,,HAP,1.397,None,None,None,None,None,None,,,,,,,,,,,,,,,2015_Sep_02_1917,A,facesParametric,4,59.7453670071,
./basicStim/23M_SP_O.jpg,,0,78,78,54,,,,,,,,,,,None,None,None,None,SUP,1.548,None,None,,,,,,,,,,,,,,,2015_Sep_02_1917,A,facesParametric,4,59.7453670071,
./basicStim/01F_DI_O.jpg,,0,79,79,1,,,,,,,,,,,None,None,ANG,1.447,None,None,None,None,,,,,,,,,,,,,,,2015_Sep_02_1917,A,facesParametric,4,59.7453670071,
./basicStim/03F_SP_O.jpg,,0,80,80,19,,,,,,,,,,,HAP,1.229,None,None,None,None,None,None,,,,,,,,,,,,,,,2015_Sep_02_1917,A,facesParametric,4,59.7453670071,
./basicStim/36M_AN_O.jpg,,0,81,81,77,,,,,,,,,,,None,None,None,None,DIS,4.911,None,None,,,,,,,,,,,,,,,2015_Sep_02_1917,A,facesParametric,4,59.7453670071,
./basicStim/01F_HA_O.jpg,,0,82,82,3,,,,,,,,,,,HAP,1.465,None,None,None,None,None,None,,,,,,,,,,,,,,,2015_Sep_02_1917,A,facesParametric,4,59.7453670071,
./basicStim/02F_HA_O.jpg,,0,83,83,10,,,,,,,,,,,HAP,0.967,None,None,None,None,None,None,,,,,,,,,,,,,,,2015_Sep_02_1917,A,facesParametric,4,59.7453670071,
,,,,,,,,,,,,,,,,,,,,,,,,return,29.7617177963,,,,,,,,,,,,,2015_Sep_02_1917,A,facesParametric,4,59.7453670071,
,,,,,,,,,,,,,,return,14.3460888863,,,,,,,,,,,,,,,,,,,,,,,2015_Sep_02_1917,A,facesParametric,4,59.7453670071,
,,,,,,,,,,,,,,,,,,,,,,,,return,27.3177890778,,,,,,,,,,,,,2015_Sep_02_1917,A,facesParametric,4,59.7453670071,
,,,,,,,,,,,,,,,,,,,,,,,,,,return,2.68158388138,,,,,,,,,,,2015_Sep_02_1917,A,facesParametric,4,59.7453670071,
./stim/MorphM6_10_orig.jpg,0,,,,,0,0,0,0,,,,,,,,,,,,,,,,,,,-3.896484375,-13.125,1,0,0,6.12205696106,,,,,2015_Sep_02_1917,A,facesParametric,4,59.7453670071,
./stim/MorphF9_04_orig.jpg,1,,,,,0,1,1,1,,,,,,,,,,,,,,,,,,,-3.92578125,-13.154296875,1,0,0,5.89730191231,,,,,2015_Sep_02_1917,A,facesParametric,4,59.7453670071,
./stim/MorphM3_03_orig.jpg,2,,,,,0,2,2,2,,,,,,,,,,,,,,,,,,,-4.013671875,-12.48046875,0,0,1,4.0198469162,,,,,2015_Sep_02_1917,A,facesParametric,4,59.7453670071,
./stim/MorphM1_00_orig.jpg,3,,,,,0,3,3,3,,,,,,,,,,,,,,,,,,,-4.013671875,-12.48046875,0,0,1,1.03766083717,,,,,2015_Sep_02_1917,A,facesParametric,4,59.7453670071,
./stim/MorphM6_09_orig.jpg,4,,,,,0,4,4,4,,,,,,,,,,,,,,,,,,,-4.013671875,-12.48046875,1,0,0,2.51290488243,,,,,2015_Sep_02_1917,A,facesParametric,4,59.7453670071,
./stim/MorphM10_02_orig.jpg,5,,,,,0,5,5,5,,,,,,,,,,,,,,,,,,,-4.013671875,-12.48046875,0,0,1,1.57283997536,,,,,2015_Sep_02_1917,A,facesParametric,4,59.7453670071,
./stim/MorphM3_06_orig.jpg,6,,,,,0,6,6,6,,,,,,,,,,,,,,,,,,,-4.013671875,-12.421875,1,0,0,6.97002696991,,,,,2015_Sep_02_1917,A,facesParametric,4,59.7453670071,
./stim/MorphM7_08_orig.jpg,7,,,,,0,7,7,7,,,,,,,,,,,,,,,,,,,-4.013671875,-12.421875,1,0,0,1.00464200974,,,,,2015_Sep_02_1917,A,facesParametric,4,59.7453670071,
./stim/MorphM6_04_orig.jpg,8,,,,,0,8,8,8,,,,,,,,,,,,,,,,,,,-4.013671875,-12.421875,0,0,1,2.99825191498,,,,,2015_Sep_02_1917,A,facesParametric,4,59.7453670071,
./stim/MorphM2_05_orig.jpg,9,,,,,0,9,9,9,,,,,,,,,,,,,,,,,,,-4.21875,-12.421875,1,0,0,13.5243890285,,,,,2015_Sep_02_1917,A,facesParametric,4,59.7453670071,
./stim/MorphM3_01_orig.jpg,10,,,,,0,10,10,10,,,,,,,,,,,,,,,,,,,-4.248046875,-12.392578125,0,0,1,3.75278496742,,,,,2015_Sep_02_1917,A,facesParametric,4,59.7453670071,
./stim/MorphF1_03_orig.jpg,11,,,,,0,11,11,11,,,,,,,,,,,,,,,,,,,-4.248046875,-12.392578125,0,0,1,0.985404014587,,,,,2015_Sep_02_1917,A,facesParametric,4,59.7453670071,
./stim/MorphF8_09_orig.jpg,12,,,,,0,12,12,12,,,,,,,,,,,,,,,,,,,-4.248046875,-12.392578125,1,0,0,2.78104901314,,,,,2015_Sep_02_1917,A,facesParametric,4,59.7453670071,
./stim/MorphF3_01_orig.jpg,13,,,,,0,13,13,13,,,,,,,,,,,,,,,,,,,-4.248046875,-12.392578125,0,0,1,1.45569705963,,,,,2015_Sep_02_1917,A,facesParametric,4,59.7453670071,
./stim/MorphF7_03_orig.jpg,14,,,,,0,14,14,14,,,,,,,,,,,,,,,,,,,-4.248046875,-12.392578125,0,0,1,0.953732013702,,,,,2015_Sep_02_1917,A,facesParametric,4,59.7453670071,
./stim/MorphM1_05_orig.jpg,15,,,,,0,15,15,15,,,,,,,,,,,,,,,,,,,-4.248046875,-12.392578125,0,0,1,0.834799051285,,,,,2015_Sep_02_1917,A,facesParametric,4,59.7453670071,
./stim/MorphM5_08_orig.jpg,16,,,,,0,16,16,16,,,,,,,,,,,,,,,,,,,-4.248046875,-12.392578125,1,0,0,1.32362794876,,,,,2015_Sep_02_1917,A,facesParametric,4,59.7453670071,
./stim/MorphF7_01_orig.jpg,17,,,,,0,17,17,17,,,,,,,,,,,,,,,,,,,-4.248046875,-12.392578125,0,0,1,0.902786970139,,,,,2015_Sep_02_1917,A,facesParametric,4,59.7453670071,
./stim/MorphF1_10_orig.jpg,18,,,,,0,18,18,18,,,,,,,,,,,,,,,,,,,-4.248046875,-12.392578125,1,0,0,3.9880759716,,,,,2015_Sep_02_1917,A,facesParametric,4,59.7453670071,
./stim/MorphF9_06_orig.jpg,19,,,,,0,19,19,19,,,,,,,,,,,,,,,,,,,-4.248046875,-12.392578125,1,0,0,3.91856098175,,,,,2015_Sep_02_1917,A,facesParametric,4,59.7453670071,
./stim/MorphM4_00_orig.jpg,20,,,,,0,20,20,20,,,,,,,,,,,,,,,,,,,-4.248046875,-12.392578125,0,0,1,1.45655703545,,,,,2015_Sep_02_1917,A,facesParametric,4,59.7453670071,
./stim/MorphM10_08_orig.jpg,21,,,,,0,21,21,21,,,,,,,,,,,,,,,,,,,-4.248046875,-12.392578125,0,0,1,0.818697929382,,,,,2015_Sep_02_1917,A,facesParametric,4,59.7453670071,
./stim/MorphF8_07_orig.jpg,22,,,,,0,22,22,22,,,,,,,,,,,,,,,,,,,-4.248046875,-12.392578125,1,0,0,1.57391810417,,,,,2015_Sep_02_1917,A,facesParametric,4,59.7453670071,
./stim/MorphF6_02_orig.jpg,23,,,,,0,23,23,23,,,,,,,,,,,,,,,,,,,-4.248046875,-12.392578125,1,0,0,1.0047659874,,,,,2015_Sep_02_1917,A,facesParametric,4,59.7453670071,
./stim/MorphM2_08_orig.jpg,24,,,,,0,24,24,24,,,,,,,,,,,,,,,,,,,-4.21875,-12.333984375,0,0,1,2.68018579483,,,,,2015_Sep_02_1917,A,facesParametric,4,59.7453670071,
./stim/MorphF9_05_orig.jpg,25,,,,,0,25,25,25,,,,,,,,,,,,,,,,,,,-4.21875,-12.3046875,1,0,0,4.03679800034,,,,,2015_Sep_02_1917,A,facesParametric,4,59.7453670071,
./stim/MorphF1_08_orig.jpg,26,,,,,0,26,26,26,,,,,,,,,,,,,,,,,,,-4.248046875,-12.275390625,0,0,1,1.22145700455,,,,,2015_Sep_02_1917,A,facesParametric,4,59.7453670071,
./stim/MorphF6_09_orig.jpg,27,,,,,0,27,27,27,,,,,,,,,,,,,,,,,,,-4.248046875,-12.275390625,1,0,0,2.31152009964,,,,,2015_Sep_02_1917,A,facesParametric,4,59.7453670071,
./stim/MorphF2_09_orig.jpg,28,,,,,0,28,28,28,,,,,,,,,,,,,,,,,,,-4.248046875,-12.275390625,1,0,0,1.77480006218,,,,,2015_Sep_02_1917,A,facesParametric,4,59.7453670071,
./stim/MorphF1_04_orig.jpg,29,,,,,0,29,29,29,,,,,,,,,,,,,,,,,,,-4.21875,-12.24609375,0,0,1,16.9243102074,,,,,2015_Sep_02_1917,A,facesParametric,4,59.7453670071,
./stim/MorphM4_06_orig.jpg,30,,,,,0,30,30,30,,,,,,,,,,,,,,,,,,,-4.21875,-12.275390625,1,0,0,1.45579695702,,,,,2015_Sep_02_1917,A,facesParametric,4,59.7453670071,
./stim/MorphM5_04_orig.jpg,31,,,,,0,31,31,31,,,,,,,,,,,,,,,,,,,-4.248046875,-12.3046875,0,0,1,1.4404759407,,,,,2015_Sep_02_1917,A,facesParametric,4,59.7453670071,
./stim/MorphF10_02_orig.jpg,32,,,,,0,32,32,32,,,,,,,,,,,,,,,,,,,-4.248046875,-12.3046875,1,0,0,2.98283696175,,,,,2015_Sep_02_1917,A,facesParametric,4,59.7453670071,
./stim/MorphF6_05_orig.jpg,33,,,,,0,33,33,33,,,,,,,,,,,,,,,,,,,-4.248046875,-12.3046875,1,0,0,1.0370080471,,,,,2015_Sep_02_1917,A,facesParametric,4,59.7453670071,
./stim/MorphF8_01_orig.jpg,34,,,,,0,34,34,34,,,,,,,,,,,,,,,,,,,-4.27734375,-12.36328125,1,0,0,0.937584161758,,,,,2015_Sep_02_1917,A,facesParametric,4,59.7453670071,
./stim/MorphM2_06_orig.jpg,35,,,,,0,35,35,35,,,,,,,,,,,,,,,,,,,-4.27734375,-12.392578125,0,0,1,1.4893321991,,,,,2015_Sep_02_1917,A,facesParametric,4,59.7453670071,
./stim/MorphM9_02_orig.jpg,36,,,,,0,36,36,36,,,,,,,,,,,,,,,,,,,-4.27734375,-12.421875,1,0,0,3.81927204132,,,,,2015_Sep_02_1917,A,facesParametric,4,59.7453670071,
./stim/MorphM5_03_orig.jpg,37,,,,,0,37,37,37,,,,,,,,,,,,,,,,,,,-4.27734375,-12.421875,1,0,0,3.5667591095,,,,,2015_Sep_02_1917,A,facesParametric,4,59.7453670071,
./stim/MorphM4_01_orig.jpg,38,,,,,0,38,38,38,,,,,,,,,,,,,,,,,,,-4.27734375,-12.451171875,1,0,0,4.457062006,,,,,2015_Sep_02_1917,A,facesParametric,4,59.7453670071,
./stim/MorphM6_05_orig.jpg,39,,,,,0,39,39,39,,,,,,,,,,,,,,,,,,,-4.27734375,-12.451171875,0,0,1,2.54434704781,,,,,2015_Sep_02_1917,A,facesParametric,4,59.7453670071,
./stim/MorphF4_02_orig.jpg,40,,,,,0,40,40,40,,,,,,,,,,,,,,,,,,,-4.27734375,-12.451171875,0,0,1,1.01979017258,,,,,2015_Sep_02_1917,A,facesParametric,4,59.7453670071,
./stim/MorphM9_03_orig.jpg,41,,,,,0,41,41,41,,,,,,,,,,,,,,,,,,,-4.27734375,-12.451171875,0,0,1,1.0214111805,,,,,2015_Sep_02_1917,A,facesParametric,4,59.7453670071,
./stim/MorphF4_06_orig.jpg,42,,,,,0,42,42,42,,,,,,,,,,,,,,,,,,,-4.27734375,-12.451171875,0,0,1,1.00210499763,,,,,2015_Sep_02_1917,A,facesParametric,4,59.7453670071,
./stim/MorphF5_00_orig.jpg,43,,,,,0,43,43,43,,,,,,,,,,,,,,,,,,,-4.27734375,-12.451171875,1,0,0,1.07147097588,,,,,2015_Sep_02_1917,A,facesParametric,4,59.7453670071,
./stim/MorphM7_04_orig.jpg,44,,,,,0,44,44,44,,,,,,,,,,,,,,,,,,,-4.27734375,-12.451171875,0,0,1,1.40599012375,,,,,2015_Sep_02_1917,A,facesParametric,4,59.7453670071,
./stim/MorphF1_07_orig.jpg,45,,,,,0,45,45,45,,,,,,,,,,,,,,,,,,,-4.27734375,-12.451171875,0,0,1,1.17238903046,,,,,2015_Sep_02_1917,A,facesParametric,4,59.7453670071,
./stim/MorphF7_02_orig.jpg,46,,,,,0,46,46,46,,,,,,,,,,,,,,,,,,,-4.248046875,-12.421875,1,0,0,3.36674213409,,,,,2015_Sep_02_1917,A,facesParametric,4,59.7453670071,
./stim/MorphF3_08_orig.jpg,47,,,,,0,47,47,47,,,,,,,,,,,,,,,,,,,-4.21875,-12.392578125,1,0,0,6.81854701042,,,,,2015_Sep_02_1917,A,facesParametric,4,59.7453670071,
./stim/MorphM4_03_orig.jpg,48,,,,,0,48,48,48,,,,,,,,,,,,,,,,,,,-4.21875,-12.36328125,0,0,1,1.57316303253,,,,,2015_Sep_02_1917,A,facesParametric,4,59.7453670071,
./stim/MorphM7_05_orig.jpg,49,,,,,0,49,49,49,,,,,,,,,,,,,,,,,,,-4.21875,-12.685546875,1,0,0,6.25025701523,,,,,2015_Sep_02_1917,A,facesParametric,4,59.7453670071,
./stim/MorphM4_08_orig.jpg,50,,,,,0,50,50,50,,,,,,,,,,,,,,,,,,,-4.21875,-12.685546875,0,0,1,1.23700809479,,,,,2015_Sep_02_1917,A,facesParametric,4,59.7453670071,
./stim/MorphM2_03_orig.jpg,51,,,,,0,51,51,51,,,,,,,,,,,,,,,,,,,-4.21875,-12.685546875,0,0,1,3.44908094406,,,,,2015_Sep_02_1917,A,facesParametric,4,59.7453670071,
./stim/MorphF3_10_orig.jpg,52,,,,,0,52,52,52,,,,,,,,,,,,,,,,,,,-4.21875,-12.685546875,0,0,1,1.6746199131,,,,,2015_Sep_02_1917,A,facesParametric,4,59.7453670071,
./stim/MorphF6_08_orig.jpg,53,,,,,0,53,53,53,,,,,,,,,,,,,,,,,,,-4.248046875,-12.71484375,0,0,1,2.24444890022,,,,,2015_Sep_02_1917,A,facesParametric,4,59.7453670071,
./stim/MorphM3_10_orig.jpg,54,,,,,0,54,54,54,,,,,,,,,,,,,,,,,,,-4.248046875,-12.71484375,0,0,1,1.07138204575,,,,,2015_Sep_02_1917,A,facesParametric,4,59.7453670071,
./stim/MorphM10_03_orig.jpg,55,,,,,0,55,55,55,,,,,,,,,,,,,,,,,,,-4.248046875,-12.71484375,0,0,1,2.89729595184,,,,,2015_Sep_02_1917,A,facesParametric,4,59.7453670071,
./stim/MorphF2_03_orig.jpg,56,,,,,0,56,56,56,,,,,,,,,,,,,,,,,,,-4.248046875,-12.71484375,0,0,1,3.56884098053,,,,,2015_Sep_02_1917,A,facesParametric,4,59.7453670071,
./stim/MorphM7_10_orig.jpg,57,,,,,0,57,57,57,,,,,,,,,,,,,,,,,,,-4.248046875,-12.71484375,1,0,0,1.67497515678,,,,,2015_Sep_02_1917,A,facesParametric,4,59.7453670071,
./stim/MorphF8_00_orig.jpg,58,,,,,0,58,58,58,,,,,,,,,,,,,,,,,,,-4.248046875,-12.71484375,0,0,1,1.57185411453,,,,,2015_Sep_02_1917,A,facesParametric,4,59.7453670071,
./stim/MorphF7_07_orig.jpg,59,,,,,0,59,59,59,,,,,,,,,,,,,,,,,,,-4.248046875,-12.71484375,1,0,0,1.85797405243,,,,,2015_Sep_02_1917,A,facesParametric,4,59.7453670071,
./stim/MorphM8_09_orig.jpg,60,,,,,0,60,60,60,,,,,,,,,,,,,,,,,,,-4.248046875,-12.71484375,0,0,1,1.53797721863,,,,,2015_Sep_02_1917,A,facesParametric,4,59.7453670071,
./stim/MorphF5_08_orig.jpg,61,,,,,0,61,61,61,,,,,,,,,,,,,,,,,,,-4.21875,-12.685546875,0,0,1,2.02647995949,,,,,2015_Sep_02_1917,A,facesParametric,4,59.7453670071,
./stim/MorphM8_00_orig.jpg,62,,,,,0,62,62,62,,,,,,,,,,,,,,,,,,,-4.21875,-12.685546875,0,0,1,1.49040198326,,,,,2015_Sep_02_1917,A,facesParametric,4,59.7453670071,
./stim/MorphF4_04_orig.jpg,63,,,,,0,63,63,63,,,,,,,,,,,,,,,,,,,-4.21875,-12.685546875,0,0,1,0.736121177673,,,,,2015_Sep_02_1917,A,facesParametric,4,59.7453670071,
./stim/MorphM8_05_orig.jpg,64,,,,,0,64,64,64,,,,,,,,,,,,,,,,,,,-4.21875,-12.685546875,0,0,1,1.13770604134,,,,,2015_Sep_02_1917,A,facesParametric,4,59.7453670071,
./stim/MorphM1_09_orig.jpg,65,,,,,0,65,65,65,,,,,,,,,,,,,,,,,,,-4.21875,-12.685546875,0,0,1,1.35699009895,,,,,2015_Sep_02_1917,A,facesParametric,4,59.7453670071,
./stim/MorphF8_04_orig.jpg,66,,,,,0,66,66,66,,,,,,,,,,,,,,,,,,,-4.21875,-12.71484375,0,0,1,1.6390581131,,,,,2015_Sep_02_1917,A,facesParametric,4,59.7453670071,
./stim/MorphM10_07_orig.jpg,67,,,,,0,67,67,67,,,,,,,,,,,,,,,,,,,-4.21875,-12.71484375,0,0,1,1.08738398552,,,,,2015_Sep_02_1917,A,facesParametric,4,59.7453670071,
./stim/MorphM5_05_orig.jpg,68,,,,,0,68,68,68,,,,,,,,,,,,,,,,,,,-4.21875,-12.71484375,1,0,0,1.40507316589,,,,,2015_Sep_02_1917,A,facesParametric,4,59.7453670071,
./stim/MorphM3_02_orig.jpg,69,,,,,0,69,69,69,,,,,,,,,,,,,,,,,,,-4.21875,-12.71484375,0,0,1,1.07045292854,,,,,2015_Sep_02_1917,A,facesParametric,4,59.7453670071,
./stim/MorphF2_08_orig.jpg,70,,,,,0,70,70,70,,,,,,,,,,,,,,,,,,,-4.21875,-12.71484375,0,0,1,1.4885468483,,,,,2015_Sep_02_1917,A,facesParametric,4,59.7453670071,
./stim/MorphM5_00_orig.jpg,71,,,,,0,71,71,71,,,,,,,,,,,,,,,,,,,-4.21875,-12.71484375,1,0,0,1.70630407333,,,,,2015_Sep_02_1917,A,facesParametric,4,59.7453670071,
./stim/MorphF6_07_orig.jpg,72,,,,,0,72,72,72,,,,,,,,,,,,,,,,,,,-4.21875,-12.71484375,0,0,1,1.10472297668,,,,,2015_Sep_02_1917,A,facesParametric,4,59.7453670071,
./stim/MorphM7_07_orig.jpg,73,,,,,0,73,73,73,,,,,,,,,,,,,,,,,,,-4.21875,-12.71484375,0,0,1,3.95306301117,,,,,2015_Sep_02_1917,A,facesParametric,4,59.7453670071,
./stim/MorphM4_05_orig.jpg,74,,,,,0,74,74,74,,,,,,,,,,,,,,,,,,,-4.248046875,-12.685546875,1,0,0,2.39525699615,,,,,2015_Sep_02_1917,A,facesParametric,4,59.7453670071,
./stim/MorphF1_02_orig.jpg,75,,,,,0,75,75,75,,,,,,,,,,,,,,,,,,,-4.248046875,-12.685546875,0,0,1,1.37204694748,,,,,2015_Sep_02_1917,A,facesParametric,4,59.7453670071,
./stim/MorphM1_03_orig.jpg,76,,,,,0,76,76,76,,,,,,,,,,,,,,,,,,,-4.248046875,-12.685546875,0,0,1,1.03756809235,,,,,2015_Sep_02_1917,A,facesParametric,4,59.7453670071,
./stim/MorphM6_01_orig.jpg,77,,,,,0,77,77,77,,,,,,,,,,,,,,,,,,,-4.248046875,-12.685546875,0,0,1,1.65796709061,,,,,2015_Sep_02_1917,A,facesParametric,4,59.7453670071,
./stim/MorphF5_05_orig.jpg,78,,,,,0,78,78,78,,,,,,,,,,,,,,,,,,,-4.248046875,-12.685546875,1,0,0,1.01930308342,,,,,2015_Sep_02_1917,A,facesParametric,4,59.7453670071,
./stim/MorphF4_10_orig.jpg,79,,,,,0,79,79,79,,,,,,,,,,,,,,,,,,,-4.248046875,-12.685546875,0,0,1,1.57439899445,,,,,2015_Sep_02_1917,A,facesParametric,4,59.7453670071,
./stim/MorphF9_03_orig.jpg,80,,,,,0,80,80,80,,,,,,,,,,,,,,,,,,,-4.21875,-12.65625,1,0,0,1.30647587776,,,,,2015_Sep_02_1917,A,facesParametric,4,59.7453670071,
./stim/MorphM8_04_orig.jpg,81,,,,,0,81,81,81,,,,,,,,,,,,,,,,,,,-4.21875,-12.65625,1,0,0,1.37243700027,,,,,2015_Sep_02_1917,A,facesParametric,4,59.7453670071,
./stim/MorphF2_04_orig.jpg,82,,,,,0,82,82,82,,,,,,,,,,,,,,,,,,,-4.21875,-12.65625,0,0,1,1.13782286644,,,,,2015_Sep_02_1917,A,facesParametric,4,59.7453670071,
./stim/MorphM10_01_orig.jpg,83,,,,,0,83,83,83,,,,,,,,,,,,,,,,,,,-4.21875,-12.65625,1,0,0,1.67395806313,,,,,2015_Sep_02_1917,A,facesParametric,4,59.7453670071,
./stim/MorphF6_10_orig.jpg,84,,,,,0,84,84,84,,,,,,,,,,,,,,,,,,,-4.21875,-12.65625,1,0,0,0.920295000076,,,,,2015_Sep_02_1917,A,facesParametric,4,59.7453670071,
./stim/MorphF10_00_orig.jpg,85,,,,,0,85,85,85,,,,,,,,,,,,,,,,,,,-4.248046875,-12.685546875,0,0,1,1.18904089928,,,,,2015_Sep_02_1917,A,facesParametric,4,59.7453670071,
./stim/MorphM10_04_orig.jpg,86,,,,,0,86,86,86,,,,,,,,,,,,,,,,,,,-4.248046875,-12.65625,0,0,1,2.29400897026,,,,,2015_Sep_02_1917,A,facesParametric,4,59.7453670071,
./stim/MorphM4_07_orig.jpg,87,,,,,0,87,87,87,,,,,,,,,,,,,,,,,,,-4.248046875,-12.65625,1,0,0,1.12132501602,,,,,2015_Sep_02_1917,A,facesParametric,4,59.7453670071,
./stim/MorphF10_07_orig.jpg,88,,,,,0,88,88,88,,,,,,,,,,,,,,,,,,,-4.21875,-12.59765625,1,0,0,2.12692713737,,,,,2015_Sep_02_1917,A,facesParametric,4,59.7453670071,
./stim/MorphF8_02_orig.jpg,89,,,,,0,89,89,89,,,,,,,,,,,,,,,,,,,-4.248046875,-12.568359375,0,0,1,1.59135103226,,,,,2015_Sep_02_1917,A,facesParametric,4,59.7453670071,
./stim/MorphM10_06_orig.jpg,90,,,,,0,90,90,90,,,,,,,,,,,,,,,,,,,-4.248046875,-12.568359375,1,0,0,1.35636806488,,,,,2015_Sep_02_1917,A,facesParametric,4,59.7453670071,
./stim/MorphF6_06_orig.jpg,91,,,,,0,91,91,91,,,,,,,,,,,,,,,,,,,-4.248046875,-12.568359375,0,0,1,2.79536700249,,,,,2015_Sep_02_1917,A,facesParametric,4,59.7453670071,
./stim/MorphF2_07_orig.jpg,92,,,,,0,92,92,92,,,,,,,,,,,,,,,,,,,-4.248046875,-12.568359375,1,0,0,1.28976416588,,,,,2015_Sep_02_1917,A,facesParametric,4,59.7453670071,
./stim/MorphF3_04_orig.jpg,93,,,,,0,93,93,93,,,,,,,,,,,,,,,,,,,-4.248046875,-12.568359375,0,0,1,1.10457801819,,,,,2015_Sep_02_1917,A,facesParametric,4,59.7453670071,
./stim/MorphM10_10_orig.jpg,94,,,,,0,94,94,94,,,,,,,,,,,,,,,,,,,-4.248046875,-12.568359375,1,0,0,1.95841097832,,,,,2015_Sep_02_1917,A,facesParametric,4,59.7453670071,
./stim/MorphF3_06_orig.jpg,95,,,,,0,95,95,95,,,,,,,,,,,,,,,,,,,-4.248046875,-12.59765625,0,0,1,1.20346093178,,,,,2015_Sep_02_1917,A,facesParametric,4,59.7453670071,
./stim/MorphM8_06_orig.jpg,96,,,,,0,96,96,96,,,,,,,,,,,,,,,,,,,-4.3359375,-12.744140625,0,0,1,2.54559016228,,,,,2015_Sep_02_1917,A,facesParametric,4,59.7453670071,
./stim/MorphM4_02_orig.jpg,97,,,,,0,97,97,97,,,,,,,,,,,,,,,,,,,-4.365234375,-12.71484375,0,0,1,1.28880500793,,,,,2015_Sep_02_1917,A,facesParametric,4,59.7453670071,
./stim/MorphF9_08_orig.jpg,98,,,,,0,98,98,98,,,,,,,,,,,,,,,,,,,-4.365234375,-12.71484375,1,0,0,1.27303004265,,,,,2015_Sep_02_1917,A,facesParametric,4,59.7453670071,
./stim/MorphF3_07_orig.jpg,99,,,,,0,99,99,99,,,,,,,,,,,,,,,,,,,-4.3359375,-12.83203125,0,0,1,3.46751093864,,,,,2015_Sep_02_1917,A,facesParametric,4,59.7453670071,
./stim/MorphM10_09_orig.jpg,100,,,,,0,100,100,100,,,,,,,,,,,,,,,,,,,-4.3359375,-12.802734375,1,0,0,1.18670511246,,,,,2015_Sep_02_1917,A,facesParametric,4,59.7453670071,
./stim/MorphM4_04_orig.jpg,101,,,,,0,101,101,101,,,,,,,,,,,,,,,,,,,-4.3359375,-12.802734375,1,0,0,2.19426512718,,,,,2015_Sep_02_1917,A,facesParametric,4,59.7453670071,
./stim/MorphM6_07_orig.jpg,102,,,,,0,102,102,102,,,,,,,,,,,,,,,,,,,-4.3359375,-12.802734375,0,0,1,1.32287096977,,,,,2015_Sep_02_1917,A,facesParametric,4,59.7453670071,
./stim/MorphF4_01_orig.jpg,103,,,,,0,103,103,103,,,,,,,,,,,,,,,,,,,-4.3359375,-12.802734375,0,0,1,0.90395617485,,,,,2015_Sep_02_1917,A,facesParametric,4,59.7453670071,
./stim/MorphF10_06_orig.jpg,104,,,,,0,104,104,104,,,,,,,,,,,,,,,,,,,-4.3359375,-12.802734375,0,0,1,0.903630971909,,,,,2015_Sep_02_1917,A,facesParametric,4,59.7453670071,
./stim/MorphM3_00_orig.jpg,105,,,,,0,105,105,105,,,,,,,,,,,,,,,,,,,-4.3359375,-12.802734375,0,0,1,1.30485987663,,,,,2015_Sep_02_1917,A,facesParametric,4,59.7453670071,
./stim/MorphF7_08_orig.jpg,106,,,,,0,106,106,106,,,,,,,,,,,,,,,,,,,-4.3359375,-12.802734375,1,0,0,1.84164905548,,,,,2015_Sep_02_1917,A,facesParametric,4,59.7453670071,
./stim/MorphF1_06_orig.jpg,107,,,,,0,107,107,107,,,,,,,,,,,,,,,,,,,-4.3359375,-12.802734375,0,0,1,1.17202997208,,,,,2015_Sep_02_1917,A,facesParametric,4,59.7453670071,
./stim/MorphM7_02_orig.jpg,108,,,,,0,108,108,108,,,,,,,,,,,,,,,,,,,-4.3359375,-12.802734375,0,0,1,4.0030579567,,,,,2015_Sep_02_1917,A,facesParametric,4,59.7453670071,
./stim/MorphM5_02_orig.jpg,109,,,,,0,109,109,109,,,,,,,,,,,,,,,,,,,-4.3359375,-12.802734375,0,0,1,4.90895199776,,,,,2015_Sep_02_1917,A,facesParametric,4,59.7453670071,
./stim/MorphM6_08_orig.jpg,110,,,,,0,110,110,110,,,,,,,,,,,,,,,,,,,-4.3359375,-12.7734375,0,0,1,5.88068890572,,,,,2015_Sep_02_1917,A,facesParametric,4,59.7453670071,
./stim/MorphF6_01_orig.jpg,111,,,,,0,111,111,111,,,,,,,,,,,,,,,,,,,-4.3359375,-12.7734375,1,0,0,1.47346782684,,,,,2015_Sep_02_1917,A,facesParametric,4,59.7453670071,
./stim/MorphM3_08_orig.jpg,112,,,,,0,112,112,112,,,,,,,,,,,,,,,,,,,-4.365234375,-12.685546875,1,0,0,3.21629309654,,,,,2015_Sep_02_1917,A,facesParametric,4,59.7453670071,
./stim/MorphF2_06_orig.jpg,113,,,,,0,113,113,113,,,,,,,,,,,,,,,,,,,-4.365234375,-12.685546875,0,0,1,1.12150812149,,,,,2015_Sep_02_1917,A,facesParametric,4,59.7453670071,
./stim/MorphM9_05_orig.jpg,114,,,,,0,114,114,114,,,,,,,,,,,,,,,,,,,-4.365234375,-12.626953125,1,0,0,3.50217890739,,,,,2015_Sep_02_1917,A,facesParametric,4,59.7453670071,
./stim/MorphM7_06_orig.jpg,115,,,,,0,115,115,115,,,,,,,,,,,,,,,,,,,-4.3359375,-12.65625,1,0,0,9.4334859848,,,,,2015_Sep_02_1917,A,facesParametric,4,59.7453670071,
./stim/MorphF7_00_orig.jpg,116,,,,,0,116,116,116,,,,,,,,,,,,,,,,,,,-4.3359375,-12.65625,0,0,1,4.35643601418,,,,,2015_Sep_02_1917,A,facesParametric,4,59.7453670071,
./stim/MorphM7_00_orig.jpg,117,,,,,0,117,117,117,,,,,,,,,,,,,,,,,,,-4.3359375,-12.65625,1,0,0,1.30597305298,,,,,2015_Sep_02_1917,A,facesParametric,4,59.7453670071,
./stim/MorphM6_02_orig.jpg,118,,,,,0,118,118,118,,,,,,,,,,,,,,,,,,,-4.3359375,-12.685546875,0,0,1,0.987921953201,,,,,2015_Sep_02_1917,A,facesParametric,4,59.7453670071,
./stim/MorphF7_04_orig.jpg,119,,,,,0,119,119,119,,,,,,,,,,,,,,,,,,,-4.306640625,-12.71484375,0,0,1,2.89774799347,,,,,2015_Sep_02_1917,A,facesParametric,4,59.7453670071,
./stim/MorphF4_00_orig.jpg,120,,,,,0,120,120,120,,,,,,,,,,,,,,,,,,,-4.306640625,-12.71484375,0,0,1,0.971343994141,,,,,2015_Sep_02_1917,A,facesParametric,4,59.7453670071,
./stim/MorphF9_07_orig.jpg,121,,,,,0,121,121,121,,,,,,,,,,,,,,,,,,,-4.306640625,-12.71484375,1,0,0,2.76406502724,,,,,2015_Sep_02_1917,A,facesParametric,4,59.7453670071,
./stim/MorphF4_05_orig.jpg,122,,,,,0,122,122,122,,,,,,,,,,,,,,,,,,,-4.306640625,-12.71484375,1,0,0,1.64088106155,,,,,2015_Sep_02_1917,A,facesParametric,4,59.7453670071,
./stim/MorphF5_10_orig.jpg,123,,,,,0,123,123,123,,,,,,,,,,,,,,,,,,,-4.306640625,-12.71484375,1,0,0,7.1556251049,,,,,2015_Sep_02_1917,A,facesParametric,4,59.7453670071,
./stim/MorphM9_06_orig.jpg,124,,,,,0,124,124,124,,,,,,,,,,,,,,,,,,,-4.306640625,-12.83203125,0,0,1,1.38957691193,,,,,2015_Sep_02_1917,A,facesParametric,4,59.7453670071,
./stim/MorphF1_00_orig.jpg,125,,,,,0,125,125,125,,,,,,,,,,,,,,,,,,,-4.306640625,-12.83203125,1,0,0,4.95997786522,,,,,2015_Sep_02_1917,A,facesParametric,4,59.7453670071,
./stim/MorphF5_07_orig.jpg,126,,,,,0,126,126,126,,,,,,,,,,,,,,,,,,,-4.306640625,-12.861328125,0,0,1,1.18816208839,,,,,2015_Sep_02_1917,A,facesParametric,4,59.7453670071,
./stim/MorphM6_06_orig.jpg,127,,,,,0,127,127,127,,,,,,,,,,,,,,,,,,,-4.306640625,-12.861328125,0,0,1,1.05359005928,,,,,2015_Sep_02_1917,A,facesParametric,4,59.7453670071,
./stim/MorphF2_00_orig.jpg,128,,,,,0,128,128,128,,,,,,,,,,,,,,,,,,,-4.306640625,-12.861328125,0,0,1,1.40544891357,,,,,2015_Sep_02_1917,A,facesParametric,4,59.7453670071,
./stim/MorphM6_03_orig.jpg,129,,,,,0,129,129,129,,,,,,,,,,,,,,,,,,,-4.306640625,-12.861328125,0,0,1,1.02105307579,,,,,2015_Sep_02_1917,A,facesParametric,4,59.7453670071,
./stim/MorphM3_04_orig.jpg,130,,,,,0,130,130,130,,,,,,,,,,,,,,,,,,,-4.3359375,-12.890625,1,0,0,2.32831788063,,,,,2015_Sep_02_1917,A,facesParametric,4,59.7453670071,
./stim/MorphM8_01_orig.jpg,131,,,,,0,131,131,131,,,,,,,,,,,,,,,,,,,-4.3359375,-12.890625,0,0,1,1.30511689186,,,,,2015_Sep_02_1917,A,facesParametric,4,59.7453670071,
./stim/MorphM1_06_orig.jpg,132,,,,,0,132,132,132,,,,,,,,,,,,,,,,,,,-4.365234375,-12.861328125,0,0,1,1.65804100037,,,,,2015_Sep_02_1917,A,facesParametric,4,59.7453670071,
./stim/MorphM2_09_orig.jpg,133,,,,,0,133,133,133,,,,,,,,,,,,,,,,,,,-4.365234375,-12.861328125,1,0,0,1.80866789818,,,,,2015_Sep_02_1917,A,facesParametric,4,59.7453670071,
./stim/MorphF2_01_orig.jpg,134,,,,,0,134,134,134,,,,,,,,,,,,,,,,,,,-4.365234375,-12.861328125,0,0,1,1.00278806686,,,,,2015_Sep_02_1917,A,facesParametric,4,59.7453670071,
./stim/MorphM5_01_orig.jpg,135,,,,,0,135,135,135,,,,,,,,,,,,,,,,,,,-4.365234375,-12.861328125,1,0,0,1.69172501564,,,,,2015_Sep_02_1917,A,facesParametric,4,59.7453670071,
./stim/MorphF8_03_orig.jpg,136,,,,,0,136,136,136,,,,,,,,,,,,,,,,,,,-4.365234375,-12.861328125,0,0,1,1.6570558548,,,,,2015_Sep_02_1917,A,facesParametric,4,59.7453670071,
./stim/MorphF10_03_orig.jpg,137,,,,,0,137,137,137,,,,,,,,,,,,,,,,,,,-4.39453125,-12.802734375,1,0,0,6.85445713997,,,,,2015_Sep_02_1917,A,facesParametric,4,59.7453670071,
./stim/MorphM7_09_orig.jpg,138,,,,,0,138,138,138,,,,,,,,,,,,,,,,,,,-4.51171875,-12.83203125,1,0,0,5.78006911278,,,,,2015_Sep_02_1917,A,facesParametric,4,59.7453670071,
./stim/MorphM9_00_orig.jpg,139,,,,,0,139,139,139,,,,,,,,,,,,,,,,,,,-4.51171875,-12.890625,0,0,1,1.32252812386,,,,,2015_Sep_02_1917,A,facesParametric,4,59.7453670071,
./stim/MorphM3_05_orig.jpg,140,,,,,0,140,140,140,,,,,,,,,,,,,,,,,,,-4.51171875,-12.890625,0,0,1,3.40024805069,,,,,2015_Sep_02_1917,A,facesParametric,4,59.7453670071,
./stim/MorphM1_07_orig.jpg,141,,,,,0,141,141,141,,,,,,,,,,,,,,,,,,,-4.658203125,-12.94921875,1,0,0,9.38247895241,,,,,2015_Sep_02_1917,A,facesParametric,4,59.7453670071,
./stim/MorphM9_07_orig.jpg,142,,,,,0,142,142,142,,,,,,,,,,,,,,,,,,,-4.62890625,-12.978515625,0,0,1,5.84763813019,,,,,2015_Sep_02_1917,A,facesParametric,4,59.7453670071,
./stim/MorphF3_03_orig.jpg,143,,,,,0,143,143,143,,,,,,,,,,,,,,,,,,,-4.62890625,-12.978515625,0,0,1,1.25662899017,,,,,2015_Sep_02_1917,A,facesParametric,4,59.7453670071,
./stim/MorphF4_07_orig.jpg,144,,,,,0,144,144,144,,,,,,,,,,,,,,,,,,,-4.62890625,-12.978515625,0,0,1,1.07074904442,,,,,2015_Sep_02_1917,A,facesParametric,4,59.7453670071,
./stim/MorphM2_10_orig.jpg,145,,,,,0,145,145,145,,,,,,,,,,,,,,,,,,,-4.62890625,-12.978515625,1,0,0,2.49575996399,,,,,2015_Sep_02_1917,A,facesParametric,4,59.7453670071,
./stim/MorphF7_06_orig.jpg,146,,,,,0,146,146,146,,,,,,,,,,,,,,,,,,,-4.62890625,-12.94921875,0,0,1,2.0436861515,,,,,2015_Sep_02_1917,A,facesParametric,4,59.7453670071,
./stim/MorphM8_02_orig.jpg,147,,,,,0,147,147,147,,,,,,,,,,,,,,,,,,,-4.62890625,-12.94921875,0,0,1,5.41206789017,,,,,2015_Sep_02_1917,A,facesParametric,4,59.7453670071,
./stim/MorphF3_05_orig.jpg,148,,,,,0,148,148,148,,,,,,,,,,,,,,,,,,,-4.658203125,-13.154296875,0,0,1,2.22665810585,,,,,2015_Sep_02_1917,A,facesParametric,4,59.7453670071,
./stim/MorphF6_04_orig.jpg,149,,,,,0,149,149,149,,,,,,,,,,,,,,,,,,,-4.658203125,-13.154296875,1,0,0,1.6749548912,,,,,2015_Sep_02_1917,A,facesParametric,4,59.7453670071,
./stim/MorphM4_10_orig.jpg,150,,,,,0,150,150,150,,,,,,,,,,,,,,,,,,,-4.658203125,-13.154296875,0,0,1,2.93165802956,,,,,2015_Sep_02_1917,A,facesParametric,4,59.7453670071,
./stim/MorphF10_08_orig.jpg,151,,,,,0,151,151,151,,,,,,,,,,,,,,,,,,,-4.658203125,-13.154296875,1,0,0,3.26715517044,,,,,2015_Sep_02_1917,A,facesParametric,4,59.7453670071,
./stim/MorphF5_02_orig.jpg,152,,,,,0,152,152,152,,,,,,,,,,,,,,,,,,,-4.658203125,-13.095703125,0,0,1,11.914634943,,,,,2015_Sep_02_1917,A,facesParametric,4,59.7453670071,
./stim/MorphF1_05_orig.jpg,153,,,,,0,153,153,153,,,,,,,,,,,,,,,,,,,-4.658203125,-13.095703125,0,0,1,5.42900514603,,,,,2015_Sep_02_1917,A,facesParametric,4,59.7453670071,
./stim/MorphF9_09_orig.jpg,154,,,,,0,154,154,154,,,,,,,,,,,,,,,,,,,-4.62890625,-13.06640625,1,0,0,2.54399895668,,,,,2015_Sep_02_1917,A,facesParametric,4,59.7453670071,
./stim/MorphF5_03_orig.jpg,155,,,,,0,155,155,155,,,,,,,,,,,,,,,,,,,-4.658203125,-13.154296875,0,0,1,2.78092503548,,,,,2015_Sep_02_1917,A,facesParametric,4,59.7453670071,
./stim/MorphF4_03_orig.jpg,156,,,,,0,156,156,156,,,,,,,,,,,,,,,,,,,-4.658203125,-13.154296875,1,0,0,1.87593603134,,,,,2015_Sep_02_1917,A,facesParametric,4,59.7453670071,
./stim/MorphF5_01_orig.jpg,157,,,,,0,157,157,157,,,,,,,,,,,,,,,,,,,-4.716796875,-13.125,0,0,1,5.71327805519,,,,,2015_Sep_02_1917,A,facesParametric,4,59.7453670071,
./stim/MorphM1_01_orig.jpg,158,,,,,0,158,158,158,,,,,,,,,,,,,,,,,,,-4.74609375,-13.154296875,1,0,0,3.11588597298,,,,,2015_Sep_02_1917,A,facesParametric,4,59.7453670071,
./stim/MorphF9_02_orig.jpg,159,,,,,0,159,159,159,,,,,,,,,,,,,,,,,,,-4.716796875,-13.125,0,0,1,1.27224612236,,,,,2015_Sep_02_1917,A,facesParametric,4,59.7453670071,
./stim/MorphF2_02_orig.jpg,160,,,,,0,160,160,160,,,,,,,,,,,,,,,,,,,-4.6875,-13.125,0,0,1,1.12149500847,,,,,2015_Sep_02_1917,A,facesParametric,4,59.7453670071,
./stim/MorphM8_10_orig.jpg,161,,,,,0,161,161,161,,,,,,,,,,,,,,,,,,,-4.62890625,-13.154296875,0,0,1,1.12117910385,,,,,2015_Sep_02_1917,A,facesParametric,4,59.7453670071,
./stim/MorphM1_10_orig.jpg,162,,,,,0,162,162,162,,,,,,,,,,,,,,,,,,,-4.658203125,-13.154296875,0,0,1,0.870413064957,,,,,2015_Sep_02_1917,A,facesParametric,4,59.7453670071,
./stim/MorphF10_04_orig.jpg,163,,,,,0,163,163,163,,,,,,,,,,,,,,,,,,,-4.6875,-13.154296875,1,0,0,1.05460906029,,,,,2015_Sep_02_1917,A,facesParametric,4,59.7453670071,
./stim/MorphF3_00_orig.jpg,164,,,,,0,164,164,164,,,,,,,,,,,,,,,,,,,-4.6875,-13.154296875,0,0,1,1.02076911926,,,,,2015_Sep_02_1917,A,facesParametric,4,59.7453670071,
./stim/MorphM2_07_orig.jpg,165,,,,,0,165,165,165,,,,,,,,,,,,,,,,,,,-4.658203125,-12.978515625,1,0,0,4.97631883621,,,,,2015_Sep_02_1917,A,facesParametric,4,59.7453670071,
./stim/MorphF7_05_orig.jpg,166,,,,,0,166,166,166,,,,,,,,,,,,,,,,,,,-4.658203125,-12.978515625,1,0,0,0.971067905426,,,,,2015_Sep_02_1917,A,facesParametric,4,59.7453670071,
./stim/MorphF6_03_orig.jpg,167,,,,,0,167,167,167,,,,,,,,,,,,,,,,,,,-4.658203125,-12.978515625,0,0,1,1.28878903389,,,,,2015_Sep_02_1917,A,facesParametric,4,59.7453670071,
./stim/MorphF3_02_orig.jpg,168,,,,,0,168,168,168,,,,,,,,,,,,,,,,,,,-4.658203125,-12.978515625,1,0,0,2.1608581543,,,,,2015_Sep_02_1917,A,facesParametric,4,59.7453670071,
./stim/MorphF1_01_orig.jpg,169,,,,,0,169,169,169,,,,,,,,,,,,,,,,,,,-4.658203125,-12.978515625,0,0,1,2.09362602234,,,,,2015_Sep_02_1917,A,facesParametric,4,59.7453670071,
./stim/MorphM1_04_orig.jpg,170,,,,,0,170,170,170,,,,,,,,,,,,,,,,,,,-4.658203125,-12.978515625,0,0,1,2.81444191933,,,,,2015_Sep_02_1917,A,facesParametric,4,59.7453670071,
./stim/MorphF4_09_orig.jpg,171,,,,,0,171,171,171,,,,,,,,,,,,,,,,,,,-4.658203125,-12.978515625,0,0,1,1.5403008461,,,,,2015_Sep_02_1917,A,facesParametric,4,59.7453670071,
./stim/MorphM6_00_orig.jpg,172,,,,,0,172,172,172,,,,,,,,,,,,,,,,,,,-4.658203125,-12.978515625,0,0,1,1.27268886566,,,,,2015_Sep_02_1917,A,facesParametric,4,59.7453670071,
./stim/MorphM5_09_orig.jpg,173,,,,,0,173,173,173,,,,,,,,,,,,,,,,,,,-4.658203125,-12.978515625,1,0,0,1.59064412117,,,,,2015_Sep_02_1917,A,facesParametric,4,59.7453670071,
./stim/MorphF5_06_orig.jpg,174,,,,,0,174,174,174,,,,,,,,,,,,,,,,,,,-4.658203125,-12.978515625,0,0,1,1.1222038269,,,,,2015_Sep_02_1917,A,facesParametric,4,59.7453670071,
./stim/MorphF9_01_orig.jpg,175,,,,,0,175,175,175,,,,,,,,,,,,,,,,,,,-4.658203125,-12.978515625,0,0,1,1.42120718956,,,,,2015_Sep_02_1917,A,facesParametric,4,59.7453670071,
./stim/MorphM5_07_orig.jpg,176,,,,,0,176,176,176,,,,,,,,,,,,,,,,,,,-4.658203125,-12.978515625,1,0,0,1.15506410599,,,,,2015_Sep_02_1917,A,facesParametric,4,59.7453670071,
./stim/MorphM2_01_orig.jpg,177,,,,,0,177,177,177,,,,,,,,,,,,,,,,,,,-4.658203125,-12.978515625,0,0,1,1.28939986229,,,,,2015_Sep_02_1917,A,facesParametric,4,59.7453670071,
./stim/MorphM7_03_orig.jpg,178,,,,,0,178,178,178,,,,,,,,,,,,,,,,,,,-4.658203125,-12.978515625,1,0,0,2.9135119915,,,,,2015_Sep_02_1917,A,facesParametric,4,59.7453670071,
./stim/MorphM9_09_orig.jpg,179,,,,,0,179,179,179,,,,,,,,,,,,,,,,,,,-4.658203125,-12.978515625,0,0,1,1.28820586205,,,,,2015_Sep_02_1917,A,facesParametric,4,59.7453670071,
./stim/MorphF9_10_orig.jpg,180,,,,,0,180,180,180,,,,,,,,,,,,,,,,,,,-4.62890625,-13.0078125,1,0,0,2.89839816093,,,,,2015_Sep_02_1917,A,facesParametric,4,59.7453670071,
./stim/MorphF8_10_orig.jpg,181,,,,,0,181,181,181,,,,,,,,,,,,,,,,,,,-4.62890625,-13.0078125,1,0,0,1.52404403687,,,,,2015_Sep_02_1917,A,facesParametric,4,59.7453670071,
./stim/MorphF10_10_orig.jpg,182,,,,,0,182,182,182,,,,,,,,,,,,,,,,,,,-4.62890625,-13.0078125,1,0,0,2.00884795189,,,,,2015_Sep_02_1917,A,facesParametric,4,59.7453670071,
./stim/MorphM3_09_orig.jpg,183,,,,,0,183,183,183,,,,,,,,,,,,,,,,,,,-4.62890625,-13.0078125,0,0,1,3.43478894234,,,,,2015_Sep_02_1917,A,facesParametric,4,59.7453670071,
./stim/MorphF10_05_orig.jpg,184,,,,,0,184,184,184,,,,,,,,,,,,,,,,,,,-4.62890625,-13.0078125,1,0,0,1.67413115501,,,,,2015_Sep_02_1917,A,facesParametric,4,59.7453670071,
./stim/MorphF6_00_orig.jpg,185,,,,,0,185,185,185,,,,,,,,,,,,,,,,,,,-4.62890625,-13.037109375,1,0,0,1.02108597755,,,,,2015_Sep_02_1917,A,facesParametric,4,59.7453670071,
./stim/MorphF8_08_orig.jpg,186,,,,,0,186,186,186,,,,,,,,,,,,,,,,,,,-4.658203125,-13.06640625,1,0,0,1.84040784836,,,,,2015_Sep_02_1917,A,facesParametric,4,59.7453670071,
./stim/MorphF7_10_orig.jpg,187,,,,,0,187,187,187,,,,,,,,,,,,,,,,,,,-4.658203125,-13.06640625,1,0,0,1.37281417847,,,,,2015_Sep_02_1917,A,facesParametric,4,59.7453670071,
./stim/MorphM9_10_orig.jpg,188,,,,,0,188,188,188,,,,,,,,,,,,,,,,,,,-4.658203125,-13.06640625,1,0,0,0.970440149307,,,,,2015_Sep_02_1917,A,facesParametric,4,59.7453670071,
./stim/MorphM10_05_orig.jpg,189,,,,,0,189,189,189,,,,,,,,,,,,,,,,,,,-4.658203125,-13.06640625,1,0,0,0.737838029861,,,,,2015_Sep_02_1917,A,facesParametric,4,59.7453670071,
./stim/MorphM8_03_orig.jpg,190,,,,,0,190,190,190,,,,,,,,,,,,,,,,,,,-4.658203125,-13.06640625,0,0,1,0.917520999908,,,,,2015_Sep_02_1917,A,facesParametric,4,59.7453670071,
./stim/MorphF2_10_orig.jpg,191,,,,,0,191,191,191,,,,,,,,,,,,,,,,,,,-4.658203125,-13.06640625,1,0,0,0.903771877289,,,,,2015_Sep_02_1917,A,facesParametric,4,59.7453670071,
./stim/MorphM1_02_orig.jpg,192,,,,,0,192,192,192,,,,,,,,,,,,,,,,,,,-4.658203125,-13.06640625,0,0,1,1.17157101631,,,,,2015_Sep_02_1917,A,facesParametric,4,59.7453670071,
./stim/MorphM4_09_orig.jpg,193,,,,,0,193,193,193,,,,,,,,,,,,,,,,,,,-4.658203125,-13.06640625,1,0,0,3.30022001266,,,,,2015_Sep_02_1917,A,facesParametric,4,59.7453670071,
./stim/MorphM8_07_orig.jpg,194,,,,,0,194,194,194,,,,,,,,,,,,,,,,,,,-4.658203125,-13.06640625,0,0,1,4.40615987778,,,,,2015_Sep_02_1917,A,facesParametric,4,59.7453670071,
./stim/MorphM1_08_orig.jpg,195,,,,,0,195,195,195,,,,,,,,,,,,,,,,,,,-4.599609375,-13.0078125,0,0,1,1.13870096207,,,,,2015_Sep_02_1917,A,facesParametric,4,59.7453670071,
./stim/MorphF4_08_orig.jpg,196,,,,,0,196,196,196,,,,,,,,,,,,,,,,,,,-4.599609375,-13.0078125,0,0,1,1.12125897408,,,,,2015_Sep_02_1917,A,facesParametric,4,59.7453670071,
./stim/MorphM9_04_orig.jpg,197,,,,,0,197,197,197,,,,,,,,,,,,,,,,,,,-4.599609375,-13.0078125,1,0,0,2.09344887733,,,,,2015_Sep_02_1917,A,facesParametric,4,59.7453670071,
./stim/MorphF1_09_orig.jpg,198,,,,,0,198,198,198,,,,,,,,,,,,,,,,,,,-4.599609375,-13.0078125,0,0,1,1.20556306839,,,,,2015_Sep_02_1917,A,facesParametric,4,59.7453670071,
./stim/MorphM9_08_orig.jpg,199,,,,,0,199,199,199,,,,,,,,,,,,,,,,,,,-4.51171875,-13.037109375,1,0,0,7.33980989456,,,,,2015_Sep_02_1917,A,facesParametric,4,59.7453670071,
./stim/MorphF10_01_orig.jpg,200,,,,,0,200,200,200,,,,,,,,,,,,,,,,,,,-4.51171875,-13.037109375,0,0,1,2.27813005447,,,,,2015_Sep_02_1917,A,facesParametric,4,59.7453670071,
./stim/MorphM10_00_orig.jpg,201,,,,,0,201,201,201,,,,,,,,,,,,,,,,,,,-4.51171875,-13.037109375,1,0,0,2.07672095299,,,,,2015_Sep_02_1917,A,facesParametric,4,59.7453670071,
./stim/MorphM2_00_orig.jpg,202,,,,,0,202,202,202,,,,,,,,,,,,,,,,,,,-4.51171875,-13.037109375,0,0,1,1.05406212807,,,,,2015_Sep_02_1917,A,facesParametric,4,59.7453670071,
./stim/MorphM9_01_orig.jpg,203,,,,,0,203,203,203,,,,,,,,,,,,,,,,,,,-4.51171875,-13.037109375,0,0,1,1.00281596184,,,,,2015_Sep_02_1917,A,facesParametric,4,59.7453670071,
./stim/MorphF7_09_orig.jpg,204,,,,,0,204,204,204,,,,,,,,,,,,,,,,,,,-4.51171875,-13.037109375,1,0,0,1.3565621376,,,,,2015_Sep_02_1917,A,facesParametric,4,59.7453670071,
./stim/MorphF9_00_orig.jpg,205,,,,,0,205,205,205,,,,,,,,,,,,,,,,,,,-4.453125,-13.037109375,0,0,1,3.46804690361,,,,,2015_Sep_02_1917,A,facesParametric,4,59.7453670071,
./stim/MorphM2_02_orig.jpg,206,,,,,0,206,206,206,,,,,,,,,,,,,,,,,,,-4.453125,-13.037109375,1,0,0,1.22106003761,,,,,2015_Sep_02_1917,A,facesParametric,4,59.7453670071,
./stim/MorphF8_05_orig.jpg,207,,,,,0,207,207,207,,,,,,,,,,,,,,,,,,,-4.453125,-13.037109375,0,0,1,2.00918912888,,,,,2015_Sep_02_1917,A,facesParametric,4,59.7453670071,
./stim/MorphF3_09_orig.jpg,208,,,,,0,208,208,208,,,,,,,,,,,,,,,,,,,-4.453125,-13.037109375,1,0,0,3.45100307465,,,,,2015_Sep_02_1917,A,facesParametric,4,59.7453670071,
./stim/MorphM5_10_orig.jpg,209,,,,,0,209,209,209,,,,,,,,,,,,,,,,,,,-4.365234375,-13.0078125,0,0,1,6.51831197739,,,,,2015_Sep_02_1917,A,facesParametric,4,59.7453670071,
./stim/MorphM8_08_orig.jpg,210,,,,,0,210,210,210,,,,,,,,,,,,,,,,,,,-4.365234375,-13.0078125,0,0,1,4.3899679184,,,,,2015_Sep_02_1917,A,facesParametric,4,59.7453670071,
./stim/MorphM3_07_orig.jpg,211,,,,,0,211,211,211,,,,,,,,,,,,,,,,,,,-4.365234375,-13.0078125,0,0,1,3.13352108002,,,,,2015_Sep_02_1917,A,facesParametric,4,59.7453670071,
./stim/MorphM5_06_orig.jpg,212,,,,,0,212,212,212,,,,,,,,,,,,,,,,,,,-4.3359375,-12.94921875,0,0,1,2.61089706421,,,,,2015_Sep_02_1917,A,facesParametric,4,59.7453670071,
./stim/MorphF5_09_orig.jpg,213,,,,,0,213,213,213,,,,,,,,,,,,,,,,,,,-4.3359375,-12.94921875,1,0,0,4.42281794548,,,,,2015_Sep_02_1917,A,facesParametric,4,59.7453670071,
./stim/MorphF8_06_orig.jpg,214,,,,,0,214,214,214,,,,,,,,,,,,,,,,,,,-4.3359375,-12.94921875,0,0,1,1.87594413757,,,,,2015_Sep_02_1917,A,facesParametric,4,59.7453670071,
./stim/MorphF5_04_orig.jpg,215,,,,,0,215,215,215,,,,,,,,,,,,,,,,,,,-4.3359375,-12.94921875,1,0,0,1.87480401993,,,,,2015_Sep_02_1917,A,facesParametric,4,59.7453670071,
./stim/MorphM2_04_orig.jpg,216,,,,,0,216,216,216,,,,,,,,,,,,,,,,,,,-4.3359375,-12.94921875,1,0,0,4.72506308556,,,,,2015_Sep_02_1917,A,facesParametric,4,59.7453670071,
./stim/MorphF2_05_orig.jpg,217,,,,,0,217,217,217,,,,,,,,,,,,,,,,,,,-4.3359375,-12.94921875,1,0,0,1.10511112213,,,,,2015_Sep_02_1917,A,facesParametric,4,59.7453670071,
./stim/MorphM7_01_orig.jpg,218,,,,,0,218,218,218,,,,,,,,,,,,,,,,,,,-4.3359375,-12.94921875,0,0,1,1.32286310196,,,,,2015_Sep_02_1917,A,facesParametric,4,59.7453670071,
./stim/MorphF10_09_orig.jpg,219,,,,,0,219,219,219,,,,,,,,,,,,,,,,,,,-4.3359375,-12.94921875,1,0,0,1.22191786766,,,,,2015_Sep_02_1917,A,facesParametric,4,59.7453670071,
,,,,,,,,,,,,,,,,,,,,,,,,,,,,,,,,,,return,17.6479740143,,,2015_Sep_02_1917,A,facesParametric,4,59.7453670071,
./stim/MorphM6_10_orig.jpg,0,,,,,,,,,0,0,0,0,,,,,,,,,,,,,,,6.064453125,2.87109375,1,0,0,4.59238314629,,,,,2015_Sep_02_1917,A,facesParametric,4,59.7453670071,
./stim/MorphF9_04_orig.jpg,1,,,,,,,,,0,1,1,1,,,,,,,,,,,,,,,5.859375,2.75390625,0,0,1,2.76360797882,,,,,2015_Sep_02_1917,A,facesParametric,4,59.7453670071,
./stim/MorphM3_03_orig.jpg,2,,,,,,,,,0,2,2,2,,,,,,,,,,,,,,,5.80078125,2.666015625,1,0,0,1.03779911995,,,,,2015_Sep_02_1917,A,facesParametric,4,59.7453670071,
./stim/MorphM1_00_orig.jpg,3,,,,,,,,,0,3,3,3,,,,,,,,,,,,,,,5.712890625,2.4609375,0,0,1,2.31153917313,,,,,2015_Sep_02_1917,A,facesParametric,4,59.7453670071,
./stim/MorphM6_09_orig.jpg,4,,,,,,,,,0,4,4,4,,,,,,,,,,,,,,,5.625,2.255859375,1,0,0,1.20551800728,,,,,2015_Sep_02_1917,A,facesParametric,4,59.7453670071,
./stim/MorphM10_02_orig.jpg,5,,,,,,,,,0,5,5,5,,,,,,,,,,,,,,,5.68359375,2.197265625,0,0,1,1.64085221291,,,,,2015_Sep_02_1917,A,facesParametric,4,59.7453670071,
./stim/MorphM3_06_orig.jpg,6,,,,,,,,,0,6,6,6,,,,,,,,,,,,,,,5.712890625,2.431640625,1,0,0,2.93132805824,,,,,2015_Sep_02_1917,A,facesParametric,4,59.7453670071,
./stim/MorphM7_08_orig.jpg,7,,,,,,,,,0,7,7,7,,,,,,,,,,,,,,,5.712890625,2.431640625,1,0,0,1.94058895111,,,,,2015_Sep_02_1917,A,facesParametric,4,59.7453670071,
./stim/MorphM6_04_orig.jpg,8,,,,,,,,,0,8,8,8,,,,,,,,,,,,,,,5.595703125,2.314453125,0,0,1,0.987565994263,,,,,2015_Sep_02_1917,A,facesParametric,4,59.7453670071,
./stim/MorphM2_05_orig.jpg,9,,,,,,,,,0,9,9,9,,,,,,,,,,,,,,,5.5078125,2.2265625,0,0,1,1.03777694702,,,,,2015_Sep_02_1917,A,facesParametric,4,59.7453670071,
./stim/MorphM3_01_orig.jpg,10,,,,,,,,,0,10,10,10,,,,,,,,,,,,,,,5.390625,2.138671875,0,0,1,1.05494499207,,,,,2015_Sep_02_1917,A,facesParametric,4,59.7453670071,
./stim/MorphF1_03_orig.jpg,11,,,,,,,,,0,11,11,11,,,,,,,,,,,,,,,5.21484375,1.875,0,0,1,0.717099905014,,,,,2015_Sep_02_1917,A,facesParametric,4,59.7453670071,
./stim/MorphF8_09_orig.jpg,12,,,,,,,,,0,12,12,12,,,,,,,,,,,,,,,5.21484375,1.875,0,0,1,1.05485200882,,,,,2015_Sep_02_1917,A,facesParametric,4,59.7453670071,
./stim/MorphF3_01_orig.jpg,13,,,,,,,,,0,13,13,13,,,,,,,,,,,,,,,5.21484375,1.875,0,0,1,0.86974811554,,,,,2015_Sep_02_1917,A,facesParametric,4,59.7453670071,
./stim/MorphF7_03_orig.jpg,14,,,,,,,,,0,14,14,14,,,,,,,,,,,,,,,5.21484375,1.904296875,0,0,1,1.47143816948,,,,,2015_Sep_02_1917,A,facesParametric,4,59.7453670071,
./stim/MorphM1_05_orig.jpg,15,,,,,,,,,0,15,15,15,,,,,,,,,,,,,,,5.21484375,1.904296875,0,0,1,0.769692182541,,,,,2015_Sep_02_1917,A,facesParametric,4,59.7453670071,
./stim/MorphM5_08_orig.jpg,16,,,,,,,,,0,16,16,16,,,,,,,,,,,,,,,5.244140625,1.875,1,0,0,1.10465312004,,,,,2015_Sep_02_1917,A,facesParametric,4,59.7453670071,
./stim/MorphF7_01_orig.jpg,17,,,,,,,,,0,17,17,17,,,,,,,,,,,,,,,5.244140625,1.875,0,0,1,0.834572076797,,,,,2015_Sep_02_1917,A,facesParametric,4,59.7453670071,
./stim/MorphF1_10_orig.jpg,18,,,,,,,,,0,18,18,18,,,,,,,,,,,,,,,5.244140625,1.93359375,0,0,1,1.92636299133,,,,,2015_Sep_02_1917,A,facesParametric,4,59.7453670071,
./stim/MorphF9_06_orig.jpg,19,,,,,,,,,0,19,19,19,,,,,,,,,,,,,,,5.244140625,1.93359375,1,0,0,1.50813317299,,,,,2015_Sep_02_1917,A,facesParametric,4,59.7453670071,
./stim/MorphM4_00_orig.jpg,20,,,,,,,,,0,20,20,20,,,,,,,,,,,,,,,5.244140625,1.93359375,1,0,0,2.51120996475,,,,,2015_Sep_02_1917,A,facesParametric,4,59.7453670071,
./stim/MorphM10_08_orig.jpg,21,,,,,,,,,0,21,21,21,,,,,,,,,,,,,,,5.2734375,2.021484375,1,0,0,1.9248380661,,,,,2015_Sep_02_1917,A,facesParametric,4,59.7453670071,
./stim/MorphF8_07_orig.jpg,22,,,,,,,,,0,22,22,22,,,,,,,,,,,,,,,5.33203125,1.962890625,1,0,0,0.818642139435,,,,,2015_Sep_02_1917,A,facesParametric,4,59.7453670071,
./stim/MorphF6_02_orig.jpg,23,,,,,,,,,0,23,23,23,,,,,,,,,,,,,,,5.33203125,1.962890625,1,0,0,0.819828987122,,,,,2015_Sep_02_1917,A,facesParametric,4,59.7453670071,
./stim/MorphM2_08_orig.jpg,24,,,,,,,,,0,24,24,24,,,,,,,,,,,,,,,5.361328125,1.875,0,0,1,1.03787183762,,,,,2015_Sep_02_1917,A,facesParametric,4,59.7453670071,
./stim/MorphF9_05_orig.jpg,25,,,,,,,,,0,25,25,25,,,,,,,,,,,,,,,5.15625,1.69921875,0,0,1,2.7974820137,,,,,2015_Sep_02_1917,A,facesParametric,4,59.7453670071,
./stim/MorphF1_08_orig.jpg,26,,,,,,,,,0,26,26,26,,,,,,,,,,,,,,,5.09765625,1.640625,1,0,0,1.87473392487,,,,,2015_Sep_02_1917,A,facesParametric,4,59.7453670071,
./stim/MorphF6_09_orig.jpg,27,,,,,,,,,0,27,27,27,,,,,,,,,,,,,,,5.09765625,1.640625,1,0,0,1.02096605301,,,,,2015_Sep_02_1917,A,facesParametric,4,59.7453670071,
./stim/MorphF2_09_orig.jpg,28,,,,,,,,,0,28,28,28,,,,,,,,,,,,,,,5.126953125,1.69921875,1,0,0,0.819154024124,,,,,2015_Sep_02_1917,A,facesParametric,4,59.7453670071,
./stim/MorphF1_04_orig.jpg,29,,,,,,,,,0,29,29,29,,,,,,,,,,,,,,,5.126953125,1.69921875,0,0,1,1.2892100811,,,,,2015_Sep_02_1917,A,facesParametric,4,59.7453670071,
./stim/MorphM4_06_orig.jpg,30,,,,,,,,,0,30,30,30,,,,,,,,,,,,,,,5.0390625,1.875,1,0,0,1.15463495255,,,,,2015_Sep_02_1917,A,facesParametric,4,59.7453670071,
./stim/MorphM5_04_orig.jpg,31,,,,,,,,,0,31,31,31,,,,,,,,,,,,,,,4.951171875,1.81640625,0,0,1,1.08809614182,,,,,2015_Sep_02_1917,A,facesParametric,4,59.7453670071,
./stim/MorphF10_02_orig.jpg,32,,,,,,,,,0,32,32,32,,,,,,,,,,,,,,,4.921875,1.7578125,1,0,0,1.70833277702,,,,,2015_Sep_02_1917,A,facesParametric,4,59.7453670071,
./stim/MorphF6_05_orig.jpg,33,,,,,,,,,0,33,33,33,,,,,,,,,,,,,,,4.921875,1.7578125,1,0,0,1.13832402229,,,,,2015_Sep_02_1917,A,facesParametric,4,59.7453670071,
./stim/MorphF8_01_orig.jpg,34,,,,,,,,,0,34,34,34,,,,,,,,,,,,,,,4.921875,1.7578125,1,0,0,0.819851160049,,,,,2015_Sep_02_1917,A,facesParametric,4,59.7453670071,
./stim/MorphM2_06_orig.jpg,35,,,,,,,,,0,35,35,35,,,,,,,,,,,,,,,4.86328125,1.69921875,0,0,1,1.49047708511,,,,,2015_Sep_02_1917,A,facesParametric,4,59.7453670071,
./stim/MorphM9_02_orig.jpg,36,,,,,,,,,0,36,36,36,,,,,,,,,,,,,,,4.775390625,1.69921875,0,0,1,1.05448389053,,,,,2015_Sep_02_1917,A,facesParametric,4,59.7453670071,
./stim/MorphM5_03_orig.jpg,37,,,,,,,,,0,37,37,37,,,,,,,,,,,,,,,4.74609375,1.69921875,1,0,0,1.13936400414,,,,,2015_Sep_02_1917,A,facesParametric,4,59.7453670071,
./stim/MorphM4_01_orig.jpg,38,,,,,,,,,0,38,38,38,,,,,,,,,,,,,,,4.775390625,1.669921875,0,0,1,1.23805308342,,,,,2015_Sep_02_1917,A,facesParametric,4,59.7453670071,
./stim/MorphM6_05_orig.jpg,39,,,,,,,,,0,39,39,39,,,,,,,,,,,,,,,4.775390625,1.669921875,1,0,0,1.70801496506,,,,,2015_Sep_02_1917,A,facesParametric,4,59.7453670071,
./stim/MorphF4_02_orig.jpg,40,,,,,,,,,0,40,40,40,,,,,,,,,,,,,,,4.775390625,1.58203125,0,0,1,1.43931603432,,,,,2015_Sep_02_1917,A,facesParametric,4,59.7453670071,
./stim/MorphM9_03_orig.jpg,41,,,,,,,,,0,41,41,41,,,,,,,,,,,,,,,4.716796875,1.58203125,0,0,1,0.819804191589,,,,,2015_Sep_02_1917,A,facesParametric,4,59.7453670071,
./stim/MorphF4_06_orig.jpg,42,,,,,,,,,0,42,42,42,,,,,,,,,,,,,,,4.6875,1.552734375,0,0,1,1.60771298409,,,,,2015_Sep_02_1917,A,facesParametric,4,59.7453670071,
./stim/MorphF5_00_orig.jpg,43,,,,,,,,,0,43,43,43,,,,,,,,,,,,,,,4.6875,1.552734375,1,0,0,1.37226605415,,,,,2015_Sep_02_1917,A,facesParametric,4,59.7453670071,
./stim/MorphM7_04_orig.jpg,44,,,,,,,,,0,44,44,44,,,,,,,,,,,,,,,4.74609375,1.552734375,1,0,0,3.7692258358,,,,,2015_Sep_02_1917,A,facesParametric,4,59.7453670071,
./stim/MorphF1_07_orig.jpg,45,,,,,,,,,0,45,45,45,,,,,,,,,,,,,,,4.74609375,1.552734375,0,0,1,1.07180595398,,,,,2015_Sep_02_1917,A,facesParametric,4,59.7453670071,
./stim/MorphF7_02_orig.jpg,46,,,,,,,,,0,46,46,46,,,,,,,,,,,,,,,4.74609375,1.552734375,1,0,0,1.13820505142,,,,,2015_Sep_02_1917,A,facesParametric,4,59.7453670071,
./stim/MorphF3_08_orig.jpg,47,,,,,,,,,0,47,47,47,,,,,,,,,,,,,,,4.716796875,1.5234375,0,0,1,1.84220814705,,,,,2015_Sep_02_1917,A,facesParametric,4,59.7453670071,
./stim/MorphM4_03_orig.jpg,48,,,,,,,,,0,48,48,48,,,,,,,,,,,,,,,4.6875,1.494140625,1,0,0,1.44104385376,,,,,2015_Sep_02_1917,A,facesParametric,4,59.7453670071,
./stim/MorphM7_05_orig.jpg,49,,,,,,,,,0,49,49,49,,,,,,,,,,,,,,,4.6875,1.494140625,0,0,1,1.40658688545,,,,,2015_Sep_02_1917,A,facesParametric,4,59.7453670071,
./stim/MorphM4_08_orig.jpg,50,,,,,,,,,0,50,50,50,,,,,,,,,,,,,,,4.716796875,1.46484375,0,0,1,1.47281908989,,,,,2015_Sep_02_1917,A,facesParametric,4,59.7453670071,
./stim/MorphM2_03_orig.jpg,51,,,,,,,,,0,51,51,51,,,,,,,,,,,,,,,4.658203125,1.46484375,0,0,1,1.03775310516,,,,,2015_Sep_02_1917,A,facesParametric,4,59.7453670071,
./stim/MorphF3_10_orig.jpg,52,,,,,,,,,0,52,52,52,,,,,,,,,,,,,,,4.62890625,1.435546875,0,0,1,1.07033395767,,,,,2015_Sep_02_1917,A,facesParametric,4,59.7453670071,
./stim/MorphF6_08_orig.jpg,53,,,,,,,,,0,53,53,53,,,,,,,,,,,,,,,4.62890625,1.435546875,0,0,1,1.58921909332,,,,,2015_Sep_02_1917,A,facesParametric,4,59.7453670071,
./stim/MorphM3_10_orig.jpg,54,,,,,,,,,0,54,54,54,,,,,,,,,,,,,,,4.658203125,1.40625,1,0,0,0.987202167511,,,,,2015_Sep_02_1917,A,facesParametric,4,59.7453670071,
./stim/MorphM10_03_orig.jpg,55,,,,,,,,,0,55,55,55,,,,,,,,,,,,,,,4.658203125,1.40625,1,0,0,1.32269406319,,,,,2015_Sep_02_1917,A,facesParametric,4,59.7453670071,
./stim/MorphF2_03_orig.jpg,56,,,,,,,,,0,56,56,56,,,,,,,,,,,,,,,4.6875,1.40625,0,0,1,1.33963298798,,,,,2015_Sep_02_1917,A,facesParametric,4,59.7453670071,
./stim/MorphM7_10_orig.jpg,57,,,,,,,,,0,57,57,57,,,,,,,,,,,,,,,4.775390625,1.46484375,1,0,0,0.837345838547,,,,,2015_Sep_02_1917,A,facesParametric,4,59.7453670071,
./stim/MorphF8_00_orig.jpg,58,,,,,,,,,0,58,58,58,,,,,,,,,,,,,,,4.8046875,1.435546875,0,0,1,1.62202596664,,,,,2015_Sep_02_1917,A,facesParametric,4,59.7453670071,
./stim/MorphF7_07_orig.jpg,59,,,,,,,,,0,59,59,59,,,,,,,,,,,,,,,4.775390625,1.40625,0,0,1,2.19405794144,,,,,2015_Sep_02_1917,A,facesParametric,4,59.7453670071,
./stim/MorphM8_09_orig.jpg,60,,,,,,,,,0,60,60,60,,,,,,,,,,,,,,,4.8046875,1.435546875,0,0,1,0.920558214188,,,,,2015_Sep_02_1917,A,facesParametric,4,59.7453670071,
./stim/MorphF5_08_orig.jpg,61,,,,,,,,,0,61,61,61,,,,,,,,,,,,,,,4.8046875,1.376953125,0,0,1,1.67491602898,,,,,2015_Sep_02_1917,A,facesParametric,4,59.7453670071,
./stim/MorphM8_00_orig.jpg,62,,,,,,,,,0,62,62,62,,,,,,,,,,,,,,,4.775390625,1.318359375,1,0,0,3.43429708481,,,,,2015_Sep_02_1917,A,facesParametric,4,59.7453670071,
./stim/MorphF4_04_orig.jpg,63,,,,,,,,,0,63,63,63,,,,,,,,,,,,,,,4.775390625,1.2890625,1,0,0,1.5406730175,,,,,2015_Sep_02_1917,A,facesParametric,4,59.7453670071,
./stim/MorphM8_05_orig.jpg,64,,,,,,,,,0,64,64,64,,,,,,,,,,,,,,,4.775390625,1.34765625,1,0,0,1.80861711502,,,,,2015_Sep_02_1917,A,facesParametric,4,59.7453670071,
./stim/MorphM1_09_orig.jpg,65,,,,,,,,,0,65,65,65,,,,,,,,,,,,,,,4.8046875,1.2890625,0,0,1,1.02106785774,,,,,2015_Sep_02_1917,A,facesParametric,4,59.7453670071,
./stim/MorphF8_04_orig.jpg,66,,,,,,,,,0,66,66,66,,,,,,,,,,,,,,,4.775390625,1.259765625,1,0,0,1.33975195885,,,,,2015_Sep_02_1917,A,facesParametric,4,59.7453670071,
./stim/MorphM10_07_orig.jpg,67,,,,,,,,,0,67,67,67,,,,,,,,,,,,,,,4.775390625,1.201171875,1,0,0,2.27797007561,,,,,2015_Sep_02_1917,A,facesParametric,4,59.7453670071,
./stim/MorphM5_05_orig.jpg,68,,,,,,,,,0,68,68,68,,,,,,,,,,,,,,,4.775390625,1.171875,0,0,1,1.33917403221,,,,,2015_Sep_02_1917,A,facesParametric,4,59.7453670071,
./stim/MorphM3_02_orig.jpg,69,,,,,,,,,0,69,69,69,,,,,,,,,,,,,,,4.62890625,1.11328125,1,0,0,3.63549208641,,,,,2015_Sep_02_1917,A,facesParametric,4,59.7453670071,
./stim/MorphF2_08_orig.jpg,70,,,,,,,,,0,70,70,70,,,,,,,,,,,,,,,4.62890625,1.11328125,0,0,1,4.02137112617,,,,,2015_Sep_02_1917,A,facesParametric,4,59.7453670071,
./stim/MorphM5_00_orig.jpg,71,,,,,,,,,0,71,71,71,,,,,,,,,,,,,,,4.62890625,1.11328125,0,0,1,1.37324810028,,,,,2015_Sep_02_1917,A,facesParametric,4,59.7453670071,
./stim/MorphF6_07_orig.jpg,72,,,,,,,,,0,72,72,72,,,,,,,,,,,,,,,4.5703125,1.142578125,0,0,1,1.37163996696,,,,,2015_Sep_02_1917,A,facesParametric,4,59.7453670071,
./stim/MorphM7_07_orig.jpg,73,,,,,,,,,0,73,73,73,,,,,,,,,,,,,,,4.599609375,1.142578125,0,0,1,0.920373916626,,,,,2015_Sep_02_1917,A,facesParametric,4,59.7453670071,
./stim/MorphM4_05_orig.jpg,74,,,,,,,,,0,74,74,74,,,,,,,,,,,,,,,4.6875,1.171875,0,0,1,1.27200007439,,,,,2015_Sep_02_1917,A,facesParametric,4,59.7453670071,
./stim/MorphF1_02_orig.jpg,75,,,,,,,,,0,75,75,75,,,,,,,,,,,,,,,4.541015625,1.142578125,0,0,1,0.853681087494,,,,,2015_Sep_02_1917,A,facesParametric,4,59.7453670071,
./stim/MorphM1_03_orig.jpg,76,,,,,,,,,0,76,76,76,,,,,,,,,,,,,,,4.541015625,1.142578125,0,0,1,0.868227005005,,,,,2015_Sep_02_1917,A,facesParametric,4,59.7453670071,
./stim/MorphM6_01_orig.jpg,77,,,,,,,,,0,77,77,77,,,,,,,,,,,,,,,4.5703125,1.11328125,0,0,1,2.27775216103,,,,,2015_Sep_02_1917,A,facesParametric,4,59.7453670071,
./stim/MorphF5_05_orig.jpg,78,,,,,,,,,0,78,78,78,,,,,,,,,,,,,,,4.541015625,1.083984375,1,0,0,1.2892999649,,,,,2015_Sep_02_1917,A,facesParametric,4,59.7453670071,
./stim/MorphF4_10_orig.jpg,79,,,,,,,,,0,79,79,79,,,,,,,,,,,,,,,4.5703125,1.11328125,1,0,0,1.10507392883,,,,,2015_Sep_02_1917,A,facesParametric,4,59.7453670071,
./stim/MorphF9_03_orig.jpg,80,,,,,,,,,0,80,80,80,,,,,,,,,,,,,,,4.62890625,1.083984375,1,0,0,2.2261121273,,,,,2015_Sep_02_1917,A,facesParametric,4,59.7453670071,
./stim/MorphM8_04_orig.jpg,81,,,,,,,,,0,81,81,81,,,,,,,,,,,,,,,4.599609375,1.0546875,0,0,1,1.12145900726,,,,,2015_Sep_02_1917,A,facesParametric,4,59.7453670071,
./stim/MorphF2_04_orig.jpg,82,,,,,,,,,0,82,82,82,,,,,,,,,,,,,,,4.5703125,1.142578125,1,0,0,1.79135799408,,,,,2015_Sep_02_1917,A,facesParametric,4,59.7453670071,
./stim/MorphM10_01_orig.jpg,83,,,,,,,,,0,83,83,83,,,,,,,,,,,,,,,4.5703125,1.142578125,1,0,0,2.54607391357,,,,,2015_Sep_02_1917,A,facesParametric,4,59.7453670071,
./stim/MorphF6_10_orig.jpg,84,,,,,,,,,0,84,84,84,,,,,,,,,,,,,,,4.5703125,1.142578125,1,0,0,0.736052036285,,,,,2015_Sep_02_1917,A,facesParametric,4,59.7453670071,
./stim/MorphF10_00_orig.jpg,85,,,,,,,,,0,85,85,85,,,,,,,,,,,,,,,4.5703125,1.142578125,1,0,0,0.903391122818,,,,,2015_Sep_02_1917,A,facesParametric,4,59.7453670071,
./stim/MorphM10_04_orig.jpg,86,,,,,,,,,0,86,86,86,,,,,,,,,,,,,,,4.5703125,1.142578125,1,0,0,0.669178009033,,,,,2015_Sep_02_1917,A,facesParametric,4,59.7453670071,
./stim/MorphM4_07_orig.jpg,87,,,,,,,,,0,87,87,87,,,,,,,,,,,,,,,4.541015625,1.259765625,0,0,1,1.13856005669,,,,,2015_Sep_02_1917,A,facesParametric,4,59.7453670071,
./stim/MorphF10_07_orig.jpg,88,,,,,,,,,0,88,88,88,,,,,,,,,,,,,,,4.541015625,1.259765625,1,0,0,1.0042090416,,,,,2015_Sep_02_1917,A,facesParametric,4,59.7453670071,
./stim/MorphF8_02_orig.jpg,89,,,,,,,,,0,89,89,89,,,,,,,,,,,,,,,4.5703125,1.2890625,1,0,0,0.887050867081,,,,,2015_Sep_02_1917,A,facesParametric,4,59.7453670071,
./stim/MorphM10_06_orig.jpg,90,,,,,,,,,0,90,90,90,,,,,,,,,,,,,,,4.599609375,1.259765625,1,0,0,0.819796085358,,,,,2015_Sep_02_1917,A,facesParametric,4,59.7453670071,
./stim/MorphF6_06_orig.jpg,91,,,,,,,,,0,91,91,91,,,,,,,,,,,,,,,4.62890625,1.23046875,1,0,0,0.785748958588,,,,,2015_Sep_02_1917,A,facesParametric,4,59.7453670071,
./stim/MorphF2_07_orig.jpg,92,,,,,,,,,0,92,92,92,,,,,,,,,,,,,,,4.658203125,1.201171875,0,0,1,1.37241697311,,,,,2015_Sep_02_1917,A,facesParametric,4,59.7453670071,
./stim/MorphF3_04_orig.jpg,93,,,,,,,,,0,93,93,93,,,,,,,,,,,,,,,4.599609375,1.142578125,0,0,1,1.02054095268,,,,,2015_Sep_02_1917,A,facesParametric,4,59.7453670071,
./stim/MorphM10_10_orig.jpg,94,,,,,,,,,0,94,94,94,,,,,,,,,,,,,,,4.5703125,1.11328125,1,0,0,1.11951804161,,,,,2015_Sep_02_1917,A,facesParametric,4,59.7453670071,
./stim/MorphF3_06_orig.jpg,95,,,,,,,,,0,95,95,95,,,,,,,,,,,,,,,4.5703125,1.11328125,0,0,1,0.971240997314,,,,,2015_Sep_02_1917,A,facesParametric,4,59.7453670071,
./stim/MorphM8_06_orig.jpg,96,,,,,,,,,0,96,96,96,,,,,,,,,,,,,,,4.541015625,1.083984375,0,0,1,1.69143390656,,,,,2015_Sep_02_1917,A,facesParametric,4,59.7453670071,
./stim/MorphM4_02_orig.jpg,97,,,,,,,,,0,97,97,97,,,,,,,,,,,,,,,4.541015625,1.083984375,1,0,0,2.52817583084,,,,,2015_Sep_02_1917,A,facesParametric,4,59.7453670071,
./stim/MorphF9_08_orig.jpg,98,,,,,,,,,0,98,98,98,,,,,,,,,,,,,,,4.541015625,1.142578125,0,0,1,3.35074210167,,,,,2015_Sep_02_1917,A,facesParametric,4,59.7453670071,
./stim/MorphF3_07_orig.jpg,99,,,,,,,,,0,99,99,99,,,,,,,,,,,,,,,4.541015625,1.142578125,0,0,1,0.85383105278,,,,,2015_Sep_02_1917,A,facesParametric,4,59.7453670071,
./stim/MorphM10_09_orig.jpg,100,,,,,,,,,0,100,100,100,,,,,,,,,,,,,,,4.51171875,1.171875,1,0,0,0.954085826874,,,,,2015_Sep_02_1917,A,facesParametric,4,59.7453670071,
./stim/MorphM4_04_orig.jpg,101,,,,,,,,,0,101,101,101,,,,,,,,,,,,,,,4.51171875,1.171875,0,0,1,1.15480995178,,,,,2015_Sep_02_1917,A,facesParametric,4,59.7453670071,
./stim/MorphM6_07_orig.jpg,102,,,,,,,,,0,102,102,102,,,,,,,,,,,,,,,4.51171875,1.171875,0,0,1,1.08806180954,,,,,2015_Sep_02_1917,A,facesParametric,4,59.7453670071,
./stim/MorphF4_01_orig.jpg,103,,,,,,,,,0,103,103,103,,,,,,,,,,,,,,,4.51171875,1.171875,1,0,0,1.02106714249,,,,,2015_Sep_02_1917,A,facesParametric,4,59.7453670071,
./stim/MorphF10_06_orig.jpg,104,,,,,,,,,0,104,104,104,,,,,,,,,,,,,,,4.51171875,1.171875,1,0,0,0.853430986404,,,,,2015_Sep_02_1917,A,facesParametric,4,59.7453670071,
./stim/MorphM3_00_orig.jpg,105,,,,,,,,,0,105,105,105,,,,,,,,,,,,,,,4.541015625,1.171875,0,0,1,1.15456414223,,,,,2015_Sep_02_1917,A,facesParametric,4,59.7453670071,
./stim/MorphF7_08_orig.jpg,106,,,,,,,,,0,106,106,106,,,,,,,,,,,,,,,4.541015625,1.171875,0,0,1,1.1714720726,,,,,2015_Sep_02_1917,A,facesParametric,4,59.7453670071,
./stim/MorphF1_06_orig.jpg,107,,,,,,,,,0,107,107,107,,,,,,,,,,,,,,,4.541015625,1.171875,1,0,0,0.937074899673,,,,,2015_Sep_02_1917,A,facesParametric,4,59.7453670071,
./stim/MorphM7_02_orig.jpg,108,,,,,,,,,0,108,108,108,,,,,,,,,,,,,,,4.541015625,1.171875,1,0,0,0.853200912476,,,,,2015_Sep_02_1917,A,facesParametric,4,59.7453670071,
./stim/MorphM5_02_orig.jpg,109,,,,,,,,,0,109,109,109,,,,,,,,,,,,,,,4.541015625,1.171875,0,0,1,1.22247004509,,,,,2015_Sep_02_1917,A,facesParametric,4,59.7453670071,
./stim/MorphM6_08_orig.jpg,110,,,,,,,,,0,110,110,110,,,,,,,,,,,,,,,4.51171875,1.201171875,0,0,1,2.29449987411,,,,,2015_Sep_02_1917,A,facesParametric,4,59.7453670071,
./stim/MorphF6_01_orig.jpg,111,,,,,,,,,0,111,111,111,,,,,,,,,,,,,,,4.541015625,1.23046875,1,0,0,1.00442695618,,,,,2015_Sep_02_1917,A,facesParametric,4,59.7453670071,
./stim/MorphM3_08_orig.jpg,112,,,,,,,,,0,112,112,112,,,,,,,,,,,,,,,4.51171875,1.259765625,1,0,0,0.802390098572,,,,,2015_Sep_02_1917,A,facesParametric,4,59.7453670071,
./stim/MorphF2_06_orig.jpg,113,,,,,,,,,0,113,113,113,,,,,,,,,,,,,,,4.51171875,1.259765625,0,0,1,1.05378890038,,,,,2015_Sep_02_1917,A,facesParametric,4,59.7453670071,
./stim/MorphM9_05_orig.jpg,114,,,,,,,,,0,114,114,114,,,,,,,,,,,,,,,4.541015625,1.2890625,0,0,1,2.7630648613,,,,,2015_Sep_02_1917,A,facesParametric,4,59.7453670071,
./stim/MorphM7_06_orig.jpg,115,,,,,,,,,0,115,115,115,,,,,,,,,,,,,,,4.541015625,1.2890625,0,0,1,1.00430989265,,,,,2015_Sep_02_1917,A,facesParametric,4,59.7453670071,
./stim/MorphF7_00_orig.jpg,116,,,,,,,,,0,116,116,116,,,,,,,,,,,,,,,4.5703125,1.318359375,1,0,0,1.25600409508,,,,,2015_Sep_02_1917,A,facesParametric,4,59.7453670071,
./stim/MorphM7_00_orig.jpg,117,,,,,,,,,0,117,117,117,,,,,,,,,,,,,,,4.541015625,1.34765625,1,0,0,0.935709953308,,,,,2015_Sep_02_1917,A,facesParametric,4,59.7453670071,
./stim/MorphM6_02_orig.jpg,118,,,,,,,,,0,118,118,118,,,,,,,,,,,,,,,4.541015625,1.34765625,0,0,1,1.32273292542,,,,,2015_Sep_02_1917,A,facesParametric,4,59.7453670071,
./stim/MorphF7_04_orig.jpg,119,,,,,,,,,0,119,119,119,,,,,,,,,,,,,,,4.51171875,1.376953125,0,0,1,0.971306085587,,,,,2015_Sep_02_1917,A,facesParametric,4,59.7453670071,
./stim/MorphF4_00_orig.jpg,120,,,,,,,,,0,120,120,120,,,,,,,,,,,,,,,4.51171875,1.376953125,0,0,1,1.07112908363,,,,,2015_Sep_02_1917,A,facesParametric,4,59.7453670071,
./stim/MorphF9_07_orig.jpg,121,,,,,,,,,0,121,121,121,,,,,,,,,,,,,,,4.51171875,1.376953125,0,0,1,1.07160496712,,,,,2015_Sep_02_1917,A,facesParametric,4,59.7453670071,
./stim/MorphF4_05_orig.jpg,122,,,,,,,,,0,122,122,122,,,,,,,,,,,,,,,4.453125,1.435546875,0,0,1,0.785242080688,,,,,2015_Sep_02_1917,A,facesParametric,4,59.7453670071,
./stim/MorphF5_10_orig.jpg,123,,,,,,,,,0,123,123,123,,,,,,,,,,,,,,,4.423828125,1.46484375,1,0,0,1.13772583008,,,,,2015_Sep_02_1917,A,facesParametric,4,59.7453670071,
./stim/MorphM9_06_orig.jpg,124,,,,,,,,,0,124,124,124,,,,,,,,,,,,,,,4.453125,1.46484375,0,0,1,1.80903697014,,,,,2015_Sep_02_1917,A,facesParametric,4,59.7453670071,
./stim/MorphF1_00_orig.jpg,125,,,,,,,,,0,125,125,125,,,,,,,,,,,,,,,4.423828125,1.435546875,0,0,1,0.88683795929,,,,,2015_Sep_02_1917,A,facesParametric,4,59.7453670071,
./stim/MorphF5_07_orig.jpg,126,,,,,,,,,0,126,126,126,,,,,,,,,,,,,,,4.39453125,1.46484375,1,0,0,1.30647802353,,,,,2015_Sep_02_1917,A,facesParametric,4,59.7453670071,
./stim/MorphM6_06_orig.jpg,127,,,,,,,,,0,127,127,127,,,,,,,,,,,,,,,4.51171875,1.552734375,0,0,1,2.8790538311,,,,,2015_Sep_02_1917,A,facesParametric,4,59.7453670071,
./stim/MorphF2_00_orig.jpg,128,,,,,,,,,0,128,128,128,,,,,,,,,,,,,,,4.541015625,1.640625,1,0,0,1.54003810883,,,,,2015_Sep_02_1917,A,facesParametric,4,59.7453670071,
./stim/MorphM6_03_orig.jpg,129,,,,,,,,,0,129,129,129,,,,,,,,,,,,,,,4.541015625,1.640625,0,0,1,1.03819584846,,,,,2015_Sep_02_1917,A,facesParametric,4,59.7453670071,
./stim/MorphM3_04_orig.jpg,130,,,,,,,,,0,130,130,130,,,,,,,,,,,,,,,4.51171875,1.611328125,1,0,0,2.40998482704,,,,,2015_Sep_02_1917,A,facesParametric,4,59.7453670071,
./stim/MorphM8_01_orig.jpg,131,,,,,,,,,0,131,131,131,,,,,,,,,,,,,,,4.541015625,1.669921875,0,0,1,1.55731606483,,,,,2015_Sep_02_1917,A,facesParametric,4,59.7453670071,
./stim/MorphM1_06_orig.jpg,132,,,,,,,,,0,132,132,132,,,,,,,,,,,,,,,4.541015625,1.669921875,0,0,1,0.86834692955,,,,,2015_Sep_02_1917,A,facesParametric,4,59.7453670071,
./stim/MorphM2_09_orig.jpg,133,,,,,,,,,0,133,133,133,,,,,,,,,,,,,,,4.541015625,1.669921875,0,0,1,3.23228192329,,,,,2015_Sep_02_1917,A,facesParametric,4,59.7453670071,
./stim/MorphF2_01_orig.jpg,134,,,,,,,,,0,134,134,134,,,,,,,,,,,,,,,4.541015625,1.69921875,0,0,1,1.13832616806,,,,,2015_Sep_02_1917,A,facesParametric,4,59.7453670071,
./stim/MorphM5_01_orig.jpg,135,,,,,,,,,0,135,135,135,,,,,,,,,,,,,,,4.541015625,1.69921875,0,0,1,1.05422091484,,,,,2015_Sep_02_1917,A,facesParametric,4,59.7453670071,
./stim/MorphF8_03_orig.jpg,136,,,,,,,,,0,136,136,136,,,,,,,,,,,,,,,4.541015625,1.69921875,0,0,1,1.40698981285,,,,,2015_Sep_02_1917,A,facesParametric,4,59.7453670071,
./stim/MorphF10_03_orig.jpg,137,,,,,,,,,0,137,137,137,,,,,,,,,,,,,,,4.541015625,1.69921875,1,0,0,2.32854604721,,,,,2015_Sep_02_1917,A,facesParametric,4,59.7453670071,
./stim/MorphM7_09_orig.jpg,138,,,,,,,,,0,138,138,138,,,,,,,,,,,,,,,4.541015625,1.69921875,1,0,0,1.08686804771,,,,,2015_Sep_02_1917,A,facesParametric,4,59.7453670071,
./stim/MorphM9_00_orig.jpg,139,,,,,,,,,0,139,139,139,,,,,,,,,,,,,,,4.541015625,1.69921875,0,0,1,1.25615215302,,,,,2015_Sep_02_1917,A,facesParametric,4,59.7453670071,
./stim/MorphM3_05_orig.jpg,140,,,,,,,,,0,140,140,140,,,,,,,,,,,,,,,4.541015625,1.7578125,0,0,1,1.52311897278,,,,,2015_Sep_02_1917,A,facesParametric,4,59.7453670071,
./stim/MorphM1_07_orig.jpg,141,,,,,,,,,0,141,141,141,,,,,,,,,,,,,,,4.541015625,1.7578125,0,0,1,0.9204621315,,,,,2015_Sep_02_1917,A,facesParametric,4,59.7453670071,
./stim/MorphM9_07_orig.jpg,142,,,,,,,,,0,142,142,142,,,,,,,,,,,,,,,4.541015625,1.7578125,0,0,1,1.38785910606,,,,,2015_Sep_02_1917,A,facesParametric,4,59.7453670071,
./stim/MorphF3_03_orig.jpg,143,,,,,,,,,0,143,143,143,,,,,,,,,,,,,,,4.541015625,1.7578125,0,0,1,2.19305086136,,,,,2015_Sep_02_1917,A,facesParametric,4,59.7453670071,
./stim/MorphF4_07_orig.jpg,144,,,,,,,,,0,144,144,144,,,,,,,,,,,,,,,4.5703125,1.787109375,1,0,0,1.18958187103,,,,,2015_Sep_02_1917,A,facesParametric,4,59.7453670071,
./stim/MorphM2_10_orig.jpg,145,,,,,,,,,0,145,145,145,,,,,,,,,,,,,,,4.5703125,1.787109375,0,0,1,2.31081104279,,,,,2015_Sep_02_1917,A,facesParametric,4,59.7453670071,
./stim/MorphF7_06_orig.jpg,146,,,,,,,,,0,146,146,146,,,,,,,,,,,,,,,4.5703125,1.787109375,0,0,1,1.10485720634,,,,,2015_Sep_02_1917,A,facesParametric,4,59.7453670071,
./stim/MorphM8_02_orig.jpg,147,,,,,,,,,0,147,147,147,,,,,,,,,,,,,,,4.5703125,1.787109375,0,0,1,1.48903894424,,,,,2015_Sep_02_1917,A,facesParametric,4,59.7453670071,
./stim/MorphF3_05_orig.jpg,148,,,,,,,,,0,148,148,148,,,,,,,,,,,,,,,4.5703125,1.7578125,0,0,1,1.00377702713,,,,,2015_Sep_02_1917,A,facesParametric,4,59.7453670071,
./stim/MorphF6_04_orig.jpg,149,,,,,,,,,0,149,149,149,,,,,,,,,,,,,,,4.5703125,1.7578125,0,0,1,0.971784830093,,,,,2015_Sep_02_1917,A,facesParametric,4,59.7453670071,
./stim/MorphM4_10_orig.jpg,150,,,,,,,,,0,150,150,150,,,,,,,,,,,,,,,4.5703125,1.7578125,0,0,1,1.79094719887,,,,,2015_Sep_02_1917,A,facesParametric,4,59.7453670071,
./stim/MorphF10_08_orig.jpg,151,,,,,,,,,0,151,151,151,,,,,,,,,,,,,,,4.541015625,1.728515625,1,0,0,1.12177419662,,,,,2015_Sep_02_1917,A,facesParametric,4,59.7453670071,
./stim/MorphF5_02_orig.jpg,152,,,,,,,,,0,152,152,152,,,,,,,,,,,,,,,4.541015625,1.728515625,0,0,1,1.97615385056,,,,,2015_Sep_02_1917,A,facesParametric,4,59.7453670071,
./stim/MorphF1_05_orig.jpg,153,,,,,,,,,0,153,153,153,,,,,,,,,,,,,,,4.541015625,1.728515625,0,0,1,0.853302001953,,,,,2015_Sep_02_1917,A,facesParametric,4,59.7453670071,
./stim/MorphF9_09_orig.jpg,154,,,,,,,,,0,154,154,154,,,,,,,,,,,,,,,4.541015625,1.728515625,0,0,1,1.27253818512,,,,,2015_Sep_02_1917,A,facesParametric,4,59.7453670071,
./stim/MorphF5_03_orig.jpg,155,,,,,,,,,0,155,155,155,,,,,,,,,,,,,,,4.51171875,1.69921875,0,0,1,0.785434961319,,,,,2015_Sep_02_1917,A,facesParametric,4,59.7453670071,
./stim/MorphF4_03_orig.jpg,156,,,,,,,,,0,156,156,156,,,,,,,,,,,,,,,4.51171875,1.69921875,0,0,1,0.718491077423,,,,,2015_Sep_02_1917,A,facesParametric,4,59.7453670071,
./stim/MorphF5_01_orig.jpg,157,,,,,,,,,0,157,157,157,,,,,,,,,,,,,,,4.51171875,1.69921875,0,0,1,0.701669931412,,,,,2015_Sep_02_1917,A,facesParametric,4,59.7453670071,
./stim/MorphM1_01_orig.jpg,158,,,,,,,,,0,158,158,158,,,,,,,,,,,,,,,4.51171875,1.69921875,0,0,1,0.818685054779,,,,,2015_Sep_02_1917,A,facesParametric,4,59.7453670071,
./stim/MorphF9_02_orig.jpg,159,,,,,,,,,0,159,159,159,,,,,,,,,,,,,,,4.482421875,1.669921875,0,0,1,0.869730949402,,,,,2015_Sep_02_1917,A,facesParametric,4,59.7453670071,
./stim/MorphF2_02_orig.jpg,160,,,,,,,,,0,160,160,160,,,,,,,,,,,,,,,4.482421875,1.669921875,0,0,1,0.853528022766,,,,,2015_Sep_02_1917,A,facesParametric,4,59.7453670071,
./stim/MorphM8_10_orig.jpg,161,,,,,,,,,0,161,161,161,,,,,,,,,,,,,,,4.482421875,1.669921875,0,0,1,1.47357797623,,,,,2015_Sep_02_1917,A,facesParametric,4,59.7453670071,
./stim/MorphM1_10_orig.jpg,162,,,,,,,,,0,162,162,162,,,,,,,,,,,,,,,4.453125,1.69921875,1,0,0,1.08815217018,,,,,2015_Sep_02_1917,A,facesParametric,4,59.7453670071,
./stim/MorphF10_04_orig.jpg,163,,,,,,,,,0,163,163,163,,,,,,,,,,,,,,,4.453125,1.69921875,1,0,0,1.15478205681,,,,,2015_Sep_02_1917,A,facesParametric,4,59.7453670071,
./stim/MorphF3_00_orig.jpg,164,,,,,,,,,0,164,164,164,,,,,,,,,,,,,,,4.453125,1.69921875,0,0,1,1.38809609413,,,,,2015_Sep_02_1917,A,facesParametric,4,59.7453670071,
./stim/MorphM2_07_orig.jpg,165,,,,,,,,,0,165,165,165,,,,,,,,,,,,,,,4.453125,1.69921875,0,0,1,1.37297797203,,,,,2015_Sep_02_1917,A,facesParametric,4,59.7453670071,
./stim/MorphF7_05_orig.jpg,166,,,,,,,,,0,166,166,166,,,,,,,,,,,,,,,4.453125,1.69921875,1,0,0,1.10508394241,,,,,2015_Sep_02_1917,A,facesParametric,4,59.7453670071,
./stim/MorphF6_03_orig.jpg,167,,,,,,,,,0,167,167,167,,,,,,,,,,,,,,,4.423828125,1.669921875,1,0,0,0.885917901993,,,,,2015_Sep_02_1917,A,facesParametric,4,59.7453670071,
./stim/MorphF3_02_orig.jpg,168,,,,,,,,,0,168,168,168,,,,,,,,,,,,,,,4.423828125,1.669921875,0,0,1,1.32100105286,,,,,2015_Sep_02_1917,A,facesParametric,4,59.7453670071,
./stim/MorphF1_01_orig.jpg,169,,,,,,,,,0,169,169,169,,,,,,,,,,,,,,,4.423828125,1.669921875,0,0,1,1.30434393883,,,,,2015_Sep_02_1917,A,facesParametric,4,59.7453670071,
./stim/MorphM1_04_orig.jpg,170,,,,,,,,,0,170,170,170,,,,,,,,,,,,,,,4.39453125,1.69921875,0,0,1,2.47953510284,,,,,2015_Sep_02_1917,A,facesParametric,4,59.7453670071,
./stim/MorphF4_09_orig.jpg,171,,,,,,,,,0,171,171,171,,,,,,,,,,,,,,,4.39453125,1.69921875,1,0,0,1.13655209541,,,,,2015_Sep_02_1917,A,facesParametric,4,59.7453670071,
./stim/MorphM6_00_orig.jpg,172,,,,,,,,,0,172,172,172,,,,,,,,,,,,,,,4.423828125,1.669921875,0,0,1,1.38959407806,,,,,2015_Sep_02_1917,A,facesParametric,4,59.7453670071,
./stim/MorphM5_09_orig.jpg,173,,,,,,,,,0,173,173,173,,,,,,,,,,,,,,,4.423828125,1.669921875,0,0,1,1.52366995811,,,,,2015_Sep_02_1917,A,facesParametric,4,59.7453670071,
./stim/MorphF5_06_orig.jpg,174,,,,,,,,,0,174,174,174,,,,,,,,,,,,,,,4.423828125,1.669921875,0,0,1,0.853667020798,,,,,2015_Sep_02_1917,A,facesParametric,4,59.7453670071,
./stim/MorphF9_01_orig.jpg,175,,,,,,,,,0,175,175,175,,,,,,,,,,,,,,,4.423828125,1.669921875,1,0,0,1.94297599792,,,,,2015_Sep_02_1917,A,facesParametric,4,59.7453670071,
./stim/MorphM5_07_orig.jpg,176,,,,,,,,,0,176,176,176,,,,,,,,,,,,,,,4.423828125,1.669921875,0,0,1,1.10479402542,,,,,2015_Sep_02_1917,A,facesParametric,4,59.7453670071,
./stim/MorphM2_01_orig.jpg,177,,,,,,,,,0,177,177,177,,,,,,,,,,,,,,,4.423828125,1.669921875,0,0,1,1.28736591339,,,,,2015_Sep_02_1917,A,facesParametric,4,59.7453670071,
./stim/MorphM7_03_orig.jpg,178,,,,,,,,,0,178,178,178,,,,,,,,,,,,,,,4.423828125,1.669921875,1,0,0,1.25564098358,,,,,2015_Sep_02_1917,A,facesParametric,4,59.7453670071,
./stim/MorphM9_09_orig.jpg,179,,,,,,,,,0,179,179,179,,,,,,,,,,,,,,,4.453125,1.669921875,0,0,1,1.08775615692,,,,,2015_Sep_02_1917,A,facesParametric,4,59.7453670071,
./stim/MorphF9_10_orig.jpg,180,,,,,,,,,0,180,180,180,,,,,,,,,,,,,,,4.453125,1.669921875,0,0,1,1.15417909622,,,,,2015_Sep_02_1917,A,facesParametric,4,59.7453670071,
./stim/MorphF8_10_orig.jpg,181,,,,,,,,,0,181,181,181,,,,,,,,,,,,,,,4.453125,1.669921875,1,0,0,1.30657410622,,,,,2015_Sep_02_1917,A,facesParametric,4,59.7453670071,
./stim/MorphF10_10_orig.jpg,182,,,,,,,,,0,182,182,182,,,,,,,,,,,,,,,4.51171875,1.7578125,1,0,0,0.702749967575,,,,,2015_Sep_02_1917,A,facesParametric,4,59.7453670071,
./stim/MorphM3_09_orig.jpg,183,,,,,,,,,0,183,183,183,,,,,,,,,,,,,,,4.541015625,1.787109375,1,0,0,0.736309051514,,,,,2015_Sep_02_1917,A,facesParametric,4,59.7453670071,
./stim/MorphF10_05_orig.jpg,184,,,,,,,,,0,184,184,184,,,,,,,,,,,,,,,4.541015625,1.787109375,1,0,0,0.68603515625,,,,,2015_Sep_02_1917,A,facesParametric,4,59.7453670071,
./stim/MorphF6_00_orig.jpg,185,,,,,,,,,0,185,185,185,,,,,,,,,,,,,,,4.541015625,1.787109375,1,0,0,0.83654499054,,,,,2015_Sep_02_1917,A,facesParametric,4,59.7453670071,
./stim/MorphF8_08_orig.jpg,186,,,,,,,,,0,186,186,186,,,,,,,,,,,,,,,4.51171875,1.7578125,1,0,0,1.05351281166,,,,,2015_Sep_02_1917,A,facesParametric,4,59.7453670071,
./stim/MorphF7_10_orig.jpg,187,,,,,,,,,0,187,187,187,,,,,,,,,,,,,,,4.51171875,1.7578125,1,0,0,0.803447961807,,,,,2015_Sep_02_1917,A,facesParametric,4,59.7453670071,
./stim/MorphM9_10_orig.jpg,188,,,,,,,,,0,188,188,188,,,,,,,,,,,,,,,4.51171875,1.7578125,0,0,1,1.40491509438,,,,,2015_Sep_02_1917,A,facesParametric,4,59.7453670071,
./stim/MorphM10_05_orig.jpg,189,,,,,,,,,0,189,189,189,,,,,,,,,,,,,,,4.51171875,1.7578125,1,0,0,1.10366296768,,,,,2015_Sep_02_1917,A,facesParametric,4,59.7453670071,
./stim/MorphM8_03_orig.jpg,190,,,,,,,,,0,190,190,190,,,,,,,,,,,,,,,4.51171875,1.7578125,0,0,1,1.4068338871,,,,,2015_Sep_02_1917,A,facesParametric,4,59.7453670071,
./stim/MorphF2_10_orig.jpg,191,,,,,,,,,0,191,191,191,,,,,,,,,,,,,,,4.51171875,1.7578125,1,0,0,1.15489602089,,,,,2015_Sep_02_1917,A,facesParametric,4,59.7453670071,
./stim/MorphM1_02_orig.jpg,192,,,,,,,,,0,192,192,192,,,,,,,,,,,,,,,4.541015625,1.728515625,1,0,0,0.752841949463,,,,,2015_Sep_02_1917,A,facesParametric,4,59.7453670071,
./stim/MorphM4_09_orig.jpg,193,,,,,,,,,0,193,193,193,,,,,,,,,,,,,,,4.541015625,1.728515625,0,0,1,1.43893885612,,,,,2015_Sep_02_1917,A,facesParametric,4,59.7453670071,
./stim/MorphM8_07_orig.jpg,194,,,,,,,,,0,194,194,194,,,,,,,,,,,,,,,4.541015625,1.728515625,0,0,1,0.904098033905,,,,,2015_Sep_02_1917,A,facesParametric,4,59.7453670071,
./stim/MorphM1_08_orig.jpg,195,,,,,,,,,0,195,195,195,,,,,,,,,,,,,,,4.541015625,1.728515625,0,0,1,0.635508060455,,,,,2015_Sep_02_1917,A,facesParametric,4,59.7453670071,
./stim/MorphF4_08_orig.jpg,196,,,,,,,,,0,196,196,196,,,,,,,,,,,,,,,4.541015625,1.7578125,1,0,0,0.819598913193,,,,,2015_Sep_02_1917,A,facesParametric,4,59.7453670071,
./stim/MorphM9_04_orig.jpg,197,,,,,,,,,0,197,197,197,,,,,,,,,,,,,,,4.541015625,1.7578125,0,0,1,0.886368989944,,,,,2015_Sep_02_1917,A,facesParametric,4,59.7453670071,
./stim/MorphF1_09_orig.jpg,198,,,,,,,,,0,198,198,198,,,,,,,,,,,,,,,4.541015625,1.7578125,0,0,1,1.17215704918,,,,,2015_Sep_02_1917,A,facesParametric,4,59.7453670071,
./stim/MorphM9_08_orig.jpg,199,,,,,,,,,0,199,199,199,,,,,,,,,,,,,,,4.541015625,1.7578125,0,0,1,1.07126498222,,,,,2015_Sep_02_1917,A,facesParametric,4,59.7453670071,
./stim/MorphF10_01_orig.jpg,200,,,,,,,,,0,200,200,200,,,,,,,,,,,,,,,4.541015625,1.7578125,1,0,0,0.954134941101,,,,,2015_Sep_02_1917,A,facesParametric,4,59.7453670071,
./stim/MorphM10_00_orig.jpg,201,,,,,,,,,0,201,201,201,,,,,,,,,,,,,,,4.541015625,1.7578125,1,0,0,0.786315202713,,,,,2015_Sep_02_1917,A,facesParametric,4,59.7453670071,
./stim/MorphM2_00_orig.jpg,202,,,,,,,,,0,202,202,202,,,,,,,,,,,,,,,4.541015625,1.7578125,0,0,1,1.60762786865,,,,,2015_Sep_02_1917,A,facesParametric,4,59.7453670071,
./stim/MorphM9_01_orig.jpg,203,,,,,,,,,0,203,203,203,,,,,,,,,,,,,,,4.541015625,1.7578125,0,0,1,1.05477905273,,,,,2015_Sep_02_1917,A,facesParametric,4,59.7453670071,
./stim/MorphF7_09_orig.jpg,204,,,,,,,,,0,204,204,204,,,,,,,,,,,,,,,4.541015625,1.728515625,1,0,0,0.83650302887,,,,,2015_Sep_02_1917,A,facesParametric,4,59.7453670071,
./stim/MorphF9_00_orig.jpg,205,,,,,,,,,0,205,205,205,,,,,,,,,,,,,,,4.541015625,1.728515625,1,0,0,1.02073097229,,,,,2015_Sep_02_1917,A,facesParametric,4,59.7453670071,
./stim/MorphM2_02_orig.jpg,206,,,,,,,,,0,206,206,206,,,,,,,,,,,,,,,4.541015625,1.728515625,1,0,0,1.18920493126,,,,,2015_Sep_02_1917,A,facesParametric,4,59.7453670071,
./stim/MorphF8_05_orig.jpg,207,,,,,,,,,0,207,207,207,,,,,,,,,,,,,,,4.541015625,1.728515625,1,0,0,0.75081205368,,,,,2015_Sep_02_1917,A,facesParametric,4,59.7453670071,
./stim/MorphF3_09_orig.jpg,208,,,,,,,,,0,208,208,208,,,,,,,,,,,,,,,4.541015625,1.728515625,0,0,1,0.904046058655,,,,,2015_Sep_02_1917,A,facesParametric,4,59.7453670071,
./stim/MorphM5_10_orig.jpg,209,,,,,,,,,0,209,209,209,,,,,,,,,,,,,,,4.541015625,1.728515625,0,0,1,0.90229511261,,,,,2015_Sep_02_1917,A,facesParametric,4,59.7453670071,
./stim/MorphM8_08_orig.jpg,210,,,,,,,,,0,210,210,210,,,,,,,,,,,,,,,4.541015625,1.728515625,1,0,0,1.47362089157,,,,,2015_Sep_02_1917,A,facesParametric,4,59.7453670071,
./stim/MorphM3_07_orig.jpg,211,,,,,,,,,0,211,211,211,,,,,,,,,,,,,,,4.541015625,1.728515625,1,0,0,0.767736911774,,,,,2015_Sep_02_1917,A,facesParametric,4,59.7453670071,
./stim/MorphM5_06_orig.jpg,212,,,,,,,,,0,212,212,212,,,,,,,,,,,,,,,4.541015625,1.728515625,0,0,1,1.13785505295,,,,,2015_Sep_02_1917,A,facesParametric,4,59.7453670071,
./stim/MorphF5_09_orig.jpg,213,,,,,,,,,0,213,213,213,,,,,,,,,,,,,,,4.5703125,1.7578125,0,0,1,0.920630931854,,,,,2015_Sep_02_1917,A,facesParametric,4,59.7453670071,
./stim/MorphF8_06_orig.jpg,214,,,,,,,,,0,214,214,214,,,,,,,,,,,,,,,4.62890625,1.962890625,1,0,0,1.63888502121,,,,,2015_Sep_02_1917,A,facesParametric,4,59.7453670071,
./stim/MorphF5_04_orig.jpg,215,,,,,,,,,0,215,215,215,,,,,,,,,,,,,,,4.716796875,1.962890625,0,0,1,1.10459399223,,,,,2015_Sep_02_1917,A,facesParametric,4,59.7453670071,
./stim/MorphM2_04_orig.jpg,216,,,,,,,,,0,216,216,216,,,,,,,,,,,,,,,4.6875,1.904296875,0,0,1,1.60759115219,,,,,2015_Sep_02_1917,A,facesParametric,4,59.7453670071,
./stim/MorphF2_05_orig.jpg,217,,,,,,,,,0,217,217,217,,,,,,,,,,,,,,,4.6875,1.904296875,0,0,1,1.03870391846,,,,,2015_Sep_02_1917,A,facesParametric,4,59.7453670071,
./stim/MorphM7_01_orig.jpg,218,,,,,,,,,0,218,218,218,,,,,,,,,,,,,,,4.6875,1.904296875,1,0,0,1.23788404465,,,,,2015_Sep_02_1917,A,facesParametric,4,59.7453670071,
./stim/MorphF10_09_orig.jpg,219,,,,,,,,,0,219,219,219,,,,,,,,,,,,,,,4.658203125,1.93359375,0,0,1,1.12194895744,,,,,2015_Sep_02_1917,A,facesParametric,4,59.7453670071,
,,,,,,,,,,,,,,,,,,,,,,,,,,,,,,,,,,,,return,176.541364908,2015_Sep_02_1917,A,facesParametric,4,59.7453670071,
