img,num,basicLoop.thisRepN,basicLoop.thisTrialN,basicLoop.thisN,basicLoop.thisIndex,trials.thisRepN,trials.thisTrialN,trials.thisN,trials.thisIndex,trials2.thisRepN,trials2.thisTrialN,trials2.thisN,trials2.thisIndex,key_resp_2.keys,key_resp_2.rt,basicRating1.response,basicRating1.rt,basicRating2.response,basicRating2.rt,basicRating3.response,basicRating3.rt,basicRating4.response,basicRating4.rt,key_resp_3.keys,key_resp_3.rt,key_resp_4.keys,key_resp_4.rt,mouseResp.x,mouseResp.y,mouseResp.leftButton,mouseResp.midButton,mouseResp.rightButton,mouseResp.time,key_resp_5.keys,key_resp_5.rt,key_resp_7.keys,key_resp_7.rt,date,group,expName,participant,frameRate,
,,,,,,,,,,,,,,return,32.0236289501,,,,,,,,,,,,,,,,,,,,,,,2015_Sep_06_1239,A,facesParametric,5,59.6153567352,
./basicStim/06F_AN_O.jpg,,0,0,0,21,,,,,,,,,,,None,None,None,None,DIS,14.373,None,None,,,,,,,,,,,,,,,2015_Sep_06_1239,A,facesParametric,5,59.6153567352,
./basicStim/01F_FE_O.jpg,,0,1,1,2,,,,,,,,,,,None,None,None,None,DIS,21.42,None,None,,,,,,,,,,,,,,,2015_Sep_06_1239,A,facesParametric,5,59.6153567352,
./basicStim/24M_SA_C.jpg,,0,2,2,60,,,,,,,,,,,None,None,None,None,DIS,6.889,None,None,,,,,,,,,,,,,,,2015_Sep_06_1239,A,facesParametric,5,59.6153567352,
./basicStim/34M_DI_O.jpg,,0,3,3,71,,,,,,,,,,,None,None,None,None,DIS,2.227,None,None,,,,,,,,,,,,,,,2015_Sep_06_1239,A,facesParametric,5,59.6153567352,
./basicStim/02F_NE_C.jpg,,0,4,4,13,,,,,,,,,,,None,None,None,None,None,None,NTR,2.715,,,,,,,,,,,,,,,2015_Sep_06_1239,A,facesParametric,5,59.6153567352,
./basicStim/21M_SP_O.jpg,,0,5,5,47,,,,,,,,,,,None,None,None,None,SUP,1.865,None,None,,,,,,,,,,,,,,,2015_Sep_06_1239,A,facesParametric,5,59.6153567352,
./basicStim/34M_HA_O.jpg,,0,6,6,73,,,,,,,,,,,HAP,2.074,None,None,None,None,None,None,,,,,,,,,,,,,,,2015_Sep_06_1239,A,facesParametric,5,59.6153567352,
./basicStim/34M_AN_O.jpg,,0,7,7,70,,,,,,,,,,,None,None,ANG,1.88,None,None,None,None,,,,,,,,,,,,,,,2015_Sep_06_1239,A,facesParametric,5,59.6153567352,
./basicStim/09F_AN_O.jpg,,0,8,8,35,,,,,,,,,,,None,None,ANG,0.675,None,None,None,None,,,,,,,,,,,,,,,2015_Sep_06_1239,A,facesParametric,5,59.6153567352,
./basicStim/03F_SA_C.jpg,,0,9,9,18,,,,,,,,,,,SAD,1.244,None,None,None,None,None,None,,,,,,,,,,,,,,,2015_Sep_06_1239,A,facesParametric,5,59.6153567352,
./basicStim/24M_HA_O.jpg,,0,10,10,59,,,,,,,,,,,HAP,1.681,None,None,None,None,None,None,,,,,,,,,,,,,,,2015_Sep_06_1239,A,facesParametric,5,59.6153567352,
./basicStim/07F_HA_O.jpg,,0,11,11,31,,,,,,,,,,,HAP,2.018,None,None,None,None,None,None,,,,,,,,,,,,,,,2015_Sep_06_1239,A,facesParametric,5,59.6153567352,
./basicStim/07F_SP_O.jpg,,0,12,12,33,,,,,,,,,,,None,None,None,None,SUP,1.073,None,None,,,,,,,,,,,,,,,2015_Sep_06_1239,A,facesParametric,5,59.6153567352,
./basicStim/21M_DI_O.jpg,,0,13,13,43,,,,,,,,,,,None,None,None,None,DIS,1.377,None,None,,,,,,,,,,,,,,,2015_Sep_06_1239,A,facesParametric,5,59.6153567352,
./basicStim/28M_HA_O.jpg,,0,14,14,66,,,,,,,,,,,HAP,1.164,None,None,None,None,None,None,,,,,,,,,,,,,,,2015_Sep_06_1239,A,facesParametric,5,59.6153567352,
./basicStim/36M_FE_O.jpg,,0,15,15,79,,,,,,,,,,,None,None,FEA,4.225,None,None,None,None,,,,,,,,,,,,,,,2015_Sep_06_1239,A,facesParametric,5,59.6153567352,
./basicStim/34M_NE_C.jpg,,0,16,16,76,,,,,,,,,,,None,None,None,None,None,None,NTR,1.289,,,,,,,,,,,,,,,2015_Sep_06_1239,A,facesParametric,5,59.6153567352,
./basicStim/03F_DI_O.jpg,,0,17,17,15,,,,,,,,,,,None,None,None,None,DIS,0.727,None,None,,,,,,,,,,,,,,,2015_Sep_06_1239,A,facesParametric,5,59.6153567352,
./basicStim/24M_SP_O.jpg,,0,18,18,61,,,,,,,,,,,None,None,None,None,SUP,2.431,None,None,,,,,,,,,,,,,,,2015_Sep_06_1239,A,facesParametric,5,59.6153567352,
./basicStim/21M_HA_O.jpg,,0,19,19,45,,,,,,,,,,,HAP,1.196,None,None,None,None,None,None,,,,,,,,,,,,,,,2015_Sep_06_1239,A,facesParametric,5,59.6153567352,
./basicStim/09F_SP_O.jpg,,0,20,20,40,,,,,,,,,,,None,None,FEA,4.727,None,None,None,None,,,,,,,,,,,,,,,2015_Sep_06_1239,A,facesParametric,5,59.6153567352,
./basicStim/03F_NE_C.jpg,,0,21,21,20,,,,,,,,,,,None,None,None,None,None,None,NTR,0.975,,,,,,,,,,,,,,,2015_Sep_06_1239,A,facesParametric,5,59.6153567352,
./basicStim/06F_SP_O.jpg,,0,22,22,26,,,,,,,,,,,None,None,None,None,SUP,2.016,None,None,,,,,,,,,,,,,,,2015_Sep_06_1239,A,facesParametric,5,59.6153567352,
./basicStim/28M_AN_O.jpg,,0,23,23,63,,,,,,,,,,,None,None,None,None,DIS,3.218,None,None,,,,,,,,,,,,,,,2015_Sep_06_1239,A,facesParametric,5,59.6153567352,
./basicStim/36M_DI_O.jpg,,0,24,24,78,,,,,,,,,,,None,None,None,None,DIS,0.471,None,None,,,,,,,,,,,,,,,2015_Sep_06_1239,A,facesParametric,5,59.6153567352,
./basicStim/23M_NE_C.jpg,,0,25,25,55,,,,,,,,,,,None,None,None,None,None,None,NTR,0.997,,,,,,,,,,,,,,,2015_Sep_06_1239,A,facesParametric,5,59.6153567352,
./basicStim/06F_HA_O.jpg,,0,26,26,24,,,,,,,,,,,HAP,1.601,None,None,None,None,None,None,,,,,,,,,,,,,,,2015_Sep_06_1239,A,facesParametric,5,59.6153567352,
./basicStim/36M_NE_C.jpg,,0,27,27,83,,,,,,,,,,,None,None,None,None,None,None,NTR,2.319,,,,,,,,,,,,,,,2015_Sep_06_1239,A,facesParametric,5,59.6153567352,
./basicStim/23M_HA_O.jpg,,0,28,28,52,,,,,,,,,,,HAP,0.884,None,None,None,None,None,None,,,,,,,,,,,,,,,2015_Sep_06_1239,A,facesParametric,5,59.6153567352,
./basicStim/06F_NE_C.jpg,,0,29,29,27,,,,,,,,,,,None,None,None,None,None,None,NTR,0.842,,,,,,,,,,,,,,,2015_Sep_06_1239,A,facesParametric,5,59.6153567352,
./basicStim/02F_DI_O.jpg,,0,30,30,8,,,,,,,,,,,None,None,None,None,DIS,0.588,None,None,,,,,,,,,,,,,,,2015_Sep_06_1239,A,facesParametric,5,59.6153567352,
./basicStim/24M_DI_O.jpg,,0,31,31,57,,,,,,,,,,,None,None,None,None,DIS,2.228,None,None,,,,,,,,,,,,,,,2015_Sep_06_1239,A,facesParametric,5,59.6153567352,
./basicStim/02F_AN_O.jpg,,0,32,32,7,,,,,,,,,,,None,None,ANG,3.417,None,None,None,None,,,,,,,,,,,,,,,2015_Sep_06_1239,A,facesParametric,5,59.6153567352,
./basicStim/06F_SA_C.jpg,,0,33,33,25,,,,,,,,,,,SAD,2.685,None,None,None,None,None,None,,,,,,,,,,,,,,,2015_Sep_06_1239,A,facesParametric,5,59.6153567352,
./basicStim/09F_FE_O.jpg,,0,34,34,37,,,,,,,,,,,None,None,None,None,DIS,2.908,None,None,,,,,,,,,,,,,,,2015_Sep_06_1239,A,facesParametric,5,59.6153567352,
./basicStim/09F_HA_O.jpg,,0,35,35,38,,,,,,,,,,,None,None,None,None,None,None,NTR,2.65,,,,,,,,,,,,,,,2015_Sep_06_1239,A,facesParametric,5,59.6153567352,
./basicStim/06F_DI_O.jpg,,0,36,36,22,,,,,,,,,,,None,None,None,None,DIS,2.487,None,None,,,,,,,,,,,,,,,2015_Sep_06_1239,A,facesParametric,5,59.6153567352,
./basicStim/23M_DI_O.jpg,,0,37,37,50,,,,,,,,,,,None,None,None,None,DIS,0.636,None,None,,,,,,,,,,,,,,,2015_Sep_06_1239,A,facesParametric,5,59.6153567352,
./basicStim/09F_DI_O.jpg,,0,38,38,36,,,,,,,,,,,None,None,None,None,DIS,0.726,None,None,,,,,,,,,,,,,,,2015_Sep_06_1239,A,facesParametric,5,59.6153567352,
./basicStim/36M_HA_O.jpg,,0,39,39,80,,,,,,,,,,,HAP,1.18,None,None,None,None,None,None,,,,,,,,,,,,,,,2015_Sep_06_1239,A,facesParametric,5,59.6153567352,
./basicStim/03F_FE_O.jpg,,0,40,40,16,,,,,,,,,,,None,None,FEA,2.57,None,None,None,None,,,,,,,,,,,,,,,2015_Sep_06_1239,A,facesParametric,5,59.6153567352,
./basicStim/28M_FE_O.jpg,,0,41,41,65,,,,,,,,,,,None,None,FEA,0.497,None,None,None,None,,,,,,,,,,,,,,,2015_Sep_06_1239,A,facesParametric,5,59.6153567352,
./basicStim/28M_NE_C.jpg,,0,42,42,69,,,,,,,,,,,None,None,None,None,None,None,NTR,1.057,,,,,,,,,,,,,,,2015_Sep_06_1239,A,facesParametric,5,59.6153567352,
./basicStim/02F_SA_C.jpg,,0,43,43,11,,,,,,,,,,,SAD,1.297,None,None,None,None,None,None,,,,,,,,,,,,,,,2015_Sep_06_1239,A,facesParametric,5,59.6153567352,
./basicStim/03F_SP_O.jpg,,0,44,44,19,,,,,,,,,,,HAP,2.016,None,None,None,None,None,None,,,,,,,,,,,,,,,2015_Sep_06_1239,A,facesParametric,5,59.6153567352,
./basicStim/07F_DI_O.jpg,,0,45,45,29,,,,,,,,,,,None,None,None,None,DIS,2.736,None,None,,,,,,,,,,,,,,,2015_Sep_06_1239,A,facesParametric,5,59.6153567352,
./basicStim/02F_HA_O.jpg,,0,46,46,10,,,,,,,,,,,HAP,1.752,None,None,None,None,None,None,,,,,,,,,,,,,,,2015_Sep_06_1239,A,facesParametric,5,59.6153567352,
./basicStim/21M_SA_C.jpg,,0,47,47,46,,,,,,,,,,,SAD,8.018,None,None,None,None,None,None,,,,,,,,,,,,,,,2015_Sep_06_1239,A,facesParametric,5,59.6153567352,
./basicStim/03F_AN_O.jpg,,0,48,48,14,,,,,,,,,,,None,None,ANG,2.767,None,None,None,None,,,,,,,,,,,,,,,2015_Sep_06_1239,A,facesParametric,5,59.6153567352,
./basicStim/01F_DI_O.jpg,,0,49,49,1,,,,,,,,,,,None,None,None,None,DIS,0.989,None,None,,,,,,,,,,,,,,,2015_Sep_06_1239,A,facesParametric,5,59.6153567352,
./basicStim/07F_SA_C.jpg,,0,50,50,32,,,,,,,,,,,SAD,1.329,None,None,None,None,None,None,,,,,,,,,,,,,,,2015_Sep_06_1239,A,facesParametric,5,59.6153567352,
./basicStim/24M_NE_C.jpg,,0,51,51,62,,,,,,,,,,,None,None,None,None,None,None,NTR,0.912,,,,,,,,,,,,,,,2015_Sep_06_1239,A,facesParametric,5,59.6153567352,
./basicStim/34M_FE_O.jpg,,0,52,52,72,,,,,,,,,,,None,None,None,None,SUP,1.398,None,None,,,,,,,,,,,,,,,2015_Sep_06_1239,A,facesParametric,5,59.6153567352,
./basicStim/09F_NE_C.jpg,,0,53,53,41,,,,,,,,,,,None,None,None,None,None,None,NTR,2.028,,,,,,,,,,,,,,,2015_Sep_06_1239,A,facesParametric,5,59.6153567352,
./basicStim/01F_SA_C.jpg,,0,54,54,4,,,,,,,,,,,SAD,1.228,None,None,None,None,None,None,,,,,,,,,,,,,,,2015_Sep_06_1239,A,facesParametric,5,59.6153567352,
./basicStim/21M_NE_C.jpg,,0,55,55,48,,,,,,,,,,,None,None,None,None,None,None,NTR,1.345,,,,,,,,,,,,,,,2015_Sep_06_1239,A,facesParametric,5,59.6153567352,
./basicStim/07F_AN_O.jpg,,0,56,56,28,,,,,,,,,,,None,None,ANG,1.765,None,None,None,None,,,,,,,,,,,,,,,2015_Sep_06_1239,A,facesParametric,5,59.6153567352,
./basicStim/36M_AN_O.jpg,,0,57,57,77,,,,,,,,,,,None,None,ANG,0.439,None,None,None,None,,,,,,,,,,,,,,,2015_Sep_06_1239,A,facesParametric,5,59.6153567352,
./basicStim/34M_SA_C.jpg,,0,58,58,74,,,,,,,,,,,SAD,0.715,None,None,None,None,None,None,,,,,,,,,,,,,,,2015_Sep_06_1239,A,facesParametric,5,59.6153567352,
./basicStim/02F_FE_O.jpg,,0,59,59,9,,,,,,,,,,,None,None,None,None,SUP,4.127,None,None,,,,,,,,,,,,,,,2015_Sep_06_1239,A,facesParametric,5,59.6153567352,
./basicStim/36M_SP_O.jpg,,0,60,60,82,,,,,,,,,,,None,None,None,None,SUP,0.962,None,None,,,,,,,,,,,,,,,2015_Sep_06_1239,A,facesParametric,5,59.6153567352,
./basicStim/34M_SP_O.jpg,,0,61,61,75,,,,,,,,,,,None,None,None,None,SUP,0.421,None,None,,,,,,,,,,,,,,,2015_Sep_06_1239,A,facesParametric,5,59.6153567352,
./basicStim/01F_HA_O.jpg,,0,62,62,3,,,,,,,,,,,HAP,1.463,None,None,None,None,None,None,,,,,,,,,,,,,,,2015_Sep_06_1239,A,facesParametric,5,59.6153567352,
./basicStim/03F_HA_O.jpg,,0,63,63,17,,,,,,,,,,,HAP,1.554,None,None,None,None,None,None,,,,,,,,,,,,,,,2015_Sep_06_1239,A,facesParametric,5,59.6153567352,
./basicStim/24M_AN_O.jpg,,0,64,64,56,,,,,,,,,,,None,None,ANG,1.214,None,None,None,None,,,,,,,,,,,,,,,2015_Sep_06_1239,A,facesParametric,5,59.6153567352,
./basicStim/23M_AN_O.jpg,,0,65,65,49,,,,,,,,,,,None,None,ANG,0.423,None,None,None,None,,,,,,,,,,,,,,,2015_Sep_06_1239,A,facesParametric,5,59.6153567352,
./basicStim/01F_NE_C.jpg,,0,66,66,6,,,,,,,,,,,None,None,None,None,None,None,NTR,1.496,,,,,,,,,,,,,,,2015_Sep_06_1239,A,facesParametric,5,59.6153567352,
./basicStim/23M_SP_O.jpg,,0,67,67,54,,,,,,,,,,,None,None,None,None,SUP,1.309,None,None,,,,,,,,,,,,,,,2015_Sep_06_1239,A,facesParametric,5,59.6153567352,
./basicStim/06F_FE_O.jpg,,0,68,68,23,,,,,,,,,,,None,None,None,None,SUP,2.483,None,None,,,,,,,,,,,,,,,2015_Sep_06_1239,A,facesParametric,5,59.6153567352,
./basicStim/36M_SA_C.jpg,,0,69,69,81,,,,,,,,,,,SAD,2.807,None,None,None,None,None,None,,,,,,,,,,,,,,,2015_Sep_06_1239,A,facesParametric,5,59.6153567352,
./basicStim/07F_FE_O.jpg,,0,70,70,30,,,,,,,,,,,None,None,FEA,2.823,None,None,None,None,,,,,,,,,,,,,,,2015_Sep_06_1239,A,facesParametric,5,59.6153567352,
./basicStim/09F_SA_C.jpg,,0,71,71,39,,,,,,,,,,,SAD,4.062,None,None,None,None,None,None,,,,,,,,,,,,,,,2015_Sep_06_1239,A,facesParametric,5,59.6153567352,
./basicStim/01F_SP_O.jpg,,0,72,72,5,,,,,,,,,,,None,None,None,None,SUP,3.09,None,None,,,,,,,,,,,,,,,2015_Sep_06_1239,A,facesParametric,5,59.6153567352,
./basicStim/02F_SP_O.jpg,,0,73,73,12,,,,,,,,,,,None,None,None,None,SUP,0.842,None,None,,,,,,,,,,,,,,,2015_Sep_06_1239,A,facesParametric,5,59.6153567352,
./basicStim/24M_FE_O.jpg,,0,74,74,58,,,,,,,,,,,None,None,None,None,DIS,7.41,None,None,,,,,,,,,,,,,,,2015_Sep_06_1239,A,facesParametric,5,59.6153567352,
./basicStim/21M_FE_O.jpg,,0,75,75,44,,,,,,,,,,,None,None,None,None,SUP,2.533,None,None,,,,,,,,,,,,,,,2015_Sep_06_1239,A,facesParametric,5,59.6153567352,
./basicStim/01F_AN_O.jpg,,0,76,76,0,,,,,,,,,,,None,None,ANG,0.862,None,None,None,None,,,,,,,,,,,,,,,2015_Sep_06_1239,A,facesParametric,5,59.6153567352,
./basicStim/28M_SA_C.jpg,,0,77,77,67,,,,,,,,,,,None,None,None,None,SUP,1.609,None,None,,,,,,,,,,,,,,,2015_Sep_06_1239,A,facesParametric,5,59.6153567352,
./basicStim/28M_DI_O.jpg,,0,78,78,64,,,,,,,,,,,None,None,None,None,DIS,2.839,None,None,,,,,,,,,,,,,,,2015_Sep_06_1239,A,facesParametric,5,59.6153567352,
./basicStim/07F_NE_C.jpg,,0,79,79,34,,,,,,,,,,,None,None,None,None,None,None,NTR,0.807,,,,,,,,,,,,,,,2015_Sep_06_1239,A,facesParametric,5,59.6153567352,
./basicStim/23M_SA_C.jpg,,0,80,80,53,,,,,,,,,,,SAD,2.977,None,None,None,None,None,None,,,,,,,,,,,,,,,2015_Sep_06_1239,A,facesParametric,5,59.6153567352,
./basicStim/28M_SP_O.jpg,,0,81,81,68,,,,,,,,,,,None,None,None,None,SUP,1.107,None,None,,,,,,,,,,,,,,,2015_Sep_06_1239,A,facesParametric,5,59.6153567352,
./basicStim/21M_AN_O.jpg,,0,82,82,42,,,,,,,,,,,None,None,ANG,0.778,None,None,None,None,,,,,,,,,,,,,,,2015_Sep_06_1239,A,facesParametric,5,59.6153567352,
./basicStim/23M_FE_O.jpg,,0,83,83,51,,,,,,,,,,,None,None,None,None,SUP,1.898,None,None,,,,,,,,,,,,,,,2015_Sep_06_1239,A,facesParametric,5,59.6153567352,
,,,,,,,,,,,,,,,,,,,,,,,,return,4.22395396233,,,,,,,,,,,,,2015_Sep_06_1239,A,facesParametric,5,59.6153567352,
,,,,,,,,,,,,,,return,17.295550108,,,,,,,,,,,,,,,,,,,,,,,2015_Sep_06_1239,A,facesParametric,5,59.6153567352,
,,,,,,,,,,,,,,,,,,,,,,,,return,16.2396709919,,,,,,,,,,,,,2015_Sep_06_1239,A,facesParametric,5,59.6153567352,
,,,,,,,,,,,,,,,,,,,,,,,,,,return,2.74921607971,,,,,,,,,,,2015_Sep_06_1239,A,facesParametric,5,59.6153567352,
./stim/MorphM6_10_orig.jpg,0,,,,,0,0,0,0,,,,,,,,,,,,,,,,,,,1.69921875,-13.154296875,0,0,1,2.8768081665,,,,,2015_Sep_06_1239,A,facesParametric,5,59.6153567352,
./stim/MorphF9_04_orig.jpg,1,,,,,0,1,1,1,,,,,,,,,,,,,,,,,,,-0.263671875,-13.154296875,1,0,0,1.67223000526,,,,,2015_Sep_06_1239,A,facesParametric,5,59.6153567352,
./stim/MorphM3_03_orig.jpg,2,,,,,0,2,2,2,,,,,,,,,,,,,,,,,,,-0.41015625,-13.154296875,1,0,0,8.14298009872,,,,,2015_Sep_06_1239,A,facesParametric,5,59.6153567352,
./stim/MorphM1_00_orig.jpg,3,,,,,0,3,3,3,,,,,,,,,,,,,,,,,,,-0.41015625,-13.154296875,1,0,0,0.719607114792,,,,,2015_Sep_06_1239,A,facesParametric,5,59.6153567352,
./stim/MorphM6_09_orig.jpg,4,,,,,0,4,4,4,,,,,,,,,,,,,,,,,,,1.142578125,-13.154296875,0,0,1,0.786510944366,,,,,2015_Sep_06_1239,A,facesParametric,5,59.6153567352,
./stim/MorphM10_02_orig.jpg,5,,,,,0,5,5,5,,,,,,,,,,,,,,,,,,,1.171875,-13.154296875,1,0,0,2.00990891457,,,,,2015_Sep_06_1239,A,facesParametric,5,59.6153567352,
./stim/MorphM3_06_orig.jpg,6,,,,,0,6,6,6,,,,,,,,,,,,,,,,,,,1.171875,-13.154296875,0,0,1,2.19442605972,,,,,2015_Sep_06_1239,A,facesParametric,5,59.6153567352,
./stim/MorphM7_08_orig.jpg,7,,,,,0,7,7,7,,,,,,,,,,,,,,,,,,,1.171875,-13.154296875,0,0,1,0.768496990204,,,,,2015_Sep_06_1239,A,facesParametric,5,59.6153567352,
./stim/MorphM6_04_orig.jpg,8,,,,,0,8,8,8,,,,,,,,,,,,,,,,,,,1.142578125,-13.154296875,1,0,0,1.58910894394,,,,,2015_Sep_06_1239,A,facesParametric,5,59.6153567352,
./stim/MorphM2_05_orig.jpg,9,,,,,0,9,9,9,,,,,,,,,,,,,,,,,,,1.171875,-13.125,1,0,0,1.5400800705,,,,,2015_Sep_06_1239,A,facesParametric,5,59.6153567352,
./stim/MorphM3_01_orig.jpg,10,,,,,0,10,10,10,,,,,,,,,,,,,,,,,,,1.171875,-13.154296875,1,0,0,2.46182394028,,,,,2015_Sep_06_1239,A,facesParametric,5,59.6153567352,
./stim/MorphF1_03_orig.jpg,11,,,,,0,11,11,11,,,,,,,,,,,,,,,,,,,1.201171875,-13.154296875,1,0,0,1.77573800087,,,,,2015_Sep_06_1239,A,facesParametric,5,59.6153567352,
./stim/MorphF8_09_orig.jpg,12,,,,,0,12,12,12,,,,,,,,,,,,,,,,,,,1.201171875,-13.154296875,0,0,1,1.28868198395,,,,,2015_Sep_06_1239,A,facesParametric,5,59.6153567352,
./stim/MorphF3_01_orig.jpg,13,,,,,0,13,13,13,,,,,,,,,,,,,,,,,,,1.171875,-13.154296875,1,0,0,2.04393601418,,,,,2015_Sep_06_1239,A,facesParametric,5,59.6153567352,
./stim/MorphF7_03_orig.jpg,14,,,,,0,14,14,14,,,,,,,,,,,,,,,,,,,1.142578125,-13.125,0,0,1,2.14356303215,,,,,2015_Sep_06_1239,A,facesParametric,5,59.6153567352,
./stim/MorphM1_05_orig.jpg,15,,,,,0,15,15,15,,,,,,,,,,,,,,,,,,,1.142578125,-13.125,1,0,0,1.42316508293,,,,,2015_Sep_06_1239,A,facesParametric,5,59.6153567352,
./stim/MorphM5_08_orig.jpg,16,,,,,0,16,16,16,,,,,,,,,,,,,,,,,,,1.142578125,-13.125,0,0,1,0.837404966354,,,,,2015_Sep_06_1239,A,facesParametric,5,59.6153567352,
./stim/MorphF7_01_orig.jpg,17,,,,,0,17,17,17,,,,,,,,,,,,,,,,,,,1.171875,-13.154296875,0,0,1,1.58857488632,,,,,2015_Sep_06_1239,A,facesParametric,5,59.6153567352,
./stim/MorphF1_10_orig.jpg,18,,,,,0,18,18,18,,,,,,,,,,,,,,,,,,,1.171875,-13.154296875,0,0,1,1.13819813728,,,,,2015_Sep_06_1239,A,facesParametric,5,59.6153567352,
./stim/MorphF9_06_orig.jpg,19,,,,,0,19,19,19,,,,,,,,,,,,,,,,,,,1.142578125,-13.125,0,0,1,0.834971904755,,,,,2015_Sep_06_1239,A,facesParametric,5,59.6153567352,
./stim/MorphM4_00_orig.jpg,20,,,,,0,20,20,20,,,,,,,,,,,,,,,,,,,1.142578125,-13.125,1,0,0,0.987540006638,,,,,2015_Sep_06_1239,A,facesParametric,5,59.6153567352,
./stim/MorphM10_08_orig.jpg,21,,,,,0,21,21,21,,,,,,,,,,,,,,,,,,,1.142578125,-13.125,0,0,1,0.803071975708,,,,,2015_Sep_06_1239,A,facesParametric,5,59.6153567352,
./stim/MorphF8_07_orig.jpg,22,,,,,0,22,22,22,,,,,,,,,,,,,,,,,,,1.142578125,-13.125,0,0,1,1.38949418068,,,,,2015_Sep_06_1239,A,facesParametric,5,59.6153567352,
./stim/MorphF6_02_orig.jpg,23,,,,,0,23,23,23,,,,,,,,,,,,,,,,,,,1.142578125,-13.125,1,0,0,1.38978886604,,,,,2015_Sep_06_1239,A,facesParametric,5,59.6153567352,
./stim/MorphM2_08_orig.jpg,24,,,,,0,24,24,24,,,,,,,,,,,,,,,,,,,1.083984375,-13.0078125,0,0,1,1.49052286148,,,,,2015_Sep_06_1239,A,facesParametric,5,59.6153567352,
./stim/MorphF9_05_orig.jpg,25,,,,,0,25,25,25,,,,,,,,,,,,,,,,,,,1.11328125,-12.978515625,0,0,1,2.79743385315,,,,,2015_Sep_06_1239,A,facesParametric,5,59.6153567352,
./stim/MorphF1_08_orig.jpg,26,,,,,0,26,26,26,,,,,,,,,,,,,,,,,,,1.142578125,-12.94921875,0,0,1,0.886999130249,,,,,2015_Sep_06_1239,A,facesParametric,5,59.6153567352,
./stim/MorphF6_09_orig.jpg,27,,,,,0,27,27,27,,,,,,,,,,,,,,,,,,,1.142578125,-12.94921875,0,0,1,0.617117166519,,,,,2015_Sep_06_1239,A,facesParametric,5,59.6153567352,
./stim/MorphF2_09_orig.jpg,28,,,,,0,28,28,28,,,,,,,,,,,,,,,,,,,1.083984375,-12.978515625,0,0,1,2.42836284637,,,,,2015_Sep_06_1239,A,facesParametric,5,59.6153567352,
./stim/MorphF1_04_orig.jpg,29,,,,,0,29,29,29,,,,,,,,,,,,,,,,,,,1.083984375,-12.978515625,1,0,0,1.12168288231,,,,,2015_Sep_06_1239,A,facesParametric,5,59.6153567352,
./stim/MorphM4_06_orig.jpg,30,,,,,0,30,30,30,,,,,,,,,,,,,,,,,,,1.083984375,-12.978515625,0,0,1,0.602010011673,,,,,2015_Sep_06_1239,A,facesParametric,5,59.6153567352,
./stim/MorphM5_04_orig.jpg,31,,,,,0,31,31,31,,,,,,,,,,,,,,,,,,,1.083984375,-12.978515625,0,0,1,0.954039096832,,,,,2015_Sep_06_1239,A,facesParametric,5,59.6153567352,
./stim/MorphF10_02_orig.jpg,32,,,,,0,32,32,32,,,,,,,,,,,,,,,,,,,1.083984375,-12.919921875,1,0,0,3.39917302132,,,,,2015_Sep_06_1239,A,facesParametric,5,59.6153567352,
./stim/MorphF6_05_orig.jpg,33,,,,,0,33,33,33,,,,,,,,,,,,,,,,,,,1.083984375,-12.861328125,0,0,1,0.970923900604,,,,,2015_Sep_06_1239,A,facesParametric,5,59.6153567352,
./stim/MorphF8_01_orig.jpg,34,,,,,0,34,34,34,,,,,,,,,,,,,,,,,,,1.083984375,-12.861328125,1,0,0,2.16102385521,,,,,2015_Sep_06_1239,A,facesParametric,5,59.6153567352,
./stim/MorphM2_06_orig.jpg,35,,,,,0,35,35,35,,,,,,,,,,,,,,,,,,,1.142578125,-12.7734375,0,0,1,5.05984711647,,,,,2015_Sep_06_1239,A,facesParametric,5,59.6153567352,
./stim/MorphM9_02_orig.jpg,36,,,,,0,36,36,36,,,,,,,,,,,,,,,,,,,1.11328125,-12.685546875,1,0,0,1.13827490807,,,,,2015_Sep_06_1239,A,facesParametric,5,59.6153567352,
./stim/MorphM5_03_orig.jpg,37,,,,,0,37,37,37,,,,,,,,,,,,,,,,,,,0.99609375,-12.48046875,1,0,0,3.13292193413,,,,,2015_Sep_06_1239,A,facesParametric,5,59.6153567352,
./stim/MorphM4_01_orig.jpg,38,,,,,0,38,38,38,,,,,,,,,,,,,,,,,,,1.025390625,-12.451171875,1,0,0,0.68484377861,,,,,2015_Sep_06_1239,A,facesParametric,5,59.6153567352,
./stim/MorphM6_05_orig.jpg,39,,,,,0,39,39,39,,,,,,,,,,,,,,,,,,,1.0546875,-12.36328125,1,0,0,2.41249513626,,,,,2015_Sep_06_1239,A,facesParametric,5,59.6153567352,
./stim/MorphF4_02_orig.jpg,40,,,,,0,40,40,40,,,,,,,,,,,,,,,,,,,2.578125,-11.71875,1,0,0,2.76227402687,,,,,2015_Sep_06_1239,A,facesParametric,5,59.6153567352,
./stim/MorphM9_03_orig.jpg,41,,,,,0,41,41,41,,,,,,,,,,,,,,,,,,,2.87109375,-11.6015625,1,0,0,1.57406806946,,,,,2015_Sep_06_1239,A,facesParametric,5,59.6153567352,
./stim/MorphF4_06_orig.jpg,42,,,,,0,42,42,42,,,,,,,,,,,,,,,,,,,2.98828125,-11.66015625,0,0,1,1.10447692871,,,,,2015_Sep_06_1239,A,facesParametric,5,59.6153567352,
./stim/MorphF5_00_orig.jpg,43,,,,,0,43,43,43,,,,,,,,,,,,,,,,,,,2.98828125,-11.66015625,1,0,0,0.871256828308,,,,,2015_Sep_06_1239,A,facesParametric,5,59.6153567352,
./stim/MorphM7_04_orig.jpg,44,,,,,0,44,44,44,,,,,,,,,,,,,,,,,,,2.98828125,-11.66015625,1,0,0,0.584008216858,,,,,2015_Sep_06_1239,A,facesParametric,5,59.6153567352,
./stim/MorphF1_07_orig.jpg,45,,,,,0,45,45,45,,,,,,,,,,,,,,,,,,,2.98828125,-11.66015625,0,0,1,2.49605703354,,,,,2015_Sep_06_1239,A,facesParametric,5,59.6153567352,
./stim/MorphF7_02_orig.jpg,46,,,,,0,46,46,46,,,,,,,,,,,,,,,,,,,2.98828125,-11.66015625,0,0,1,1.72513198853,,,,,2015_Sep_06_1239,A,facesParametric,5,59.6153567352,
./stim/MorphF3_08_orig.jpg,47,,,,,0,47,47,47,,,,,,,,,,,,,,,,,,,2.98828125,-11.66015625,0,0,1,1.83998799324,,,,,2015_Sep_06_1239,A,facesParametric,5,59.6153567352,
./stim/MorphM4_03_orig.jpg,48,,,,,0,48,48,48,,,,,,,,,,,,,,,,,,,3.017578125,-11.689453125,1,0,0,1.60482597351,,,,,2015_Sep_06_1239,A,facesParametric,5,59.6153567352,
./stim/MorphM7_05_orig.jpg,49,,,,,0,49,49,49,,,,,,,,,,,,,,,,,,,3.017578125,-11.66015625,0,0,1,1.42256617546,,,,,2015_Sep_06_1239,A,facesParametric,5,59.6153567352,
./stim/MorphM4_08_orig.jpg,50,,,,,0,50,50,50,,,,,,,,,,,,,,,,,,,3.046875,-11.630859375,0,0,1,2.98191094398,,,,,2015_Sep_06_1239,A,facesParametric,5,59.6153567352,
./stim/MorphM2_03_orig.jpg,51,,,,,0,51,51,51,,,,,,,,,,,,,,,,,,,3.134765625,-11.66015625,1,0,0,3.90305495262,,,,,2015_Sep_06_1239,A,facesParametric,5,59.6153567352,
./stim/MorphF3_10_orig.jpg,52,,,,,0,52,52,52,,,,,,,,,,,,,,,,,,,3.193359375,-11.806640625,0,0,1,0.819478988647,,,,,2015_Sep_06_1239,A,facesParametric,5,59.6153567352,
./stim/MorphF6_08_orig.jpg,53,,,,,0,53,53,53,,,,,,,,,,,,,,,,,,,3.193359375,-11.806640625,0,0,1,0.937080860138,,,,,2015_Sep_06_1239,A,facesParametric,5,59.6153567352,
./stim/MorphM3_10_orig.jpg,54,,,,,0,54,54,54,,,,,,,,,,,,,,,,,,,3.22265625,-11.8359375,0,0,1,2.2106180191,,,,,2015_Sep_06_1239,A,facesParametric,5,59.6153567352,
./stim/MorphM10_03_orig.jpg,55,,,,,0,55,55,55,,,,,,,,,,,,,,,,,,,3.22265625,-11.8359375,0,0,1,1.10462713242,,,,,2015_Sep_06_1239,A,facesParametric,5,59.6153567352,
./stim/MorphF2_03_orig.jpg,56,,,,,0,56,56,56,,,,,,,,,,,,,,,,,,,3.22265625,-11.8359375,0,0,1,2.94699001312,,,,,2015_Sep_06_1239,A,facesParametric,5,59.6153567352,
./stim/MorphM7_10_orig.jpg,57,,,,,0,57,57,57,,,,,,,,,,,,,,,,,,,3.310546875,-11.8359375,0,0,1,0.736216068268,,,,,2015_Sep_06_1239,A,facesParametric,5,59.6153567352,
./stim/MorphF8_00_orig.jpg,58,,,,,0,58,58,58,,,,,,,,,,,,,,,,,,,3.45703125,-11.865234375,0,0,1,1.05464410782,,,,,2015_Sep_06_1239,A,facesParametric,5,59.6153567352,
./stim/MorphF7_07_orig.jpg,59,,,,,0,59,59,59,,,,,,,,,,,,,,,,,,,3.45703125,-11.865234375,0,0,1,1.35601496696,,,,,2015_Sep_06_1239,A,facesParametric,5,59.6153567352,
./stim/MorphM8_09_orig.jpg,60,,,,,0,60,60,60,,,,,,,,,,,,,,,,,,,3.544921875,-11.89453125,0,0,1,2.39573192596,,,,,2015_Sep_06_1239,A,facesParametric,5,59.6153567352,
./stim/MorphF5_08_orig.jpg,61,,,,,0,61,61,61,,,,,,,,,,,,,,,,,,,3.544921875,-11.89453125,0,0,1,1.104585886,,,,,2015_Sep_06_1239,A,facesParametric,5,59.6153567352,
./stim/MorphM8_00_orig.jpg,62,,,,,0,62,62,62,,,,,,,,,,,,,,,,,,,3.515625,-11.923828125,0,0,1,2.34537696838,,,,,2015_Sep_06_1239,A,facesParametric,5,59.6153567352,
./stim/MorphF4_04_orig.jpg,63,,,,,0,63,63,63,,,,,,,,,,,,,,,,,,,3.486328125,-11.953125,1,0,0,1.90962004662,,,,,2015_Sep_06_1239,A,facesParametric,5,59.6153567352,
./stim/MorphM8_05_orig.jpg,64,,,,,0,64,64,64,,,,,,,,,,,,,,,,,,,3.92578125,-11.923828125,0,0,1,6.28163409233,,,,,2015_Sep_06_1239,A,facesParametric,5,59.6153567352,
./stim/MorphM1_09_orig.jpg,65,,,,,0,65,65,65,,,,,,,,,,,,,,,,,,,3.955078125,-11.953125,0,0,1,0.651746988297,,,,,2015_Sep_06_1239,A,facesParametric,5,59.6153567352,
./stim/MorphF8_04_orig.jpg,66,,,,,0,66,66,66,,,,,,,,,,,,,,,,,,,3.955078125,-11.953125,1,0,0,0.954219102859,,,,,2015_Sep_06_1239,A,facesParametric,5,59.6153567352,
./stim/MorphM10_07_orig.jpg,67,,,,,0,67,67,67,,,,,,,,,,,,,,,,,,,3.92578125,-11.982421875,0,0,1,1.17155694962,,,,,2015_Sep_06_1239,A,facesParametric,5,59.6153567352,
./stim/MorphM5_05_orig.jpg,68,,,,,0,68,68,68,,,,,,,,,,,,,,,,,,,3.955078125,-11.953125,0,0,1,2.09387302399,,,,,2015_Sep_06_1239,A,facesParametric,5,59.6153567352,
./stim/MorphM3_02_orig.jpg,69,,,,,0,69,69,69,,,,,,,,,,,,,,,,,,,3.984375,-11.923828125,1,0,0,1.55733394623,,,,,2015_Sep_06_1239,A,facesParametric,5,59.6153567352,
./stim/MorphF2_08_orig.jpg,70,,,,,0,70,70,70,,,,,,,,,,,,,,,,,,,3.955078125,-11.982421875,0,0,1,0.954412221909,,,,,2015_Sep_06_1239,A,facesParametric,5,59.6153567352,
./stim/MorphM5_00_orig.jpg,71,,,,,0,71,71,71,,,,,,,,,,,,,,,,,,,3.955078125,-11.982421875,0,0,1,2.74522805214,,,,,2015_Sep_06_1239,A,facesParametric,5,59.6153567352,
./stim/MorphF6_07_orig.jpg,72,,,,,0,72,72,72,,,,,,,,,,,,,,,,,,,3.984375,-12.01171875,0,0,1,1.79172205925,,,,,2015_Sep_06_1239,A,facesParametric,5,59.6153567352,
./stim/MorphM7_07_orig.jpg,73,,,,,0,73,73,73,,,,,,,,,,,,,,,,,,,3.984375,-12.01171875,0,0,1,0.820426940918,,,,,2015_Sep_06_1239,A,facesParametric,5,59.6153567352,
./stim/MorphM4_05_orig.jpg,74,,,,,0,74,74,74,,,,,,,,,,,,,,,,,,,3.984375,-12.01171875,0,0,1,0.669157028198,,,,,2015_Sep_06_1239,A,facesParametric,5,59.6153567352,
./stim/MorphF1_02_orig.jpg,75,,,,,0,75,75,75,,,,,,,,,,,,,,,,,,,3.955078125,-11.982421875,1,0,0,1.72385716438,,,,,2015_Sep_06_1239,A,facesParametric,5,59.6153567352,
./stim/MorphM1_03_orig.jpg,76,,,,,0,76,76,76,,,,,,,,,,,,,,,,,,,3.984375,-11.953125,1,0,0,1.00362300873,,,,,2015_Sep_06_1239,A,facesParametric,5,59.6153567352,
./stim/MorphM6_01_orig.jpg,77,,,,,0,77,77,77,,,,,,,,,,,,,,,,,,,3.984375,-11.953125,1,0,0,0.719429969788,,,,,2015_Sep_06_1239,A,facesParametric,5,59.6153567352,
./stim/MorphF5_05_orig.jpg,78,,,,,0,78,78,78,,,,,,,,,,,,,,,,,,,4.51171875,-11.71875,1,0,0,4.97663593292,,,,,2015_Sep_06_1239,A,facesParametric,5,59.6153567352,
./stim/MorphF4_10_orig.jpg,79,,,,,0,79,79,79,,,,,,,,,,,,,,,,,,,4.5703125,-11.748046875,0,0,1,2.09223294258,,,,,2015_Sep_06_1239,A,facesParametric,5,59.6153567352,
./stim/MorphF9_03_orig.jpg,80,,,,,0,80,80,80,,,,,,,,,,,,,,,,,,,4.599609375,-11.689453125,0,0,1,1.52362704277,,,,,2015_Sep_06_1239,A,facesParametric,5,59.6153567352,
./stim/MorphM8_04_orig.jpg,81,,,,,0,81,81,81,,,,,,,,,,,,,,,,,,,5.302734375,-11.015625,1,0,0,6.98655700684,,,,,2015_Sep_06_1239,A,facesParametric,5,59.6153567352,
./stim/MorphF2_04_orig.jpg,82,,,,,0,82,82,82,,,,,,,,,,,,,,,,,,,6.416015625,-10.95703125,0,0,1,9.73613405228,,,,,2015_Sep_06_1239,A,facesParametric,5,59.6153567352,
./stim/MorphM10_01_orig.jpg,83,,,,,0,83,83,83,,,,,,,,,,,,,,,,,,,6.38671875,-10.95703125,1,0,0,1.32247495651,,,,,2015_Sep_06_1239,A,facesParametric,5,59.6153567352,
./stim/MorphF6_10_orig.jpg,84,,,,,0,84,84,84,,,,,,,,,,,,,,,,,,,6.298828125,-10.95703125,0,0,1,0.937752008438,,,,,2015_Sep_06_1239,A,facesParametric,5,59.6153567352,
./stim/MorphF10_00_orig.jpg,85,,,,,0,85,85,85,,,,,,,,,,,,,,,,,,,6.591796875,-10.78125,1,0,0,3.97063803673,,,,,2015_Sep_06_1239,A,facesParametric,5,59.6153567352,
./stim/MorphM10_04_orig.jpg,86,,,,,0,86,86,86,,,,,,,,,,,,,,,,,,,6.73828125,-10.72265625,0,0,1,3.23339986801,,,,,2015_Sep_06_1239,A,facesParametric,5,59.6153567352,
./stim/MorphM4_07_orig.jpg,87,,,,,0,87,87,87,,,,,,,,,,,,,,,,,,,6.708984375,-10.72265625,0,0,1,0.718467950821,,,,,2015_Sep_06_1239,A,facesParametric,5,59.6153567352,
./stim/MorphF10_07_orig.jpg,88,,,,,0,88,88,88,,,,,,,,,,,,,,,,,,,6.6796875,-10.693359375,0,0,1,0.884849071503,,,,,2015_Sep_06_1239,A,facesParametric,5,59.6153567352,
./stim/MorphF8_02_orig.jpg,89,,,,,0,89,89,89,,,,,,,,,,,,,,,,,,,6.62109375,-10.6640625,1,0,0,0.968667984009,,,,,2015_Sep_06_1239,A,facesParametric,5,59.6153567352,
./stim/MorphM10_06_orig.jpg,90,,,,,0,90,90,90,,,,,,,,,,,,,,,,,,,6.62109375,-10.6640625,0,0,1,1.23735594749,,,,,2015_Sep_06_1239,A,facesParametric,5,59.6153567352,
./stim/MorphF6_06_orig.jpg,91,,,,,0,91,91,91,,,,,,,,,,,,,,,,,,,6.6796875,-10.60546875,0,0,1,8.32636594772,,,,,2015_Sep_06_1239,A,facesParametric,5,59.6153567352,
./stim/MorphF2_07_orig.jpg,92,,,,,0,92,92,92,,,,,,,,,,,,,,,,,,,6.73828125,-10.517578125,0,0,1,0.937237024307,,,,,2015_Sep_06_1239,A,facesParametric,5,59.6153567352,
./stim/MorphF3_04_orig.jpg,93,,,,,0,93,93,93,,,,,,,,,,,,,,,,,,,6.73828125,-10.48828125,1,0,0,1.50732803345,,,,,2015_Sep_06_1239,A,facesParametric,5,59.6153567352,
./stim/MorphM10_10_orig.jpg,94,,,,,0,94,94,94,,,,,,,,,,,,,,,,,,,6.73828125,-10.48828125,0,0,1,0.60228395462,,,,,2015_Sep_06_1239,A,facesParametric,5,59.6153567352,
./stim/MorphF3_06_orig.jpg,95,,,,,0,95,95,95,,,,,,,,,,,,,,,,,,,6.73828125,-10.48828125,0,0,1,1.20288705826,,,,,2015_Sep_06_1239,A,facesParametric,5,59.6153567352,
./stim/MorphM8_06_orig.jpg,96,,,,,0,96,96,96,,,,,,,,,,,,,,,,,,,6.796875,-10.37109375,0,0,1,3.05024600029,,,,,2015_Sep_06_1239,A,facesParametric,5,59.6153567352,
./stim/MorphM4_02_orig.jpg,97,,,,,0,97,97,97,,,,,,,,,,,,,,,,,,,6.826171875,-10.37109375,1,0,0,1.18775105476,,,,,2015_Sep_06_1239,A,facesParametric,5,59.6153567352,
./stim/MorphF9_08_orig.jpg,98,,,,,0,98,98,98,,,,,,,,,,,,,,,,,,,6.85546875,-10.37109375,0,0,1,2.22751998901,,,,,2015_Sep_06_1239,A,facesParametric,5,59.6153567352,
./stim/MorphF3_07_orig.jpg,99,,,,,0,99,99,99,,,,,,,,,,,,,,,,,,,6.85546875,-10.37109375,0,0,1,0.835588216782,,,,,2015_Sep_06_1239,A,facesParametric,5,59.6153567352,
./stim/MorphM10_09_orig.jpg,100,,,,,0,100,100,100,,,,,,,,,,,,,,,,,,,6.85546875,-10.37109375,0,0,1,1.32265305519,,,,,2015_Sep_06_1239,A,facesParametric,5,59.6153567352,
./stim/MorphM4_04_orig.jpg,101,,,,,0,101,101,101,,,,,,,,,,,,,,,,,,,7.001953125,-10.224609375,0,0,1,0.703101873398,,,,,2015_Sep_06_1239,A,facesParametric,5,59.6153567352,
./stim/MorphM6_07_orig.jpg,102,,,,,0,102,102,102,,,,,,,,,,,,,,,,,,,7.001953125,-10.224609375,0,0,1,0.618641853333,,,,,2015_Sep_06_1239,A,facesParametric,5,59.6153567352,
./stim/MorphF4_01_orig.jpg,103,,,,,0,103,103,103,,,,,,,,,,,,,,,,,,,7.001953125,-10.224609375,0,0,1,1.18854308128,,,,,2015_Sep_06_1239,A,facesParametric,5,59.6153567352,
./stim/MorphF10_06_orig.jpg,104,,,,,0,104,104,104,,,,,,,,,,,,,,,,,,,8.349609375,-9.873046875,0,0,1,4.33849310875,,,,,2015_Sep_06_1239,A,facesParametric,5,59.6153567352,
./stim/MorphM3_00_orig.jpg,105,,,,,0,105,105,105,,,,,,,,,,,,,,,,,,,8.203125,-9.84375,1,0,0,1.38936901093,,,,,2015_Sep_06_1239,A,facesParametric,5,59.6153567352,
./stim/MorphF7_08_orig.jpg,106,,,,,0,106,106,106,,,,,,,,,,,,,,,,,,,8.4375,-9.7265625,0,0,1,1.77437901497,,,,,2015_Sep_06_1239,A,facesParametric,5,59.6153567352,
./stim/MorphF1_06_orig.jpg,107,,,,,0,107,107,107,,,,,,,,,,,,,,,,,,,8.49609375,-9.66796875,0,0,1,1.59052109718,,,,,2015_Sep_06_1239,A,facesParametric,5,59.6153567352,
./stim/MorphM7_02_orig.jpg,108,,,,,0,108,108,108,,,,,,,,,,,,,,,,,,,8.49609375,-9.55078125,0,0,1,1.28926897049,,,,,2015_Sep_06_1239,A,facesParametric,5,59.6153567352,
./stim/MorphM5_02_orig.jpg,109,,,,,0,109,109,109,,,,,,,,,,,,,,,,,,,8.466796875,-9.4921875,1,0,0,1.77475118637,,,,,2015_Sep_06_1239,A,facesParametric,5,59.6153567352,
./stim/MorphM6_08_orig.jpg,110,,,,,0,110,110,110,,,,,,,,,,,,,,,,,,,8.818359375,-9.2578125,0,0,1,1.95780992508,,,,,2015_Sep_06_1239,A,facesParametric,5,59.6153567352,
./stim/MorphF6_01_orig.jpg,111,,,,,0,111,111,111,,,,,,,,,,,,,,,,,,,9.31640625,-8.466796875,1,0,0,5.99859595299,,,,,2015_Sep_06_1239,A,facesParametric,5,59.6153567352,
./stim/MorphM3_08_orig.jpg,112,,,,,0,112,112,112,,,,,,,,,,,,,,,,,,,23.408203125,-12.275390625,0,0,1,2.14407491684,,,,,2015_Sep_06_1239,A,facesParametric,5,59.6153567352,
./stim/MorphF2_06_orig.jpg,113,,,,,0,113,113,113,,,,,,,,,,,,,,,,,,,18.779296875,-10.78125,0,0,1,1.25589299202,,,,,2015_Sep_06_1239,A,facesParametric,5,59.6153567352,
./stim/MorphM9_05_orig.jpg,114,,,,,0,114,114,114,,,,,,,,,,,,,,,,,,,18.75,-10.37109375,0,0,1,4.15536379814,,,,,2015_Sep_06_1239,A,facesParametric,5,59.6153567352,
./stim/MorphM7_06_orig.jpg,115,,,,,0,115,115,115,,,,,,,,,,,,,,,,,,,18.779296875,-10.341796875,0,0,1,2.54507994652,,,,,2015_Sep_06_1239,A,facesParametric,5,59.6153567352,
./stim/MorphF7_00_orig.jpg,116,,,,,0,116,116,116,,,,,,,,,,,,,,,,,,,18.779296875,-10.341796875,0,0,1,0.971101999283,,,,,2015_Sep_06_1239,A,facesParametric,5,59.6153567352,
./stim/MorphM7_00_orig.jpg,117,,,,,0,117,117,117,,,,,,,,,,,,,,,,,,,18.779296875,-10.341796875,1,0,0,1.32256007195,,,,,2015_Sep_06_1239,A,facesParametric,5,59.6153567352,
./stim/MorphM6_02_orig.jpg,118,,,,,0,118,118,118,,,,,,,,,,,,,,,,,,,18.779296875,-10.341796875,1,0,0,1.82591891289,,,,,2015_Sep_06_1239,A,facesParametric,5,59.6153567352,
./stim/MorphF7_04_orig.jpg,119,,,,,0,119,119,119,,,,,,,,,,,,,,,,,,,18.779296875,-10.341796875,1,0,0,1.89222407341,,,,,2015_Sep_06_1239,A,facesParametric,5,59.6153567352,
./stim/MorphF4_00_orig.jpg,120,,,,,0,120,120,120,,,,,,,,,,,,,,,,,,,18.779296875,-10.341796875,1,0,0,0.651499986649,,,,,2015_Sep_06_1239,A,facesParametric,5,59.6153567352,
./stim/MorphF9_07_orig.jpg,121,,,,,0,121,121,121,,,,,,,,,,,,,,,,,,,18.779296875,-10.37109375,0,0,1,2.94847297668,,,,,2015_Sep_06_1239,A,facesParametric,5,59.6153567352,
./stim/MorphF4_05_orig.jpg,122,,,,,0,122,122,122,,,,,,,,,,,,,,,,,,,18.80859375,-10.400390625,1,0,0,2.14440798759,,,,,2015_Sep_06_1239,A,facesParametric,5,59.6153567352,
./stim/MorphF5_10_orig.jpg,123,,,,,0,123,123,123,,,,,,,,,,,,,,,,,,,18.80859375,-10.400390625,0,0,1,1.65580391884,,,,,2015_Sep_06_1239,A,facesParametric,5,59.6153567352,
./stim/MorphM9_06_orig.jpg,124,,,,,0,124,124,124,,,,,,,,,,,,,,,,,,,18.80859375,-10.3125,0,0,1,1.94266104698,,,,,2015_Sep_06_1239,A,facesParametric,5,59.6153567352,
./stim/MorphF1_00_orig.jpg,125,,,,,0,125,125,125,,,,,,,,,,,,,,,,,,,18.837890625,-10.283203125,1,0,0,4.99217200279,,,,,2015_Sep_06_1239,A,facesParametric,5,59.6153567352,
./stim/MorphF5_07_orig.jpg,126,,,,,0,126,126,126,,,,,,,,,,,,,,,,,,,18.837890625,-10.283203125,0,0,1,1.08818602562,,,,,2015_Sep_06_1239,A,facesParametric,5,59.6153567352,
./stim/MorphM6_06_orig.jpg,127,,,,,0,127,127,127,,,,,,,,,,,,,,,,,,,18.896484375,-10.25390625,0,0,1,2.6466858387,,,,,2015_Sep_06_1239,A,facesParametric,5,59.6153567352,
./stim/MorphF2_00_orig.jpg,128,,,,,0,128,128,128,,,,,,,,,,,,,,,,,,,18.896484375,-10.25390625,1,0,0,2.52890396118,,,,,2015_Sep_06_1239,A,facesParametric,5,59.6153567352,
./stim/MorphM6_03_orig.jpg,129,,,,,0,129,129,129,,,,,,,,,,,,,,,,,,,18.896484375,-10.25390625,1,0,0,5.09349489212,,,,,2015_Sep_06_1239,A,facesParametric,5,59.6153567352,
./stim/MorphM3_04_orig.jpg,130,,,,,0,130,130,130,,,,,,,,,,,,,,,,,,,18.92578125,-10.25390625,1,0,0,8.61359286308,,,,,2015_Sep_06_1239,A,facesParametric,5,59.6153567352,
./stim/MorphM8_01_orig.jpg,131,,,,,0,131,131,131,,,,,,,,,,,,,,,,,,,18.92578125,-10.25390625,1,0,0,2.12590503693,,,,,2015_Sep_06_1239,A,facesParametric,5,59.6153567352,
./stim/MorphM1_06_orig.jpg,132,,,,,0,132,132,132,,,,,,,,,,,,,,,,,,,18.955078125,-10.224609375,1,0,0,7.08688592911,,,,,2015_Sep_06_1239,A,facesParametric,5,59.6153567352,
./stim/MorphM2_09_orig.jpg,133,,,,,0,133,133,133,,,,,,,,,,,,,,,,,,,18.955078125,-10.224609375,0,0,1,1.62486600876,,,,,2015_Sep_06_1239,A,facesParametric,5,59.6153567352,
./stim/MorphF2_01_orig.jpg,134,,,,,0,134,134,134,,,,,,,,,,,,,,,,,,,18.955078125,-10.224609375,1,0,0,3.30033302307,,,,,2015_Sep_06_1239,A,facesParametric,5,59.6153567352,
./stim/MorphM5_01_orig.jpg,135,,,,,0,135,135,135,,,,,,,,,,,,,,,,,,,18.984375,-10.1953125,0,0,1,4.59086108208,,,,,2015_Sep_06_1239,A,facesParametric,5,59.6153567352,
./stim/MorphF8_03_orig.jpg,136,,,,,0,136,136,136,,,,,,,,,,,,,,,,,,,19.04296875,-7.822265625,0,0,1,10.5406827927,,,,,2015_Sep_06_1239,A,facesParametric,5,59.6153567352,
./stim/MorphF10_03_orig.jpg,137,,,,,0,137,137,137,,,,,,,,,,,,,,,,,,,19.951171875,-7.001953125,0,0,1,6.16633892059,,,,,2015_Sep_06_1239,A,facesParametric,5,59.6153567352,
./stim/MorphM7_09_orig.jpg,138,,,,,0,138,138,138,,,,,,,,,,,,,,,,,,,19.951171875,-7.03125,0,0,1,0.702351808548,,,,,2015_Sep_06_1239,A,facesParametric,5,59.6153567352,
./stim/MorphM9_00_orig.jpg,139,,,,,0,139,139,139,,,,,,,,,,,,,,,,,,,20.009765625,-7.001953125,1,0,0,2.04361796379,,,,,2015_Sep_06_1239,A,facesParametric,5,59.6153567352,
./stim/MorphM3_05_orig.jpg,140,,,,,0,140,140,140,,,,,,,,,,,,,,,,,,,20.625,-4.5703125,1,0,0,4.59088015556,,,,,2015_Sep_06_1239,A,facesParametric,5,59.6153567352,
./stim/MorphM1_07_orig.jpg,141,,,,,0,141,141,141,,,,,,,,,,,,,,,,,,,20.654296875,-4.541015625,0,0,1,2.07706212997,,,,,2015_Sep_06_1239,A,facesParametric,5,59.6153567352,
./stim/MorphM9_07_orig.jpg,142,,,,,0,142,142,142,,,,,,,,,,,,,,,,,,,20.712890625,-4.541015625,0,0,1,2.61279797554,,,,,2015_Sep_06_1239,A,facesParametric,5,59.6153567352,
./stim/MorphF3_03_orig.jpg,143,,,,,0,143,143,143,,,,,,,,,,,,,,,,,,,20.712890625,-4.541015625,1,0,0,2.79670000076,,,,,2015_Sep_06_1239,A,facesParametric,5,59.6153567352,
./stim/MorphF4_07_orig.jpg,144,,,,,0,144,144,144,,,,,,,,,,,,,,,,,,,20.712890625,-4.541015625,0,0,1,1.15529894829,,,,,2015_Sep_06_1239,A,facesParametric,5,59.6153567352,
./stim/MorphM2_10_orig.jpg,145,,,,,0,145,145,145,,,,,,,,,,,,,,,,,,,20.7421875,-4.51171875,0,0,1,0.669116020203,,,,,2015_Sep_06_1239,A,facesParametric,5,59.6153567352,
./stim/MorphF7_06_orig.jpg,146,,,,,0,146,146,146,,,,,,,,,,,,,,,,,,,20.7421875,-4.51171875,0,0,1,0.903824090958,,,,,2015_Sep_06_1239,A,facesParametric,5,59.6153567352,
./stim/MorphM8_02_orig.jpg,147,,,,,0,147,147,147,,,,,,,,,,,,,,,,,,,21.15234375,-4.599609375,0,0,1,1.59088397026,,,,,2015_Sep_06_1239,A,facesParametric,5,59.6153567352,
./stim/MorphF3_05_orig.jpg,148,,,,,0,148,148,148,,,,,,,,,,,,,,,,,,,21.26953125,-4.5703125,0,0,1,1.08784103394,,,,,2015_Sep_06_1239,A,facesParametric,5,59.6153567352,
./stim/MorphF6_04_orig.jpg,149,,,,,0,149,149,149,,,,,,,,,,,,,,,,,,,21.5625,-4.951171875,0,0,1,7.23823809624,,,,,2015_Sep_06_1239,A,facesParametric,5,59.6153567352,
./stim/MorphM4_10_orig.jpg,150,,,,,0,150,150,150,,,,,,,,,,,,,,,,,,,21.591796875,-4.98046875,0,0,1,1.07018303871,,,,,2015_Sep_06_1239,A,facesParametric,5,59.6153567352,
./stim/MorphF10_08_orig.jpg,151,,,,,0,151,151,151,,,,,,,,,,,,,,,,,,,21.796875,-5.361328125,0,0,1,4.40650987625,,,,,2015_Sep_06_1239,A,facesParametric,5,59.6153567352,
./stim/MorphF5_02_orig.jpg,152,,,,,0,152,152,152,,,,,,,,,,,,,,,,,,,21.796875,-5.361328125,1,0,0,1.72293996811,,,,,2015_Sep_06_1239,A,facesParametric,5,59.6153567352,
./stim/MorphF1_05_orig.jpg,153,,,,,0,153,153,153,,,,,,,,,,,,,,,,,,,21.796875,-5.361328125,1,0,0,2.59695887566,,,,,2015_Sep_06_1239,A,facesParametric,5,59.6153567352,
./stim/MorphF9_09_orig.jpg,154,,,,,0,154,154,154,,,,,,,,,,,,,,,,,,,21.796875,-5.361328125,0,0,1,1.11941289902,,,,,2015_Sep_06_1239,A,facesParametric,5,59.6153567352,
./stim/MorphF5_03_orig.jpg,155,,,,,0,155,155,155,,,,,,,,,,,,,,,,,,,21.796875,-5.361328125,1,0,0,0.752004146576,,,,,2015_Sep_06_1239,A,facesParametric,5,59.6153567352,
./stim/MorphF4_03_orig.jpg,156,,,,,0,156,156,156,,,,,,,,,,,,,,,,,,,21.826171875,-5.33203125,1,0,0,0.904019117355,,,,,2015_Sep_06_1239,A,facesParametric,5,59.6153567352,
./stim/MorphF5_01_orig.jpg,157,,,,,0,157,157,157,,,,,,,,,,,,,,,,,,,21.826171875,-5.33203125,1,0,0,0.736999034882,,,,,2015_Sep_06_1239,A,facesParametric,5,59.6153567352,
./stim/MorphM1_01_orig.jpg,158,,,,,0,158,158,158,,,,,,,,,,,,,,,,,,,21.826171875,-5.33203125,1,0,0,1.20441484451,,,,,2015_Sep_06_1239,A,facesParametric,5,59.6153567352,
./stim/MorphF9_02_orig.jpg,159,,,,,0,159,159,159,,,,,,,,,,,,,,,,,,,21.826171875,-5.33203125,0,0,1,6.71962499619,,,,,2015_Sep_06_1239,A,facesParametric,5,59.6153567352,
./stim/MorphF2_02_orig.jpg,160,,,,,0,160,160,160,,,,,,,,,,,,,,,,,,,21.767578125,-5.390625,1,0,0,7.59067583084,,,,,2015_Sep_06_1239,A,facesParametric,5,59.6153567352,
./stim/MorphM8_10_orig.jpg,161,,,,,0,161,161,161,,,,,,,,,,,,,,,,,,,21.767578125,-5.390625,0,0,1,1.9596221447,,,,,2015_Sep_06_1239,A,facesParametric,5,59.6153567352,
./stim/MorphM1_10_orig.jpg,162,,,,,0,162,162,162,,,,,,,,,,,,,,,,,,,21.767578125,-5.390625,0,0,1,1.4228579998,,,,,2015_Sep_06_1239,A,facesParametric,5,59.6153567352,
./stim/MorphF10_04_orig.jpg,163,,,,,0,163,163,163,,,,,,,,,,,,,,,,,,,21.73828125,-5.361328125,0,0,1,3.97073483467,,,,,2015_Sep_06_1239,A,facesParametric,5,59.6153567352,
./stim/MorphF3_00_orig.jpg,164,,,,,0,164,164,164,,,,,,,,,,,,,,,,,,,21.73828125,-5.361328125,1,0,0,3.8528881073,,,,,2015_Sep_06_1239,A,facesParametric,5,59.6153567352,
./stim/MorphM2_07_orig.jpg,165,,,,,0,165,165,165,,,,,,,,,,,,,,,,,,,20.947265625,-6.357421875,0,0,1,5.24411487579,,,,,2015_Sep_06_1239,A,facesParametric,5,59.6153567352,
./stim/MorphF7_05_orig.jpg,166,,,,,0,166,166,166,,,,,,,,,,,,,,,,,,,20.947265625,-6.357421875,0,0,1,0.702660083771,,,,,2015_Sep_06_1239,A,facesParametric,5,59.6153567352,
./stim/MorphF6_03_orig.jpg,167,,,,,0,167,167,167,,,,,,,,,,,,,,,,,,,20.947265625,-6.357421875,0,0,1,0.551856040955,,,,,2015_Sep_06_1239,A,facesParametric,5,59.6153567352,
./stim/MorphF3_02_orig.jpg,168,,,,,0,168,168,168,,,,,,,,,,,,,,,,,,,20.947265625,-6.357421875,1,0,0,1.15522480011,,,,,2015_Sep_06_1239,A,facesParametric,5,59.6153567352,
./stim/MorphF1_01_orig.jpg,169,,,,,0,169,169,169,,,,,,,,,,,,,,,,,,,20.947265625,-6.357421875,1,0,0,1.07139706612,,,,,2015_Sep_06_1239,A,facesParametric,5,59.6153567352,
./stim/MorphM1_04_orig.jpg,170,,,,,0,170,170,170,,,,,,,,,,,,,,,,,,,20.947265625,-6.357421875,1,0,0,1.43889403343,,,,,2015_Sep_06_1239,A,facesParametric,5,59.6153567352,
./stim/MorphF4_09_orig.jpg,171,,,,,0,171,171,171,,,,,,,,,,,,,,,,,,,20.947265625,-6.357421875,0,0,1,1.10496997833,,,,,2015_Sep_06_1239,A,facesParametric,5,59.6153567352,
./stim/MorphM6_00_orig.jpg,172,,,,,0,172,172,172,,,,,,,,,,,,,,,,,,,20.947265625,-6.357421875,1,0,0,1.18898296356,,,,,2015_Sep_06_1239,A,facesParametric,5,59.6153567352,
./stim/MorphM5_09_orig.jpg,173,,,,,0,173,173,173,,,,,,,,,,,,,,,,,,,20.947265625,-6.357421875,0,0,1,1.4734389782,,,,,2015_Sep_06_1239,A,facesParametric,5,59.6153567352,
./stim/MorphF5_06_orig.jpg,174,,,,,0,174,174,174,,,,,,,,,,,,,,,,,,,20.947265625,-6.357421875,1,0,0,2.89632892609,,,,,2015_Sep_06_1239,A,facesParametric,5,59.6153567352,
./stim/MorphF9_01_orig.jpg,175,,,,,0,175,175,175,,,,,,,,,,,,,,,,,,,21.09375,-6.005859375,1,0,0,7.59092998505,,,,,2015_Sep_06_1239,A,facesParametric,5,59.6153567352,
./stim/MorphM5_07_orig.jpg,176,,,,,0,176,176,176,,,,,,,,,,,,,,,,,,,21.123046875,-5.9765625,0,0,1,1.05421113968,,,,,2015_Sep_06_1239,A,facesParametric,5,59.6153567352,
./stim/MorphM2_01_orig.jpg,177,,,,,0,177,177,177,,,,,,,,,,,,,,,,,,,21.15234375,-6.005859375,1,0,0,5.54562497139,,,,,2015_Sep_06_1239,A,facesParametric,5,59.6153567352,
./stim/MorphM7_03_orig.jpg,178,,,,,0,178,178,178,,,,,,,,,,,,,,,,,,,21.123046875,-6.03515625,0,0,1,0.821044921875,,,,,2015_Sep_06_1239,A,facesParametric,5,59.6153567352,
./stim/MorphM9_09_orig.jpg,179,,,,,0,179,179,179,,,,,,,,,,,,,,,,,,,21.123046875,-6.03515625,0,0,1,1.77426505089,,,,,2015_Sep_06_1239,A,facesParametric,5,59.6153567352,
./stim/MorphF9_10_orig.jpg,180,,,,,0,180,180,180,,,,,,,,,,,,,,,,,,,21.123046875,-6.064453125,0,0,1,1.9932448864,,,,,2015_Sep_06_1239,A,facesParametric,5,59.6153567352,
./stim/MorphF8_10_orig.jpg,181,,,,,0,181,181,181,,,,,,,,,,,,,,,,,,,21.15234375,-6.09375,0,0,1,0.685961961746,,,,,2015_Sep_06_1239,A,facesParametric,5,59.6153567352,
./stim/MorphF10_10_orig.jpg,182,,,,,0,182,182,182,,,,,,,,,,,,,,,,,,,21.15234375,-6.09375,0,0,1,2.1437292099,,,,,2015_Sep_06_1239,A,facesParametric,5,59.6153567352,
./stim/MorphM3_09_orig.jpg,183,,,,,0,183,183,183,,,,,,,,,,,,,,,,,,,21.15234375,-6.09375,0,0,1,0.919975996017,,,,,2015_Sep_06_1239,A,facesParametric,5,59.6153567352,
./stim/MorphF10_05_orig.jpg,184,,,,,0,184,184,184,,,,,,,,,,,,,,,,,,,21.15234375,-6.09375,1,0,0,1.2388150692,,,,,2015_Sep_06_1239,A,facesParametric,5,59.6153567352,
./stim/MorphF6_00_orig.jpg,185,,,,,0,185,185,185,,,,,,,,,,,,,,,,,,,21.15234375,-6.09375,0,0,1,0.887151956558,,,,,2015_Sep_06_1239,A,facesParametric,5,59.6153567352,
./stim/MorphF8_08_orig.jpg,186,,,,,0,186,186,186,,,,,,,,,,,,,,,,,,,21.15234375,-6.09375,0,0,1,2.39534592628,,,,,2015_Sep_06_1239,A,facesParametric,5,59.6153567352,
./stim/MorphF7_10_orig.jpg,187,,,,,0,187,187,187,,,,,,,,,,,,,,,,,,,21.15234375,-6.09375,0,0,1,0.669502973557,,,,,2015_Sep_06_1239,A,facesParametric,5,59.6153567352,
./stim/MorphM9_10_orig.jpg,188,,,,,0,188,188,188,,,,,,,,,,,,,,,,,,,21.15234375,-6.09375,0,0,1,2.57929301262,,,,,2015_Sep_06_1239,A,facesParametric,5,59.6153567352,
./stim/MorphM10_05_orig.jpg,189,,,,,0,189,189,189,,,,,,,,,,,,,,,,,,,21.15234375,-6.09375,0,0,1,0.987498998642,,,,,2015_Sep_06_1239,A,facesParametric,5,59.6153567352,
./stim/MorphM8_03_orig.jpg,190,,,,,0,190,190,190,,,,,,,,,,,,,,,,,,,21.2109375,-6.181640625,0,0,1,7.74178004265,,,,,2015_Sep_06_1239,A,facesParametric,5,59.6153567352,
./stim/MorphF2_10_orig.jpg,191,,,,,0,191,191,191,,,,,,,,,,,,,,,,,,,21.2109375,-6.181640625,0,0,1,0.636110067368,,,,,2015_Sep_06_1239,A,facesParametric,5,59.6153567352,
./stim/MorphM1_02_orig.jpg,192,,,,,0,192,192,192,,,,,,,,,,,,,,,,,,,21.181640625,-6.240234375,1,0,0,1.65767097473,,,,,2015_Sep_06_1239,A,facesParametric,5,59.6153567352,
./stim/MorphM4_09_orig.jpg,193,,,,,0,193,193,193,,,,,,,,,,,,,,,,,,,21.181640625,-6.240234375,0,0,1,0.904023885727,,,,,2015_Sep_06_1239,A,facesParametric,5,59.6153567352,
./stim/MorphM8_07_orig.jpg,194,,,,,0,194,194,194,,,,,,,,,,,,,,,,,,,21.181640625,-6.240234375,0,0,1,1.79192209244,,,,,2015_Sep_06_1239,A,facesParametric,5,59.6153567352,
./stim/MorphM1_08_orig.jpg,195,,,,,0,195,195,195,,,,,,,,,,,,,,,,,,,21.181640625,-6.240234375,0,0,1,1.74107813835,,,,,2015_Sep_06_1239,A,facesParametric,5,59.6153567352,
./stim/MorphF4_08_orig.jpg,196,,,,,0,196,196,196,,,,,,,,,,,,,,,,,,,21.181640625,-6.240234375,0,0,1,1.27289700508,,,,,2015_Sep_06_1239,A,facesParametric,5,59.6153567352,
./stim/MorphM9_04_orig.jpg,197,,,,,0,197,197,197,,,,,,,,,,,,,,,,,,,21.15234375,-6.26953125,0,0,1,1.13774394989,,,,,2015_Sep_06_1239,A,facesParametric,5,59.6153567352,
./stim/MorphF1_09_orig.jpg,198,,,,,0,198,198,198,,,,,,,,,,,,,,,,,,,21.15234375,-6.26953125,0,0,1,1.77414417267,,,,,2015_Sep_06_1239,A,facesParametric,5,59.6153567352,
./stim/MorphM9_08_orig.jpg,199,,,,,0,199,199,199,,,,,,,,,,,,,,,,,,,21.15234375,-6.26953125,0,0,1,0.801115989685,,,,,2015_Sep_06_1239,A,facesParametric,5,59.6153567352,
./stim/MorphF10_01_orig.jpg,200,,,,,0,200,200,200,,,,,,,,,,,,,,,,,,,21.15234375,-6.26953125,1,0,0,1.38953995705,,,,,2015_Sep_06_1239,A,facesParametric,5,59.6153567352,
./stim/MorphM10_00_orig.jpg,201,,,,,0,201,201,201,,,,,,,,,,,,,,,,,,,21.15234375,-6.26953125,0,0,1,1.57326197624,,,,,2015_Sep_06_1239,A,facesParametric,5,59.6153567352,
./stim/MorphM2_00_orig.jpg,202,,,,,0,202,202,202,,,,,,,,,,,,,,,,,,,21.15234375,-6.26953125,1,0,0,1.57380819321,,,,,2015_Sep_06_1239,A,facesParametric,5,59.6153567352,
./stim/MorphM9_01_orig.jpg,203,,,,,0,203,203,203,,,,,,,,,,,,,,,,,,,21.15234375,-6.26953125,1,0,0,6.63521409035,,,,,2015_Sep_06_1239,A,facesParametric,5,59.6153567352,
./stim/MorphF7_09_orig.jpg,204,,,,,0,204,204,204,,,,,,,,,,,,,,,,,,,21.15234375,-6.240234375,0,0,1,0.71893286705,,,,,2015_Sep_06_1239,A,facesParametric,5,59.6153567352,
./stim/MorphF9_00_orig.jpg,205,,,,,0,205,205,205,,,,,,,,,,,,,,,,,,,21.328125,-5.888671875,1,0,0,1.95934700966,,,,,2015_Sep_06_1239,A,facesParametric,5,59.6153567352,
./stim/MorphM2_02_orig.jpg,206,,,,,0,206,206,206,,,,,,,,,,,,,,,,,,,21.240234375,-5.91796875,1,0,0,5.12732386589,,,,,2015_Sep_06_1239,A,facesParametric,5,59.6153567352,
./stim/MorphF8_05_orig.jpg,207,,,,,0,207,207,207,,,,,,,,,,,,,,,,,,,21.240234375,-5.91796875,0,0,1,2.61324191093,,,,,2015_Sep_06_1239,A,facesParametric,5,59.6153567352,
./stim/MorphF3_09_orig.jpg,208,,,,,0,208,208,208,,,,,,,,,,,,,,,,,,,21.240234375,-5.91796875,0,0,1,1.32080602646,,,,,2015_Sep_06_1239,A,facesParametric,5,59.6153567352,
./stim/MorphM5_10_orig.jpg,209,,,,,0,209,209,209,,,,,,,,,,,,,,,,,,,21.240234375,-5.91796875,0,0,1,0.834819078445,,,,,2015_Sep_06_1239,A,facesParametric,5,59.6153567352,
./stim/MorphM8_08_orig.jpg,210,,,,,0,210,210,210,,,,,,,,,,,,,,,,,,,21.240234375,-5.91796875,0,0,1,0.685965061188,,,,,2015_Sep_06_1239,A,facesParametric,5,59.6153567352,
./stim/MorphM3_07_orig.jpg,211,,,,,0,211,211,211,,,,,,,,,,,,,,,,,,,21.240234375,-5.91796875,0,0,1,0.88710308075,,,,,2015_Sep_06_1239,A,facesParametric,5,59.6153567352,
./stim/MorphM5_06_orig.jpg,212,,,,,0,212,212,212,,,,,,,,,,,,,,,,,,,21.240234375,-5.91796875,0,0,1,0.937099933624,,,,,2015_Sep_06_1239,A,facesParametric,5,59.6153567352,
./stim/MorphF5_09_orig.jpg,213,,,,,0,213,213,213,,,,,,,,,,,,,,,,,,,21.240234375,-5.91796875,0,0,1,2.91321611404,,,,,2015_Sep_06_1239,A,facesParametric,5,59.6153567352,
./stim/MorphF8_06_orig.jpg,214,,,,,0,214,214,214,,,,,,,,,,,,,,,,,,,21.240234375,-5.91796875,0,0,1,2.14214587212,,,,,2015_Sep_06_1239,A,facesParametric,5,59.6153567352,
./stim/MorphF5_04_orig.jpg,215,,,,,0,215,215,215,,,,,,,,,,,,,,,,,,,21.240234375,-5.91796875,1,0,0,1.97648000717,,,,,2015_Sep_06_1239,A,facesParametric,5,59.6153567352,
./stim/MorphM2_04_orig.jpg,216,,,,,0,216,216,216,,,,,,,,,,,,,,,,,,,21.181640625,-5.947265625,1,0,0,2.34490704536,,,,,2015_Sep_06_1239,A,facesParametric,5,59.6153567352,
./stim/MorphF2_05_orig.jpg,217,,,,,0,217,217,217,,,,,,,,,,,,,,,,,,,21.181640625,-5.947265625,0,0,1,1.40663003922,,,,,2015_Sep_06_1239,A,facesParametric,5,59.6153567352,
./stim/MorphM7_01_orig.jpg,218,,,,,0,218,218,218,,,,,,,,,,,,,,,,,,,21.15234375,-5.9765625,1,0,0,1.8591799736,,,,,2015_Sep_06_1239,A,facesParametric,5,59.6153567352,
./stim/MorphF10_09_orig.jpg,219,,,,,0,219,219,219,,,,,,,,,,,,,,,,,,,21.15234375,-5.9765625,0,0,1,1.38963603973,,,,,2015_Sep_06_1239,A,facesParametric,5,59.6153567352,
,,,,,,,,,,,,,,,,,,,,,,,,,,,,,,,,,,return,4.60891819,,,2015_Sep_06_1239,A,facesParametric,5,59.6153567352,
./stim/MorphM6_10_orig.jpg,0,,,,,,,,,0,0,0,0,,,,,,,,,,,,,,,22.060546875,-9.462890625,0,0,1,3.46923995018,,,,,2015_Sep_06_1239,A,facesParametric,5,59.6153567352,
./stim/MorphF9_04_orig.jpg,1,,,,,,,,,0,1,1,1,,,,,,,,,,,,,,,22.236328125,-9.43359375,1,0,0,1.00023984909,,,,,2015_Sep_06_1239,A,facesParametric,5,59.6153567352,
./stim/MorphM3_03_orig.jpg,2,,,,,,,,,0,2,2,2,,,,,,,,,,,,,,,22.236328125,-9.43359375,1,0,0,1.64164614677,,,,,2015_Sep_06_1239,A,facesParametric,5,59.6153567352,
./stim/MorphM1_00_orig.jpg,3,,,,,,,,,0,3,3,3,,,,,,,,,,,,,,,22.236328125,-9.43359375,1,0,0,0.970069169998,,,,,2015_Sep_06_1239,A,facesParametric,5,59.6153567352,
./stim/MorphM6_09_orig.jpg,4,,,,,,,,,0,4,4,4,,,,,,,,,,,,,,,22.236328125,-9.43359375,0,0,1,0.868948936462,,,,,2015_Sep_06_1239,A,facesParametric,5,59.6153567352,
./stim/MorphM10_02_orig.jpg,5,,,,,,,,,0,5,5,5,,,,,,,,,,,,,,,22.236328125,-9.43359375,0,0,1,0.969571828842,,,,,2015_Sep_06_1239,A,facesParametric,5,59.6153567352,
./stim/MorphM3_06_orig.jpg,6,,,,,,,,,0,6,6,6,,,,,,,,,,,,,,,22.265625,-9.43359375,0,0,1,2.78069996834,,,,,2015_Sep_06_1239,A,facesParametric,5,59.6153567352,
./stim/MorphM7_08_orig.jpg,7,,,,,,,,,0,7,7,7,,,,,,,,,,,,,,,22.265625,-9.43359375,0,0,1,0.652397871017,,,,,2015_Sep_06_1239,A,facesParametric,5,59.6153567352,
./stim/MorphM6_04_orig.jpg,8,,,,,,,,,0,8,8,8,,,,,,,,,,,,,,,22.265625,-9.43359375,1,0,0,1.1216840744,,,,,2015_Sep_06_1239,A,facesParametric,5,59.6153567352,
./stim/MorphM2_05_orig.jpg,9,,,,,,,,,0,9,9,9,,,,,,,,,,,,,,,22.265625,-9.43359375,1,0,0,1.05436015129,,,,,2015_Sep_06_1239,A,facesParametric,5,59.6153567352,
./stim/MorphM3_01_orig.jpg,10,,,,,,,,,0,10,10,10,,,,,,,,,,,,,,,22.265625,-9.43359375,1,0,0,1.30629301071,,,,,2015_Sep_06_1239,A,facesParametric,5,59.6153567352,
./stim/MorphF1_03_orig.jpg,11,,,,,,,,,0,11,11,11,,,,,,,,,,,,,,,22.265625,-9.43359375,1,0,0,1.52391004562,,,,,2015_Sep_06_1239,A,facesParametric,5,59.6153567352,
./stim/MorphF8_09_orig.jpg,12,,,,,,,,,0,12,12,12,,,,,,,,,,,,,,,22.265625,-9.43359375,0,0,1,0.63551902771,,,,,2015_Sep_06_1239,A,facesParametric,5,59.6153567352,
./stim/MorphF3_01_orig.jpg,13,,,,,,,,,0,13,13,13,,,,,,,,,,,,,,,22.265625,-9.43359375,1,0,0,1.59007811546,,,,,2015_Sep_06_1239,A,facesParametric,5,59.6153567352,
./stim/MorphF7_03_orig.jpg,14,,,,,,,,,0,14,14,14,,,,,,,,,,,,,,,22.265625,-9.43359375,0,0,1,1.45662403107,,,,,2015_Sep_06_1239,A,facesParametric,5,59.6153567352,
./stim/MorphM1_05_orig.jpg,15,,,,,,,,,0,15,15,15,,,,,,,,,,,,,,,22.705078125,-8.583984375,1,0,0,5.51283693314,,,,,2015_Sep_06_1239,A,facesParametric,5,59.6153567352,
./stim/MorphM5_08_orig.jpg,16,,,,,,,,,0,16,16,16,,,,,,,,,,,,,,,22.734375,-8.61328125,0,0,1,0.853241920471,,,,,2015_Sep_06_1239,A,facesParametric,5,59.6153567352,
./stim/MorphF7_01_orig.jpg,17,,,,,,,,,0,17,17,17,,,,,,,,,,,,,,,22.763671875,-8.642578125,1,0,0,1.97611308098,,,,,2015_Sep_06_1239,A,facesParametric,5,59.6153567352,
./stim/MorphF1_10_orig.jpg,18,,,,,,,,,0,18,18,18,,,,,,,,,,,,,,,22.763671875,-8.642578125,0,0,1,1.05386900902,,,,,2015_Sep_06_1239,A,facesParametric,5,59.6153567352,
./stim/MorphF9_06_orig.jpg,19,,,,,,,,,0,19,19,19,,,,,,,,,,,,,,,23.14453125,-8.994140625,0,0,1,10.556566,,,,,2015_Sep_06_1239,A,facesParametric,5,59.6153567352,
./stim/MorphM4_00_orig.jpg,20,,,,,,,,,0,20,20,20,,,,,,,,,,,,,,,23.14453125,-8.994140625,1,0,0,1.07187390327,,,,,2015_Sep_06_1239,A,facesParametric,5,59.6153567352,
./stim/MorphM10_08_orig.jpg,21,,,,,,,,,0,21,21,21,,,,,,,,,,,,,,,23.115234375,-9.0234375,0,0,1,4.92365503311,,,,,2015_Sep_06_1239,A,facesParametric,5,59.6153567352,
./stim/MorphF8_07_orig.jpg,22,,,,,,,,,0,22,22,22,,,,,,,,,,,,,,,23.115234375,-9.0234375,0,0,1,3.45160603523,,,,,2015_Sep_06_1239,A,facesParametric,5,59.6153567352,
./stim/MorphF6_02_orig.jpg,23,,,,,,,,,0,23,23,23,,,,,,,,,,,,,,,22.998046875,-9.228515625,1,0,0,0.769227027893,,,,,2015_Sep_06_1239,A,facesParametric,5,59.6153567352,
./stim/MorphM2_08_orig.jpg,24,,,,,,,,,0,24,24,24,,,,,,,,,,,,,,,23.02734375,-8.701171875,0,0,1,5.39552307129,,,,,2015_Sep_06_1239,A,facesParametric,5,59.6153567352,
./stim/MorphF9_05_orig.jpg,25,,,,,,,,,0,25,25,25,,,,,,,,,,,,,,,23.02734375,-8.701171875,0,0,1,2.89831399918,,,,,2015_Sep_06_1239,A,facesParametric,5,59.6153567352,
./stim/MorphF1_08_orig.jpg,26,,,,,,,,,0,26,26,26,,,,,,,,,,,,,,,23.408203125,-8.173828125,0,0,1,2.84744596481,,,,,2015_Sep_06_1239,A,facesParametric,5,59.6153567352,
./stim/MorphF6_09_orig.jpg,27,,,,,,,,,0,27,27,27,,,,,,,,,,,,,,,23.408203125,-8.173828125,0,0,1,2.66382312775,,,,,2015_Sep_06_1239,A,facesParametric,5,59.6153567352,
./stim/MorphF2_09_orig.jpg,28,,,,,,,,,0,28,28,28,,,,,,,,,,,,,,,23.408203125,-8.173828125,0,0,1,0.635833024979,,,,,2015_Sep_06_1239,A,facesParametric,5,59.6153567352,
./stim/MorphF1_04_orig.jpg,29,,,,,,,,,0,29,29,29,,,,,,,,,,,,,,,23.408203125,-8.173828125,1,0,0,1.70586895943,,,,,2015_Sep_06_1239,A,facesParametric,5,59.6153567352,
./stim/MorphM4_06_orig.jpg,30,,,,,,,,,0,30,30,30,,,,,,,,,,,,,,,23.408203125,-8.173828125,0,0,1,0.70284986496,,,,,2015_Sep_06_1239,A,facesParametric,5,59.6153567352,
./stim/MorphM5_04_orig.jpg,31,,,,,,,,,0,31,31,31,,,,,,,,,,,,,,,23.408203125,-8.14453125,0,0,1,0.786861181259,,,,,2015_Sep_06_1239,A,facesParametric,5,59.6153567352,
./stim/MorphF10_02_orig.jpg,32,,,,,,,,,0,32,32,32,,,,,,,,,,,,,,,23.408203125,-8.14453125,1,0,0,1.42300200462,,,,,2015_Sep_06_1239,A,facesParametric,5,59.6153567352,
./stim/MorphF6_05_orig.jpg,33,,,,,,,,,0,33,33,33,,,,,,,,,,,,,,,23.408203125,-8.14453125,0,0,1,6.50116109848,,,,,2015_Sep_06_1239,A,facesParametric,5,59.6153567352,
./stim/MorphF8_01_orig.jpg,34,,,,,,,,,0,34,34,34,,,,,,,,,,,,,,,23.408203125,-8.14453125,0,0,1,0.987496137619,,,,,2015_Sep_06_1239,A,facesParametric,5,59.6153567352,
./stim/MorphM2_06_orig.jpg,35,,,,,,,,,0,35,35,35,,,,,,,,,,,,,,,23.408203125,-8.14453125,1,0,0,2.22797083855,,,,,2015_Sep_06_1239,A,facesParametric,5,59.6153567352,
./stim/MorphM9_02_orig.jpg,36,,,,,,,,,0,36,36,36,,,,,,,,,,,,,,,23.408203125,-8.14453125,1,0,0,3.92042803764,,,,,2015_Sep_06_1239,A,facesParametric,5,59.6153567352,
./stim/MorphM5_03_orig.jpg,37,,,,,,,,,0,37,37,37,,,,,,,,,,,,,,,23.408203125,-8.173828125,0,0,1,1.68976593018,,,,,2015_Sep_06_1239,A,facesParametric,5,59.6153567352,
./stim/MorphM4_01_orig.jpg,38,,,,,,,,,0,38,38,38,,,,,,,,,,,,,,,23.408203125,-8.173828125,1,0,0,3.28328299522,,,,,2015_Sep_06_1239,A,facesParametric,5,59.6153567352,
./stim/MorphM6_05_orig.jpg,39,,,,,,,,,0,39,39,39,,,,,,,,,,,,,,,23.37890625,-8.26171875,0,0,1,5.06003284454,,,,,2015_Sep_06_1239,A,facesParametric,5,59.6153567352,
./stim/MorphF4_02_orig.jpg,40,,,,,,,,,0,40,40,40,,,,,,,,,,,,,,,23.37890625,-8.26171875,1,0,0,1.18877291679,,,,,2015_Sep_06_1239,A,facesParametric,5,59.6153567352,
./stim/MorphM9_03_orig.jpg,41,,,,,,,,,0,41,41,41,,,,,,,,,,,,,,,23.408203125,-8.232421875,1,0,0,0.97084403038,,,,,2015_Sep_06_1239,A,facesParametric,5,59.6153567352,
./stim/MorphF4_06_orig.jpg,42,,,,,,,,,0,42,42,42,,,,,,,,,,,,,,,23.408203125,-8.232421875,1,0,0,0.836526155472,,,,,2015_Sep_06_1239,A,facesParametric,5,59.6153567352,
./stim/MorphF5_00_orig.jpg,43,,,,,,,,,0,43,43,43,,,,,,,,,,,,,,,23.408203125,-8.232421875,1,0,0,0.819555044174,,,,,2015_Sep_06_1239,A,facesParametric,5,59.6153567352,
./stim/MorphM7_04_orig.jpg,44,,,,,,,,,0,44,44,44,,,,,,,,,,,,,,,23.408203125,-8.232421875,1,0,0,1.55737113953,,,,,2015_Sep_06_1239,A,facesParametric,5,59.6153567352,
./stim/MorphF1_07_orig.jpg,45,,,,,,,,,0,45,45,45,,,,,,,,,,,,,,,23.408203125,-8.232421875,0,0,1,3.55102396011,,,,,2015_Sep_06_1239,A,facesParametric,5,59.6153567352,
./stim/MorphF7_02_orig.jpg,46,,,,,,,,,0,46,46,46,,,,,,,,,,,,,,,23.408203125,-8.232421875,1,0,0,3.92145204544,,,,,2015_Sep_06_1239,A,facesParametric,5,59.6153567352,
./stim/MorphF3_08_orig.jpg,47,,,,,,,,,0,47,47,47,,,,,,,,,,,,,,,23.408203125,-8.232421875,0,0,1,0.751178979874,,,,,2015_Sep_06_1239,A,facesParametric,5,59.6153567352,
./stim/MorphM4_03_orig.jpg,48,,,,,,,,,0,48,48,48,,,,,,,,,,,,,,,23.408203125,-8.232421875,0,0,1,0.735045909882,,,,,2015_Sep_06_1239,A,facesParametric,5,59.6153567352,
./stim/MorphM7_05_orig.jpg,49,,,,,,,,,0,49,49,49,,,,,,,,,,,,,,,23.408203125,-8.232421875,0,0,1,0.886629104614,,,,,2015_Sep_06_1239,A,facesParametric,5,59.6153567352,
./stim/MorphM4_08_orig.jpg,50,,,,,,,,,0,50,50,50,,,,,,,,,,,,,,,23.408203125,-8.232421875,0,0,1,0.836761951447,,,,,2015_Sep_06_1239,A,facesParametric,5,59.6153567352,
./stim/MorphM2_03_orig.jpg,51,,,,,,,,,0,51,51,51,,,,,,,,,,,,,,,23.408203125,-8.232421875,1,0,0,2.99670100212,,,,,2015_Sep_06_1239,A,facesParametric,5,59.6153567352,
./stim/MorphF3_10_orig.jpg,52,,,,,,,,,0,52,52,52,,,,,,,,,,,,,,,23.408203125,-8.26171875,0,0,1,1.30458498001,,,,,2015_Sep_06_1239,A,facesParametric,5,59.6153567352,
./stim/MorphF6_08_orig.jpg,53,,,,,,,,,0,53,53,53,,,,,,,,,,,,,,,23.408203125,-8.26171875,0,0,1,1.07040214539,,,,,2015_Sep_06_1239,A,facesParametric,5,59.6153567352,
./stim/MorphM3_10_orig.jpg,54,,,,,,,,,0,54,54,54,,,,,,,,,,,,,,,23.408203125,-8.26171875,0,0,1,1.27094507217,,,,,2015_Sep_06_1239,A,facesParametric,5,59.6153567352,
./stim/MorphM10_03_orig.jpg,55,,,,,,,,,0,55,55,55,,,,,,,,,,,,,,,23.408203125,-8.291015625,0,0,1,1.54078793526,,,,,2015_Sep_06_1239,A,facesParametric,5,59.6153567352,
./stim/MorphF2_03_orig.jpg,56,,,,,,,,,0,56,56,56,,,,,,,,,,,,,,,23.408203125,-8.291015625,0,0,1,2.98063182831,,,,,2015_Sep_06_1239,A,facesParametric,5,59.6153567352,
./stim/MorphM7_10_orig.jpg,57,,,,,,,,,0,57,57,57,,,,,,,,,,,,,,,23.408203125,-8.349609375,0,0,1,5.63031697273,,,,,2015_Sep_06_1239,A,facesParametric,5,59.6153567352,
./stim/MorphF8_00_orig.jpg,58,,,,,,,,,0,58,58,58,,,,,,,,,,,,,,,23.37890625,-8.349609375,1,0,0,1.44030714035,,,,,2015_Sep_06_1239,A,facesParametric,5,59.6153567352,
./stim/MorphF7_07_orig.jpg,59,,,,,,,,,0,59,59,59,,,,,,,,,,,,,,,23.37890625,-8.349609375,0,0,1,1.20438313484,,,,,2015_Sep_06_1239,A,facesParametric,5,59.6153567352,
./stim/MorphM8_09_orig.jpg,60,,,,,,,,,0,60,60,60,,,,,,,,,,,,,,,23.37890625,-8.349609375,0,0,1,2.91572809219,,,,,2015_Sep_06_1239,A,facesParametric,5,59.6153567352,
./stim/MorphF5_08_orig.jpg,61,,,,,,,,,0,61,61,61,,,,,,,,,,,,,,,23.37890625,-8.349609375,0,0,1,2.61272788048,,,,,2015_Sep_06_1239,A,facesParametric,5,59.6153567352,
./stim/MorphM8_00_orig.jpg,62,,,,,,,,,0,62,62,62,,,,,,,,,,,,,,,23.349609375,-8.349609375,1,0,0,10.4901189804,,,,,2015_Sep_06_1239,A,facesParametric,5,59.6153567352,
./stim/MorphF4_04_orig.jpg,63,,,,,,,,,0,63,63,63,,,,,,,,,,,,,,,23.37890625,-8.5546875,1,0,0,7.50570821762,,,,,2015_Sep_06_1239,A,facesParametric,5,59.6153567352,
./stim/MorphM8_05_orig.jpg,64,,,,,,,,,0,64,64,64,,,,,,,,,,,,,,,23.37890625,-8.5546875,0,0,1,1.7247710228,,,,,2015_Sep_06_1239,A,facesParametric,5,59.6153567352,
./stim/MorphM1_09_orig.jpg,65,,,,,,,,,0,65,65,65,,,,,,,,,,,,,,,23.408203125,-8.525390625,0,0,1,0.668962955475,,,,,2015_Sep_06_1239,A,facesParametric,5,59.6153567352,
./stim/MorphF8_04_orig.jpg,66,,,,,,,,,0,66,66,66,,,,,,,,,,,,,,,23.408203125,-8.525390625,1,0,0,1.60786700249,,,,,2015_Sep_06_1239,A,facesParametric,5,59.6153567352,
./stim/MorphM10_07_orig.jpg,67,,,,,,,,,0,67,67,67,,,,,,,,,,,,,,,23.408203125,-8.525390625,0,0,1,1.8924100399,,,,,2015_Sep_06_1239,A,facesParametric,5,59.6153567352,
./stim/MorphM5_05_orig.jpg,68,,,,,,,,,0,68,68,68,,,,,,,,,,,,,,,23.408203125,-8.525390625,0,0,1,0.869092941284,,,,,2015_Sep_06_1239,A,facesParametric,5,59.6153567352,
./stim/MorphM3_02_orig.jpg,69,,,,,,,,,0,69,69,69,,,,,,,,,,,,,,,23.408203125,-8.525390625,1,0,0,2.72899198532,,,,,2015_Sep_06_1239,A,facesParametric,5,59.6153567352,
./stim/MorphF2_08_orig.jpg,70,,,,,,,,,0,70,70,70,,,,,,,,,,,,,,,23.37890625,-8.525390625,0,0,1,2.31088399887,,,,,2015_Sep_06_1239,A,facesParametric,5,59.6153567352,
./stim/MorphM5_00_orig.jpg,71,,,,,,,,,0,71,71,71,,,,,,,,,,,,,,,23.37890625,-8.525390625,0,0,1,2.97988605499,,,,,2015_Sep_06_1239,A,facesParametric,5,59.6153567352,
./stim/MorphF6_07_orig.jpg,72,,,,,,,,,0,72,72,72,,,,,,,,,,,,,,,23.37890625,-8.525390625,0,0,1,4.87523007393,,,,,2015_Sep_06_1239,A,facesParametric,5,59.6153567352,
./stim/MorphM7_07_orig.jpg,73,,,,,,,,,0,73,73,73,,,,,,,,,,,,,,,23.349609375,-8.5546875,0,0,1,0.903775930405,,,,,2015_Sep_06_1239,A,facesParametric,5,59.6153567352,
./stim/MorphM4_05_orig.jpg,74,,,,,,,,,0,74,74,74,,,,,,,,,,,,,,,23.349609375,-8.5546875,0,0,1,0.819782972336,,,,,2015_Sep_06_1239,A,facesParametric,5,59.6153567352,
./stim/MorphF1_02_orig.jpg,75,,,,,,,,,0,75,75,75,,,,,,,,,,,,,,,23.349609375,-8.5546875,1,0,0,3.85356807709,,,,,2015_Sep_06_1239,A,facesParametric,5,59.6153567352,
./stim/MorphM1_03_orig.jpg,76,,,,,,,,,0,76,76,76,,,,,,,,,,,,,,,23.349609375,-8.5546875,1,0,0,6.06544709206,,,,,2015_Sep_06_1239,A,facesParametric,5,59.6153567352,
./stim/MorphM6_01_orig.jpg,77,,,,,,,,,0,77,77,77,,,,,,,,,,,,,,,23.349609375,-8.5546875,1,0,0,0.819390058517,,,,,2015_Sep_06_1239,A,facesParametric,5,59.6153567352,
./stim/MorphF5_05_orig.jpg,78,,,,,,,,,0,78,78,78,,,,,,,,,,,,,,,23.3203125,-8.525390625,1,0,0,0.685003042221,,,,,2015_Sep_06_1239,A,facesParametric,5,59.6153567352,
./stim/MorphF4_10_orig.jpg,79,,,,,,,,,0,79,79,79,,,,,,,,,,,,,,,23.3203125,-8.525390625,0,0,1,1.03738617897,,,,,2015_Sep_06_1239,A,facesParametric,5,59.6153567352,
./stim/MorphF9_03_orig.jpg,80,,,,,,,,,0,80,80,80,,,,,,,,,,,,,,,23.3203125,-8.525390625,1,0,0,2.66201806068,,,,,2015_Sep_06_1239,A,facesParametric,5,59.6153567352,
./stim/MorphM8_04_orig.jpg,81,,,,,,,,,0,81,81,81,,,,,,,,,,,,,,,23.3203125,-8.525390625,0,0,1,5.78085613251,,,,,2015_Sep_06_1239,A,facesParametric,5,59.6153567352,
./stim/MorphF2_04_orig.jpg,82,,,,,,,,,0,82,82,82,,,,,,,,,,,,,,,23.3203125,-8.525390625,0,0,1,1.23902010918,,,,,2015_Sep_06_1239,A,facesParametric,5,59.6153567352,
./stim/MorphM10_01_orig.jpg,83,,,,,,,,,0,83,83,83,,,,,,,,,,,,,,,23.3203125,-8.525390625,1,0,0,4.59073996544,,,,,2015_Sep_06_1239,A,facesParametric,5,59.6153567352,
./stim/MorphF6_10_orig.jpg,84,,,,,,,,,0,84,84,84,,,,,,,,,,,,,,,23.3203125,-8.525390625,0,0,1,0.752335071564,,,,,2015_Sep_06_1239,A,facesParametric,5,59.6153567352,
./stim/MorphF10_00_orig.jpg,85,,,,,,,,,0,85,85,85,,,,,,,,,,,,,,,23.3203125,-8.525390625,0,0,1,1.35620093346,,,,,2015_Sep_06_1239,A,facesParametric,5,59.6153567352,
./stim/MorphM10_04_orig.jpg,86,,,,,,,,,0,86,86,86,,,,,,,,,,,,,,,23.3203125,-8.466796875,0,0,1,2.54634094238,,,,,2015_Sep_06_1239,A,facesParametric,5,59.6153567352,
./stim/MorphM4_07_orig.jpg,87,,,,,,,,,0,87,87,87,,,,,,,,,,,,,,,23.349609375,-8.525390625,0,0,1,0.635413885117,,,,,2015_Sep_06_1239,A,facesParametric,5,59.6153567352,
./stim/MorphF10_07_orig.jpg,88,,,,,,,,,0,88,88,88,,,,,,,,,,,,,,,23.37890625,-8.49609375,0,0,1,0.701717853546,,,,,2015_Sep_06_1239,A,facesParametric,5,59.6153567352,
./stim/MorphF8_02_orig.jpg,89,,,,,,,,,0,89,89,89,,,,,,,,,,,,,,,23.37890625,-8.49609375,1,0,0,2.59556889534,,,,,2015_Sep_06_1239,A,facesParametric,5,59.6153567352,
./stim/MorphM10_06_orig.jpg,90,,,,,,,,,0,90,90,90,,,,,,,,,,,,,,,23.37890625,-8.49609375,0,0,1,0.920679092407,,,,,2015_Sep_06_1239,A,facesParametric,5,59.6153567352,
./stim/MorphF6_06_orig.jpg,91,,,,,,,,,0,91,91,91,,,,,,,,,,,,,,,23.37890625,-8.49609375,0,0,1,2.98200106621,,,,,2015_Sep_06_1239,A,facesParametric,5,59.6153567352,
./stim/MorphF2_07_orig.jpg,92,,,,,,,,,0,92,92,92,,,,,,,,,,,,,,,23.37890625,-8.49609375,0,0,1,0.753256082535,,,,,2015_Sep_06_1239,A,facesParametric,5,59.6153567352,
./stim/MorphF3_04_orig.jpg,93,,,,,,,,,0,93,93,93,,,,,,,,,,,,,,,23.37890625,-8.49609375,0,0,1,1.63892483711,,,,,2015_Sep_06_1239,A,facesParametric,5,59.6153567352,
./stim/MorphM10_10_orig.jpg,94,,,,,,,,,0,94,94,94,,,,,,,,,,,,,,,23.37890625,-8.49609375,0,0,1,1.07125520706,,,,,2015_Sep_06_1239,A,facesParametric,5,59.6153567352,
./stim/MorphF3_06_orig.jpg,95,,,,,,,,,0,95,95,95,,,,,,,,,,,,,,,23.408203125,-8.291015625,0,0,1,3.4852039814,,,,,2015_Sep_06_1239,A,facesParametric,5,59.6153567352,
./stim/MorphM8_06_orig.jpg,96,,,,,,,,,0,96,96,96,,,,,,,,,,,,,,,23.408203125,-8.291015625,0,0,1,1.4892680645,,,,,2015_Sep_06_1239,A,facesParametric,5,59.6153567352,
./stim/MorphM4_02_orig.jpg,97,,,,,,,,,0,97,97,97,,,,,,,,,,,,,,,23.408203125,-8.26171875,1,0,0,1.80918097496,,,,,2015_Sep_06_1239,A,facesParametric,5,59.6153567352,
./stim/MorphF9_08_orig.jpg,98,,,,,,,,,0,98,98,98,,,,,,,,,,,,,,,23.37890625,-8.232421875,0,0,1,3.60192394257,,,,,2015_Sep_06_1239,A,facesParametric,5,59.6153567352,
./stim/MorphF3_07_orig.jpg,99,,,,,,,,,0,99,99,99,,,,,,,,,,,,,,,23.37890625,-8.232421875,0,0,1,1.97623682022,,,,,2015_Sep_06_1239,A,facesParametric,5,59.6153567352,
./stim/MorphM10_09_orig.jpg,100,,,,,,,,,0,100,100,100,,,,,,,,,,,,,,,23.37890625,-8.232421875,0,0,1,0.734869003296,,,,,2015_Sep_06_1239,A,facesParametric,5,59.6153567352,
./stim/MorphM4_04_orig.jpg,101,,,,,,,,,0,101,101,101,,,,,,,,,,,,,,,23.37890625,-8.232421875,1,0,0,0.903967142105,,,,,2015_Sep_06_1239,A,facesParametric,5,59.6153567352,
./stim/MorphM6_07_orig.jpg,102,,,,,,,,,0,102,102,102,,,,,,,,,,,,,,,23.232421875,-7.79296875,0,0,1,7.15508103371,,,,,2015_Sep_06_1239,A,facesParametric,5,59.6153567352,
./stim/MorphF4_01_orig.jpg,103,,,,,,,,,0,103,103,103,,,,,,,,,,,,,,,23.349609375,-7.8515625,1,0,0,3.25005602837,,,,,2015_Sep_06_1239,A,facesParametric,5,59.6153567352,
./stim/MorphF10_06_orig.jpg,104,,,,,,,,,0,104,104,104,,,,,,,,,,,,,,,23.408203125,-7.96875,0,0,1,6.61909985542,,,,,2015_Sep_06_1239,A,facesParametric,5,59.6153567352,
./stim/MorphM3_00_orig.jpg,105,,,,,,,,,0,105,105,105,,,,,,,,,,,,,,,23.408203125,-7.96875,1,0,0,1.42350101471,,,,,2015_Sep_06_1239,A,facesParametric,5,59.6153567352,
./stim/MorphF7_08_orig.jpg,106,,,,,,,,,0,106,106,106,,,,,,,,,,,,,,,23.408203125,-7.96875,0,0,1,2.02664995193,,,,,2015_Sep_06_1239,A,facesParametric,5,59.6153567352,
./stim/MorphF1_06_orig.jpg,107,,,,,,,,,0,107,107,107,,,,,,,,,,,,,,,23.408203125,-7.96875,0,0,1,5.86409687996,,,,,2015_Sep_06_1239,A,facesParametric,5,59.6153567352,
./stim/MorphM7_02_orig.jpg,108,,,,,,,,,0,108,108,108,,,,,,,,,,,,,,,23.408203125,-7.96875,0,0,1,1.52401995659,,,,,2015_Sep_06_1239,A,facesParametric,5,59.6153567352,
./stim/MorphM5_02_orig.jpg,109,,,,,,,,,0,109,109,109,,,,,,,,,,,,,,,23.408203125,-7.96875,0,0,1,1.49121403694,,,,,2015_Sep_06_1239,A,facesParametric,5,59.6153567352,
./stim/MorphM6_08_orig.jpg,110,,,,,,,,,0,110,110,110,,,,,,,,,,,,,,,23.408203125,-8.291015625,0,0,1,5.7299759388,,,,,2015_Sep_06_1239,A,facesParametric,5,59.6153567352,
./stim/MorphF6_01_orig.jpg,111,,,,,,,,,0,111,111,111,,,,,,,,,,,,,,,23.408203125,-8.525390625,1,0,0,1.05449986458,,,,,2015_Sep_06_1239,A,facesParametric,5,59.6153567352,
./stim/MorphM3_08_orig.jpg,112,,,,,,,,,0,112,112,112,,,,,,,,,,,,,,,23.408203125,-8.525390625,0,0,1,0.954078912735,,,,,2015_Sep_06_1239,A,facesParametric,5,59.6153567352,
./stim/MorphF2_06_orig.jpg,113,,,,,,,,,0,113,113,113,,,,,,,,,,,,,,,23.408203125,-8.525390625,0,0,1,5.93143010139,,,,,2015_Sep_06_1239,A,facesParametric,5,59.6153567352,
./stim/MorphM9_05_orig.jpg,114,,,,,,,,,0,114,114,114,,,,,,,,,,,,,,,23.408203125,-8.525390625,1,0,0,1.77560901642,,,,,2015_Sep_06_1239,A,facesParametric,5,59.6153567352,
./stim/MorphM7_06_orig.jpg,115,,,,,,,,,0,115,115,115,,,,,,,,,,,,,,,23.408203125,-8.525390625,0,0,1,0.903389930725,,,,,2015_Sep_06_1239,A,facesParametric,5,59.6153567352,
./stim/MorphF7_00_orig.jpg,116,,,,,,,,,0,116,116,116,,,,,,,,,,,,,,,23.408203125,-8.525390625,1,0,0,2.24455595016,,,,,2015_Sep_06_1239,A,facesParametric,5,59.6153567352,
./stim/MorphM7_00_orig.jpg,117,,,,,,,,,0,117,117,117,,,,,,,,,,,,,,,23.408203125,-8.525390625,1,0,0,7.0711479187,,,,,2015_Sep_06_1239,A,facesParametric,5,59.6153567352,
./stim/MorphM6_02_orig.jpg,118,,,,,,,,,0,118,118,118,,,,,,,,,,,,,,,23.408203125,-8.525390625,1,0,0,3.14979600906,,,,,2015_Sep_06_1239,A,facesParametric,5,59.6153567352,
./stim/MorphF7_04_orig.jpg,119,,,,,,,,,0,119,119,119,,,,,,,,,,,,,,,23.408203125,-8.525390625,0,0,1,2.5275850296,,,,,2015_Sep_06_1239,A,facesParametric,5,59.6153567352,
./stim/MorphF4_00_orig.jpg,120,,,,,,,,,0,120,120,120,,,,,,,,,,,,,,,23.408203125,-8.5546875,1,0,0,0.81837105751,,,,,2015_Sep_06_1239,A,facesParametric,5,59.6153567352,
./stim/MorphF9_07_orig.jpg,121,,,,,,,,,0,121,121,121,,,,,,,,,,,,,,,23.408203125,-8.5546875,0,0,1,1.35322713852,,,,,2015_Sep_06_1239,A,facesParametric,5,59.6153567352,
./stim/MorphF4_05_orig.jpg,122,,,,,,,,,0,122,122,122,,,,,,,,,,,,,,,23.408203125,-8.5546875,0,0,1,5.04371619225,,,,,2015_Sep_06_1239,A,facesParametric,5,59.6153567352,
./stim/MorphF5_10_orig.jpg,123,,,,,,,,,0,123,123,123,,,,,,,,,,,,,,,23.408203125,-8.5546875,0,0,1,0.81997013092,,,,,2015_Sep_06_1239,A,facesParametric,5,59.6153567352,
./stim/MorphM9_06_orig.jpg,124,,,,,,,,,0,124,124,124,,,,,,,,,,,,,,,23.408203125,-8.5546875,0,0,1,2.52818799019,,,,,2015_Sep_06_1239,A,facesParametric,5,59.6153567352,
./stim/MorphF1_00_orig.jpg,125,,,,,,,,,0,125,125,125,,,,,,,,,,,,,,,23.408203125,-8.5546875,0,0,1,4.18809890747,,,,,2015_Sep_06_1239,A,facesParametric,5,59.6153567352,
./stim/MorphF5_07_orig.jpg,126,,,,,,,,,0,126,126,126,,,,,,,,,,,,,,,23.408203125,-8.5546875,0,0,1,1.50642204285,,,,,2015_Sep_06_1239,A,facesParametric,5,59.6153567352,
./stim/MorphM6_06_orig.jpg,127,,,,,,,,,0,127,127,127,,,,,,,,,,,,,,,23.408203125,-9.08203125,0,0,1,2.30934119225,,,,,2015_Sep_06_1239,A,facesParametric,5,59.6153567352,
./stim/MorphF2_00_orig.jpg,128,,,,,,,,,0,128,128,128,,,,,,,,,,,,,,,23.408203125,-9.43359375,0,0,1,6.46797895432,,,,,2015_Sep_06_1239,A,facesParametric,5,59.6153567352,
./stim/MorphM6_03_orig.jpg,129,,,,,,,,,0,129,129,129,,,,,,,,,,,,,,,23.408203125,-9.43359375,0,0,1,2.89819598198,,,,,2015_Sep_06_1239,A,facesParametric,5,59.6153567352,
./stim/MorphM3_04_orig.jpg,130,,,,,,,,,0,130,130,130,,,,,,,,,,,,,,,23.408203125,-9.404296875,0,0,1,1.825507164,,,,,2015_Sep_06_1239,A,facesParametric,5,59.6153567352,
./stim/MorphM8_01_orig.jpg,131,,,,,,,,,0,131,131,131,,,,,,,,,,,,,,,23.408203125,-9.4921875,0,0,1,4.27195501328,,,,,2015_Sep_06_1239,A,facesParametric,5,59.6153567352,
./stim/MorphM1_06_orig.jpg,132,,,,,,,,,0,132,132,132,,,,,,,,,,,,,,,23.408203125,-9.55078125,0,0,1,7.02132511139,,,,,2015_Sep_06_1239,A,facesParametric,5,59.6153567352,
./stim/MorphM2_09_orig.jpg,133,,,,,,,,,0,133,133,133,,,,,,,,,,,,,,,23.408203125,-9.580078125,0,0,1,0.803042173386,,,,,2015_Sep_06_1239,A,facesParametric,5,59.6153567352,
./stim/MorphF2_01_orig.jpg,134,,,,,,,,,0,134,134,134,,,,,,,,,,,,,,,23.408203125,-9.580078125,1,0,0,4.77566504478,,,,,2015_Sep_06_1239,A,facesParametric,5,59.6153567352,
./stim/MorphM5_01_orig.jpg,135,,,,,,,,,0,135,135,135,,,,,,,,,,,,,,,23.408203125,-9.84375,0,0,1,0.987453937531,,,,,2015_Sep_06_1239,A,facesParametric,5,59.6153567352,
./stim/MorphF8_03_orig.jpg,136,,,,,,,,,0,136,136,136,,,,,,,,,,,,,,,23.37890625,-9.814453125,1,0,0,7.38975000381,,,,,2015_Sep_06_1239,A,facesParametric,5,59.6153567352,
./stim/MorphF10_03_orig.jpg,137,,,,,,,,,0,137,137,137,,,,,,,,,,,,,,,23.37890625,-9.814453125,0,0,1,1.38948893547,,,,,2015_Sep_06_1239,A,facesParametric,5,59.6153567352,
./stim/MorphM7_09_orig.jpg,138,,,,,,,,,0,138,138,138,,,,,,,,,,,,,,,23.37890625,-9.814453125,0,0,1,2.02797698975,,,,,2015_Sep_06_1239,A,facesParametric,5,59.6153567352,
./stim/MorphM9_00_orig.jpg,139,,,,,,,,,0,139,139,139,,,,,,,,,,,,,,,23.349609375,-9.78515625,1,0,0,4.03631186485,,,,,2015_Sep_06_1239,A,facesParametric,5,59.6153567352,
./stim/MorphM3_05_orig.jpg,140,,,,,,,,,0,140,140,140,,,,,,,,,,,,,,,23.349609375,-9.78515625,0,0,1,1.2714509964,,,,,2015_Sep_06_1239,A,facesParametric,5,59.6153567352,
./stim/MorphM1_07_orig.jpg,141,,,,,,,,,0,141,141,141,,,,,,,,,,,,,,,23.349609375,-9.78515625,0,0,1,4.99324703217,,,,,2015_Sep_06_1239,A,facesParametric,5,59.6153567352,
./stim/MorphM9_07_orig.jpg,142,,,,,,,,,0,142,142,142,,,,,,,,,,,,,,,23.349609375,-9.78515625,0,0,1,1.62329792976,,,,,2015_Sep_06_1239,A,facesParametric,5,59.6153567352,
./stim/MorphF3_03_orig.jpg,143,,,,,,,,,0,143,143,143,,,,,,,,,,,,,,,23.37890625,-9.78515625,0,0,1,2.22752690315,,,,,2015_Sep_06_1239,A,facesParametric,5,59.6153567352,
./stim/MorphF4_07_orig.jpg,144,,,,,,,,,0,144,144,144,,,,,,,,,,,,,,,23.408203125,-9.755859375,0,0,1,1.25584697723,,,,,2015_Sep_06_1239,A,facesParametric,5,59.6153567352,
./stim/MorphM2_10_orig.jpg,145,,,,,,,,,0,145,145,145,,,,,,,,,,,,,,,23.37890625,-7.79296875,0,0,1,2.62925577164,,,,,2015_Sep_06_1239,A,facesParametric,5,59.6153567352,
./stim/MorphF7_06_orig.jpg,146,,,,,,,,,0,146,146,146,,,,,,,,,,,,,,,23.408203125,-7.353515625,0,0,1,0.75284910202,,,,,2015_Sep_06_1239,A,facesParametric,5,59.6153567352,
./stim/MorphM8_02_orig.jpg,147,,,,,,,,,0,147,147,147,,,,,,,,,,,,,,,22.998046875,-4.072265625,0,0,1,0.753441095352,,,,,2015_Sep_06_1239,A,facesParametric,5,59.6153567352,
./stim/MorphF3_05_orig.jpg,148,,,,,,,,,0,148,148,148,,,,,,,,,,,,,,,23.408203125,-4.16015625,0,0,1,0.68496799469,,,,,2015_Sep_06_1239,A,facesParametric,5,59.6153567352,
./stim/MorphF6_04_orig.jpg,149,,,,,,,,,0,149,149,149,,,,,,,,,,,,,,,23.408203125,-4.98046875,0,0,1,1.55772399902,,,,,2015_Sep_06_1239,A,facesParametric,5,59.6153567352,
./stim/MorphM4_10_orig.jpg,150,,,,,,,,,0,150,150,150,,,,,,,,,,,,,,,23.37890625,-5.771484375,0,0,1,0.635802030563,,,,,2015_Sep_06_1239,A,facesParametric,5,59.6153567352,
./stim/MorphF10_08_orig.jpg,151,,,,,,,,,0,151,151,151,,,,,,,,,,,,,,,23.291015625,-6.005859375,0,0,1,0.702020168304,,,,,2015_Sep_06_1239,A,facesParametric,5,59.6153567352,
./stim/MorphF5_02_orig.jpg,152,,,,,,,,,0,152,152,152,,,,,,,,,,,,,,,23.291015625,-6.064453125,0,0,1,3.2333881855,,,,,2015_Sep_06_1239,A,facesParametric,5,59.6153567352,
./stim/MorphF1_05_orig.jpg,153,,,,,,,,,0,153,153,153,,,,,,,,,,,,,,,23.291015625,-6.064453125,0,0,1,4.63932299614,,,,,2015_Sep_06_1239,A,facesParametric,5,59.6153567352,
./stim/MorphF9_09_orig.jpg,154,,,,,,,,,0,154,154,154,,,,,,,,,,,,,,,23.26171875,-6.03515625,0,0,1,0.803337097168,,,,,2015_Sep_06_1239,A,facesParametric,5,59.6153567352,
./stim/MorphF5_03_orig.jpg,155,,,,,,,,,0,155,155,155,,,,,,,,,,,,,,,23.26171875,-6.03515625,0,0,1,0.668695926666,,,,,2015_Sep_06_1239,A,facesParametric,5,59.6153567352,
./stim/MorphF4_03_orig.jpg,156,,,,,,,,,0,156,156,156,,,,,,,,,,,,,,,23.232421875,-5.21484375,1,0,0,4.3059399128,,,,,2015_Sep_06_1239,A,facesParametric,5,59.6153567352,
./stim/MorphF5_01_orig.jpg,157,,,,,,,,,0,157,157,157,,,,,,,,,,,,,,,23.232421875,-5.21484375,1,0,0,1.95974898338,,,,,2015_Sep_06_1239,A,facesParametric,5,59.6153567352,
./stim/MorphM1_01_orig.jpg,158,,,,,,,,,0,158,158,158,,,,,,,,,,,,,,,23.232421875,-5.21484375,1,0,0,1.87587809563,,,,,2015_Sep_06_1239,A,facesParametric,5,59.6153567352,
./stim/MorphF9_02_orig.jpg,159,,,,,,,,,0,159,159,159,,,,,,,,,,,,,,,23.232421875,-5.21484375,1,0,0,2.93122506142,,,,,2015_Sep_06_1239,A,facesParametric,5,59.6153567352,
./stim/MorphF2_02_orig.jpg,160,,,,,,,,,0,160,160,160,,,,,,,,,,,,,,,23.232421875,-5.21484375,1,0,0,2.72933912277,,,,,2015_Sep_06_1239,A,facesParametric,5,59.6153567352,
./stim/MorphM8_10_orig.jpg,161,,,,,,,,,0,161,161,161,,,,,,,,,,,,,,,23.232421875,-5.21484375,0,0,1,0.852474927902,,,,,2015_Sep_06_1239,A,facesParametric,5,59.6153567352,
./stim/MorphM1_10_orig.jpg,162,,,,,,,,,0,162,162,162,,,,,,,,,,,,,,,23.232421875,-5.21484375,0,0,1,0.753207921982,,,,,2015_Sep_06_1239,A,facesParametric,5,59.6153567352,
./stim/MorphF10_04_orig.jpg,163,,,,,,,,,0,163,163,163,,,,,,,,,,,,,,,23.232421875,-5.21484375,0,0,1,2.05778503418,,,,,2015_Sep_06_1239,A,facesParametric,5,59.6153567352,
./stim/MorphF3_00_orig.jpg,164,,,,,,,,,0,164,164,164,,,,,,,,,,,,,,,23.232421875,-5.21484375,1,0,0,1.5073029995,,,,,2015_Sep_06_1239,A,facesParametric,5,59.6153567352,
./stim/MorphM2_07_orig.jpg,165,,,,,,,,,0,165,165,165,,,,,,,,,,,,,,,22.880859375,-6.650390625,0,0,1,3.73580598831,,,,,2015_Sep_06_1239,A,facesParametric,5,59.6153567352,
./stim/MorphF7_05_orig.jpg,166,,,,,,,,,0,166,166,166,,,,,,,,,,,,,,,23.3203125,-7.880859375,0,0,1,6.98633909225,,,,,2015_Sep_06_1239,A,facesParametric,5,59.6153567352,
./stim/MorphF6_03_orig.jpg,167,,,,,,,,,0,167,167,167,,,,,,,,,,,,,,,23.3203125,-7.880859375,1,0,0,1.00225186348,,,,,2015_Sep_06_1239,A,facesParametric,5,59.6153567352,
./stim/MorphF3_02_orig.jpg,168,,,,,,,,,0,168,168,168,,,,,,,,,,,,,,,23.291015625,-7.91015625,1,0,0,1.1550359726,,,,,2015_Sep_06_1239,A,facesParametric,5,59.6153567352,
./stim/MorphF1_01_orig.jpg,169,,,,,,,,,0,169,169,169,,,,,,,,,,,,,,,23.291015625,-7.91015625,1,0,0,0.93713092804,,,,,2015_Sep_06_1239,A,facesParametric,5,59.6153567352,
./stim/MorphM1_04_orig.jpg,170,,,,,,,,,0,170,170,170,,,,,,,,,,,,,,,23.26171875,-7.939453125,1,0,0,1.64130806923,,,,,2015_Sep_06_1239,A,facesParametric,5,59.6153567352,
./stim/MorphF4_09_orig.jpg,171,,,,,,,,,0,171,171,171,,,,,,,,,,,,,,,23.26171875,-7.939453125,0,0,1,0.987678050995,,,,,2015_Sep_06_1239,A,facesParametric,5,59.6153567352,
./stim/MorphM6_00_orig.jpg,172,,,,,,,,,0,172,172,172,,,,,,,,,,,,,,,23.232421875,-7.96875,1,0,0,1.42267394066,,,,,2015_Sep_06_1239,A,facesParametric,5,59.6153567352,
./stim/MorphM5_09_orig.jpg,173,,,,,,,,,0,173,173,173,,,,,,,,,,,,,,,23.232421875,-7.96875,0,0,1,1.12171196938,,,,,2015_Sep_06_1239,A,facesParametric,5,59.6153567352,
./stim/MorphF5_06_orig.jpg,174,,,,,,,,,0,174,174,174,,,,,,,,,,,,,,,23.203125,-7.96875,0,0,1,2.3111448288,,,,,2015_Sep_06_1239,A,facesParametric,5,59.6153567352,
./stim/MorphF9_01_orig.jpg,175,,,,,,,,,0,175,175,175,,,,,,,,,,,,,,,23.203125,-7.96875,0,0,1,4.07119107246,,,,,2015_Sep_06_1239,A,facesParametric,5,59.6153567352,
./stim/MorphM5_07_orig.jpg,176,,,,,,,,,0,176,176,176,,,,,,,,,,,,,,,23.173828125,-7.96875,0,0,1,1.373087883,,,,,2015_Sep_06_1239,A,facesParametric,5,59.6153567352,
./stim/MorphM2_01_orig.jpg,177,,,,,,,,,0,177,177,177,,,,,,,,,,,,,,,23.14453125,-7.998046875,1,0,0,1.35552597046,,,,,2015_Sep_06_1239,A,facesParametric,5,59.6153567352,
./stim/MorphM7_03_orig.jpg,178,,,,,,,,,0,178,178,178,,,,,,,,,,,,,,,23.14453125,-7.998046875,0,0,1,0.836987018585,,,,,2015_Sep_06_1239,A,facesParametric,5,59.6153567352,
./stim/MorphM9_09_orig.jpg,179,,,,,,,,,0,179,179,179,,,,,,,,,,,,,,,23.14453125,-8.02734375,0,0,1,0.953407049179,,,,,2015_Sep_06_1239,A,facesParametric,5,59.6153567352,
./stim/MorphF9_10_orig.jpg,180,,,,,,,,,0,180,180,180,,,,,,,,,,,,,,,23.14453125,-8.02734375,0,0,1,1.22229504585,,,,,2015_Sep_06_1239,A,facesParametric,5,59.6153567352,
./stim/MorphF8_10_orig.jpg,181,,,,,,,,,0,181,181,181,,,,,,,,,,,,,,,23.14453125,-8.02734375,0,0,1,0.551780939102,,,,,2015_Sep_06_1239,A,facesParametric,5,59.6153567352,
./stim/MorphF10_10_orig.jpg,182,,,,,,,,,0,182,182,182,,,,,,,,,,,,,,,23.14453125,-8.02734375,0,0,1,0.568893194199,,,,,2015_Sep_06_1239,A,facesParametric,5,59.6153567352,
./stim/MorphM3_09_orig.jpg,183,,,,,,,,,0,183,183,183,,,,,,,,,,,,,,,23.14453125,-8.02734375,0,0,1,0.853613138199,,,,,2015_Sep_06_1239,A,facesParametric,5,59.6153567352,
./stim/MorphF10_05_orig.jpg,184,,,,,,,,,0,184,184,184,,,,,,,,,,,,,,,23.14453125,-8.02734375,0,0,1,1.95790791512,,,,,2015_Sep_06_1239,A,facesParametric,5,59.6153567352,
./stim/MorphF6_00_orig.jpg,185,,,,,,,,,0,185,185,185,,,,,,,,,,,,,,,23.14453125,-8.056640625,0,0,1,0.684338092804,,,,,2015_Sep_06_1239,A,facesParametric,5,59.6153567352,
./stim/MorphF8_08_orig.jpg,186,,,,,,,,,0,186,186,186,,,,,,,,,,,,,,,23.173828125,-8.115234375,0,0,1,1.35507798195,,,,,2015_Sep_06_1239,A,facesParametric,5,59.6153567352,
./stim/MorphF7_10_orig.jpg,187,,,,,,,,,0,187,187,187,,,,,,,,,,,,,,,23.173828125,-8.115234375,0,0,1,0.786216974258,,,,,2015_Sep_06_1239,A,facesParametric,5,59.6153567352,
./stim/MorphM9_10_orig.jpg,188,,,,,,,,,0,188,188,188,,,,,,,,,,,,,,,23.173828125,-8.115234375,0,0,1,0.803381919861,,,,,2015_Sep_06_1239,A,facesParametric,5,59.6153567352,
./stim/MorphM10_05_orig.jpg,189,,,,,,,,,0,189,189,189,,,,,,,,,,,,,,,23.173828125,-8.115234375,0,0,1,0.886715173721,,,,,2015_Sep_06_1239,A,facesParametric,5,59.6153567352,
./stim/MorphM8_03_orig.jpg,190,,,,,,,,,0,190,190,190,,,,,,,,,,,,,,,23.173828125,-8.115234375,0,0,1,1.12198591232,,,,,2015_Sep_06_1239,A,facesParametric,5,59.6153567352,
./stim/MorphF2_10_orig.jpg,191,,,,,,,,,0,191,191,191,,,,,,,,,,,,,,,23.173828125,-8.115234375,0,0,1,1.32211184502,,,,,2015_Sep_06_1239,A,facesParametric,5,59.6153567352,
./stim/MorphM1_02_orig.jpg,192,,,,,,,,,0,192,192,192,,,,,,,,,,,,,,,23.173828125,-8.115234375,1,0,0,2.24309015274,,,,,2015_Sep_06_1239,A,facesParametric,5,59.6153567352,
./stim/MorphM4_09_orig.jpg,193,,,,,,,,,0,193,193,193,,,,,,,,,,,,,,,23.173828125,-8.115234375,0,0,1,1.37366986275,,,,,2015_Sep_06_1239,A,facesParametric,5,59.6153567352,
./stim/MorphM8_07_orig.jpg,194,,,,,,,,,0,194,194,194,,,,,,,,,,,,,,,23.115234375,-8.349609375,0,0,1,3.02990412712,,,,,2015_Sep_06_1239,A,facesParametric,5,59.6153567352,
./stim/MorphM1_08_orig.jpg,195,,,,,,,,,0,195,195,195,,,,,,,,,,,,,,,23.291015625,-8.14453125,0,0,1,1.27312588692,,,,,2015_Sep_06_1239,A,facesParametric,5,59.6153567352,
./stim/MorphF4_08_orig.jpg,196,,,,,,,,,0,196,196,196,,,,,,,,,,,,,,,23.291015625,-8.14453125,0,0,1,1.03456401825,,,,,2015_Sep_06_1239,A,facesParametric,5,59.6153567352,
./stim/MorphM9_04_orig.jpg,197,,,,,,,,,0,197,197,197,,,,,,,,,,,,,,,23.291015625,-8.203125,1,0,0,1.12119793892,,,,,2015_Sep_06_1239,A,facesParametric,5,59.6153567352,
./stim/MorphF1_09_orig.jpg,198,,,,,,,,,0,198,198,198,,,,,,,,,,,,,,,23.291015625,-8.26171875,0,0,1,1.33888196945,,,,,2015_Sep_06_1239,A,facesParametric,5,59.6153567352,
./stim/MorphM9_08_orig.jpg,199,,,,,,,,,0,199,199,199,,,,,,,,,,,,,,,23.291015625,-8.26171875,0,0,1,0.686206102371,,,,,2015_Sep_06_1239,A,facesParametric,5,59.6153567352,
./stim/MorphF10_01_orig.jpg,200,,,,,,,,,0,200,200,200,,,,,,,,,,,,,,,23.26171875,-8.291015625,1,0,0,4.44024586678,,,,,2015_Sep_06_1239,A,facesParametric,5,59.6153567352,
./stim/MorphM10_00_orig.jpg,201,,,,,,,,,0,201,201,201,,,,,,,,,,,,,,,23.26171875,-8.291015625,1,0,0,1.03669190407,,,,,2015_Sep_06_1239,A,facesParametric,5,59.6153567352,
./stim/MorphM2_00_orig.jpg,202,,,,,,,,,0,202,202,202,,,,,,,,,,,,,,,23.26171875,-8.291015625,1,0,0,0.887287855148,,,,,2015_Sep_06_1239,A,facesParametric,5,59.6153567352,
./stim/MorphM9_01_orig.jpg,203,,,,,,,,,0,203,203,203,,,,,,,,,,,,,,,23.26171875,-8.291015625,1,0,0,1.07162690163,,,,,2015_Sep_06_1239,A,facesParametric,5,59.6153567352,
./stim/MorphF7_09_orig.jpg,204,,,,,,,,,0,204,204,204,,,,,,,,,,,,,,,23.232421875,-8.26171875,0,0,1,0.88675403595,,,,,2015_Sep_06_1239,A,facesParametric,5,59.6153567352,
./stim/MorphF9_00_orig.jpg,205,,,,,,,,,0,205,205,205,,,,,,,,,,,,,,,23.232421875,-8.26171875,1,0,0,5.24470710754,,,,,2015_Sep_06_1239,A,facesParametric,5,59.6153567352,
./stim/MorphM2_02_orig.jpg,206,,,,,,,,,0,206,206,206,,,,,,,,,,,,,,,23.232421875,-8.26171875,1,0,0,1.13842391968,,,,,2015_Sep_06_1239,A,facesParametric,5,59.6153567352,
./stim/MorphF8_05_orig.jpg,207,,,,,,,,,0,207,207,207,,,,,,,,,,,,,,,23.232421875,-8.26171875,1,0,0,1.17185497284,,,,,2015_Sep_06_1239,A,facesParametric,5,59.6153567352,
./stim/MorphF3_09_orig.jpg,208,,,,,,,,,0,208,208,208,,,,,,,,,,,,,,,23.232421875,-8.26171875,0,0,1,1.10547995567,,,,,2015_Sep_06_1239,A,facesParametric,5,59.6153567352,
./stim/MorphM5_10_orig.jpg,209,,,,,,,,,0,209,209,209,,,,,,,,,,,,,,,23.232421875,-8.26171875,0,0,1,0.766993999481,,,,,2015_Sep_06_1239,A,facesParametric,5,59.6153567352,
./stim/MorphM8_08_orig.jpg,210,,,,,,,,,0,210,210,210,,,,,,,,,,,,,,,23.232421875,-8.26171875,0,0,1,0.636487960815,,,,,2015_Sep_06_1239,A,facesParametric,5,59.6153567352,
./stim/MorphM3_07_orig.jpg,211,,,,,,,,,0,211,211,211,,,,,,,,,,,,,,,23.232421875,-8.26171875,0,0,1,0.685371875763,,,,,2015_Sep_06_1239,A,facesParametric,5,59.6153567352,
./stim/MorphM5_06_orig.jpg,212,,,,,,,,,0,212,212,212,,,,,,,,,,,,,,,23.232421875,-8.26171875,0,0,1,1.59083986282,,,,,2015_Sep_06_1239,A,facesParametric,5,59.6153567352,
./stim/MorphF5_09_orig.jpg,213,,,,,,,,,0,213,213,213,,,,,,,,,,,,,,,23.232421875,-8.26171875,0,0,1,2.32781887054,,,,,2015_Sep_06_1239,A,facesParametric,5,59.6153567352,
./stim/MorphF8_06_orig.jpg,214,,,,,,,,,0,214,214,214,,,,,,,,,,,,,,,23.14453125,-8.3203125,0,0,1,0.635308027267,,,,,2015_Sep_06_1239,A,facesParametric,5,59.6153567352,
./stim/MorphF5_04_orig.jpg,215,,,,,,,,,0,215,215,215,,,,,,,,,,,,,,,23.14453125,-8.37890625,1,0,0,1.25635910034,,,,,2015_Sep_06_1239,A,facesParametric,5,59.6153567352,
./stim/MorphM2_04_orig.jpg,216,,,,,,,,,0,216,216,216,,,,,,,,,,,,,,,23.0859375,-7.20703125,1,0,0,3.83622384071,,,,,2015_Sep_06_1239,A,facesParametric,5,59.6153567352,
./stim/MorphF2_05_orig.jpg,217,,,,,,,,,0,217,217,217,,,,,,,,,,,,,,,23.115234375,-7.177734375,0,0,1,1.13640189171,,,,,2015_Sep_06_1239,A,facesParametric,5,59.6153567352,
./stim/MorphM7_01_orig.jpg,218,,,,,,,,,0,218,218,218,,,,,,,,,,,,,,,23.173828125,-7.412109375,0,0,1,1.48908114433,,,,,2015_Sep_06_1239,A,facesParametric,5,59.6153567352,
./stim/MorphF10_09_orig.jpg,219,,,,,,,,,0,219,219,219,,,,,,,,,,,,,,,23.14453125,-7.294921875,0,0,1,1.13648104668,,,,,2015_Sep_06_1239,A,facesParametric,5,59.6153567352,
,,,,,,,,,,,,,,,,,,,,,,,,,,,,,,,,,,,,return,68.0057678223,2015_Sep_06_1239,A,facesParametric,5,59.6153567352,
