img,num,basicLoop.thisRepN,basicLoop.thisTrialN,basicLoop.thisN,basicLoop.thisIndex,trials.thisRepN,trials.thisTrialN,trials.thisN,trials.thisIndex,trials2.thisRepN,trials2.thisTrialN,trials2.thisN,trials2.thisIndex,key_resp_2.keys,key_resp_2.rt,basicRating1.response,basicRating1.rt,basicRating2.response,basicRating2.rt,basicRating3.response,basicRating3.rt,basicRating4.response,basicRating4.rt,key_resp_3.keys,key_resp_3.rt,key_resp_4.keys,key_resp_4.rt,mouseResp.x,mouseResp.y,mouseResp.leftButton,mouseResp.midButton,mouseResp.rightButton,mouseResp.time,key_resp_5.keys,key_resp_5.rt,key_resp_7.keys,key_resp_7.rt,date,group,expName,participant,frameRate,
,,,,,,,,,,,,,,return,17.3535339832,,,,,,,,,,,,,,,,,,,,,,,2015_Sep_06_1320,A,facesParametric,6,59.6933288929,
./basicStim/07F_SA_C.jpg,,0,0,0,32,,,,,,,,,,,SAD,11.386,None,None,None,None,None,None,,,,,,,,,,,,,,,2015_Sep_06_1320,A,facesParametric,6,59.6933288929,
./basicStim/36M_SP_O.jpg,,0,1,1,82,,,,,,,,,,,None,None,None,None,SUP,6.47,None,None,,,,,,,,,,,,,,,2015_Sep_06_1320,A,facesParametric,6,59.6933288929,
./basicStim/36M_HA_O.jpg,,0,2,2,80,,,,,,,,,,,HAP,1.498,None,None,None,None,None,None,,,,,,,,,,,,,,,2015_Sep_06_1320,A,facesParametric,6,59.6933288929,
./basicStim/24M_HA_O.jpg,,0,3,3,59,,,,,,,,,,,HAP,1.36,None,None,None,None,None,None,,,,,,,,,,,,,,,2015_Sep_06_1320,A,facesParametric,6,59.6933288929,
./basicStim/23M_SA_C.jpg,,0,4,4,53,,,,,,,,,,,None,None,ANG,6.642,None,None,None,None,,,,,,,,,,,,,,,2015_Sep_06_1320,A,facesParametric,6,59.6933288929,
./basicStim/21M_DI_O.jpg,,0,5,5,43,,,,,,,,,,,None,None,None,None,DIS,1.73,None,None,,,,,,,,,,,,,,,2015_Sep_06_1320,A,facesParametric,6,59.6933288929,
./basicStim/03F_HA_O.jpg,,0,6,6,17,,,,,,,,,,,HAP,1.586,None,None,None,None,None,None,,,,,,,,,,,,,,,2015_Sep_06_1320,A,facesParametric,6,59.6933288929,
./basicStim/06F_SP_O.jpg,,0,7,7,26,,,,,,,,,,,None,None,None,None,SUP,2.906,None,None,,,,,,,,,,,,,,,2015_Sep_06_1320,A,facesParametric,6,59.6933288929,
./basicStim/23M_FE_O.jpg,,0,8,8,51,,,,,,,,,,,None,None,ANG,6.459,None,None,None,None,,,,,,,,,,,,,,,2015_Sep_06_1320,A,facesParametric,6,59.6933288929,
./basicStim/23M_DI_O.jpg,,0,9,9,50,,,,,,,,,,,None,None,None,None,DIS,3.155,None,None,,,,,,,,,,,,,,,2015_Sep_06_1320,A,facesParametric,6,59.6933288929,
./basicStim/09F_SA_C.jpg,,0,10,10,39,,,,,,,,,,,None,None,ANG,1.831,None,None,None,None,,,,,,,,,,,,,,,2015_Sep_06_1320,A,facesParametric,6,59.6933288929,
./basicStim/02F_FE_O.jpg,,0,11,11,9,,,,,,,,,,,None,None,None,None,DIS,4.258,None,None,,,,,,,,,,,,,,,2015_Sep_06_1320,A,facesParametric,6,59.6933288929,
./basicStim/06F_HA_O.jpg,,0,12,12,24,,,,,,,,,,,HAP,0.812,None,None,None,None,None,None,,,,,,,,,,,,,,,2015_Sep_06_1320,A,facesParametric,6,59.6933288929,
./basicStim/03F_NE_C.jpg,,0,13,13,20,,,,,,,,,,,None,None,None,None,None,None,NTR,0.975,,,,,,,,,,,,,,,2015_Sep_06_1320,A,facesParametric,6,59.6933288929,
./basicStim/24M_NE_C.jpg,,0,14,14,62,,,,,,,,,,,None,None,None,None,None,None,NTR,0.533,,,,,,,,,,,,,,,2015_Sep_06_1320,A,facesParametric,6,59.6933288929,
./basicStim/23M_NE_C.jpg,,0,15,15,55,,,,,,,,,,,None,None,None,None,None,None,NTR,0.571,,,,,,,,,,,,,,,2015_Sep_06_1320,A,facesParametric,6,59.6933288929,
./basicStim/24M_AN_O.jpg,,0,16,16,56,,,,,,,,,,,None,None,ANG,2.403,None,None,None,None,,,,,,,,,,,,,,,2015_Sep_06_1320,A,facesParametric,6,59.6933288929,
./basicStim/07F_NE_C.jpg,,0,17,17,34,,,,,,,,,,,None,None,None,None,None,None,NTR,1.123,,,,,,,,,,,,,,,2015_Sep_06_1320,A,facesParametric,6,59.6933288929,
./basicStim/36M_SA_C.jpg,,0,18,18,81,,,,,,,,,,,SAD,3.007,None,None,None,None,None,None,,,,,,,,,,,,,,,2015_Sep_06_1320,A,facesParametric,6,59.6933288929,
./basicStim/23M_HA_O.jpg,,0,19,19,52,,,,,,,,,,,HAP,1.601,None,None,None,None,None,None,,,,,,,,,,,,,,,2015_Sep_06_1320,A,facesParametric,6,59.6933288929,
./basicStim/21M_AN_O.jpg,,0,20,20,42,,,,,,,,,,,None,None,ANG,3.137,None,None,None,None,,,,,,,,,,,,,,,2015_Sep_06_1320,A,facesParametric,6,59.6933288929,
./basicStim/01F_FE_O.jpg,,0,21,21,2,,,,,,,,,,,None,None,None,None,SUP,4.392,None,None,,,,,,,,,,,,,,,2015_Sep_06_1320,A,facesParametric,6,59.6933288929,
./basicStim/01F_DI_O.jpg,,0,22,22,1,,,,,,,,,,,None,None,ANG,4.694,None,None,None,None,,,,,,,,,,,,,,,2015_Sep_06_1320,A,facesParametric,6,59.6933288929,
./basicStim/03F_SP_O.jpg,,0,23,23,19,,,,,,,,,,,HAP,1.165,None,None,None,None,None,None,,,,,,,,,,,,,,,2015_Sep_06_1320,A,facesParametric,6,59.6933288929,
./basicStim/02F_SP_O.jpg,,0,24,24,12,,,,,,,,,,,None,None,None,None,SUP,1.697,None,None,,,,,,,,,,,,,,,2015_Sep_06_1320,A,facesParametric,6,59.6933288929,
./basicStim/23M_SP_O.jpg,,0,25,25,54,,,,,,,,,,,None,None,None,None,SUP,0.93,None,None,,,,,,,,,,,,,,,2015_Sep_06_1320,A,facesParametric,6,59.6933288929,
./basicStim/34M_SA_C.jpg,,0,26,26,74,,,,,,,,,,,SAD,2.191,None,None,None,None,None,None,,,,,,,,,,,,,,,2015_Sep_06_1320,A,facesParametric,6,59.6933288929,
./basicStim/24M_SP_O.jpg,,0,27,27,61,,,,,,,,,,,None,None,None,None,SUP,3.737,None,None,,,,,,,,,,,,,,,2015_Sep_06_1320,A,facesParametric,6,59.6933288929,
./basicStim/28M_SA_C.jpg,,0,28,28,67,,,,,,,,,,,None,None,None,None,None,None,NTR,2.315,,,,,,,,,,,,,,,2015_Sep_06_1320,A,facesParametric,6,59.6933288929,
./basicStim/06F_SA_C.jpg,,0,29,29,25,,,,,,,,,,,SAD,3.828,None,None,None,None,None,None,,,,,,,,,,,,,,,2015_Sep_06_1320,A,facesParametric,6,59.6933288929,
./basicStim/34M_HA_O.jpg,,0,30,30,73,,,,,,,,,,,HAP,1.014,None,None,None,None,None,None,,,,,,,,,,,,,,,2015_Sep_06_1320,A,facesParametric,6,59.6933288929,
./basicStim/09F_NE_C.jpg,,0,31,31,41,,,,,,,,,,,None,None,None,None,None,None,NTR,1.878,,,,,,,,,,,,,,,2015_Sep_06_1320,A,facesParametric,6,59.6933288929,
./basicStim/02F_SA_C.jpg,,0,32,32,11,,,,,,,,,,,SAD,4.906,None,None,None,None,None,None,,,,,,,,,,,,,,,2015_Sep_06_1320,A,facesParametric,6,59.6933288929,
./basicStim/03F_DI_O.jpg,,0,33,33,15,,,,,,,,,,,None,None,None,None,DIS,1.558,None,None,,,,,,,,,,,,,,,2015_Sep_06_1320,A,facesParametric,6,59.6933288929,
./basicStim/28M_NE_C.jpg,,0,34,34,69,,,,,,,,,,,None,None,None,None,None,None,NTR,1.997,,,,,,,,,,,,,,,2015_Sep_06_1320,A,facesParametric,6,59.6933288929,
./basicStim/03F_SA_C.jpg,,0,35,35,18,,,,,,,,,,,None,None,FEA,3.271,None,None,None,None,,,,,,,,,,,,,,,2015_Sep_06_1320,A,facesParametric,6,59.6933288929,
./basicStim/34M_FE_O.jpg,,0,36,36,72,,,,,,,,,,,None,None,FEA,1.619,None,None,None,None,,,,,,,,,,,,,,,2015_Sep_06_1320,A,facesParametric,6,59.6933288929,
./basicStim/36M_DI_O.jpg,,0,37,37,78,,,,,,,,,,,None,None,None,None,DIS,2.145,None,None,,,,,,,,,,,,,,,2015_Sep_06_1320,A,facesParametric,6,59.6933288929,
./basicStim/23M_AN_O.jpg,,0,38,38,49,,,,,,,,,,,None,None,ANG,1.528,None,None,None,None,,,,,,,,,,,,,,,2015_Sep_06_1320,A,facesParametric,6,59.6933288929,
./basicStim/03F_AN_O.jpg,,0,39,39,14,,,,,,,,,,,None,None,ANG,0.606,None,None,None,None,,,,,,,,,,,,,,,2015_Sep_06_1320,A,facesParametric,6,59.6933288929,
./basicStim/09F_SP_O.jpg,,0,40,40,40,,,,,,,,,,,None,None,None,None,SUP,1.715,None,None,,,,,,,,,,,,,,,2015_Sep_06_1320,A,facesParametric,6,59.6933288929,
./basicStim/09F_AN_O.jpg,,0,41,41,35,,,,,,,,,,,None,None,ANG,1.902,None,None,None,None,,,,,,,,,,,,,,,2015_Sep_06_1320,A,facesParametric,6,59.6933288929,
./basicStim/24M_FE_O.jpg,,0,42,42,58,,,,,,,,,,,None,None,FEA,2.233,None,None,None,None,,,,,,,,,,,,,,,2015_Sep_06_1320,A,facesParametric,6,59.6933288929,
./basicStim/34M_SP_O.jpg,,0,43,43,75,,,,,,,,,,,None,None,None,None,SUP,1.387,None,None,,,,,,,,,,,,,,,2015_Sep_06_1320,A,facesParametric,6,59.6933288929,
./basicStim/24M_SA_C.jpg,,0,44,44,60,,,,,,,,,,,SAD,2.587,None,None,None,None,None,None,,,,,,,,,,,,,,,2015_Sep_06_1320,A,facesParametric,6,59.6933288929,
./basicStim/02F_NE_C.jpg,,0,45,45,13,,,,,,,,,,,None,None,None,None,None,None,NTR,1.295,,,,,,,,,,,,,,,2015_Sep_06_1320,A,facesParametric,6,59.6933288929,
./basicStim/28M_SP_O.jpg,,0,46,46,68,,,,,,,,,,,None,None,None,None,SUP,1.478,None,None,,,,,,,,,,,,,,,2015_Sep_06_1320,A,facesParametric,6,59.6933288929,
./basicStim/01F_HA_O.jpg,,0,47,47,3,,,,,,,,,,,HAP,1.034,None,None,None,None,None,None,,,,,,,,,,,,,,,2015_Sep_06_1320,A,facesParametric,6,59.6933288929,
./basicStim/03F_FE_O.jpg,,0,48,48,16,,,,,,,,,,,None,None,FEA,1.261,None,None,None,None,,,,,,,,,,,,,,,2015_Sep_06_1320,A,facesParametric,6,59.6933288929,
./basicStim/07F_HA_O.jpg,,0,49,49,31,,,,,,,,,,,HAP,1.72,None,None,None,None,None,None,,,,,,,,,,,,,,,2015_Sep_06_1320,A,facesParametric,6,59.6933288929,
./basicStim/01F_SP_O.jpg,,0,50,50,5,,,,,,,,,,,None,None,None,None,SUP,1.133,None,None,,,,,,,,,,,,,,,2015_Sep_06_1320,A,facesParametric,6,59.6933288929,
./basicStim/21M_NE_C.jpg,,0,51,51,48,,,,,,,,,,,None,None,None,None,None,None,NTR,0.857,,,,,,,,,,,,,,,2015_Sep_06_1320,A,facesParametric,6,59.6933288929,
./basicStim/28M_HA_O.jpg,,0,52,52,66,,,,,,,,,,,HAP,1.633,None,None,None,None,None,None,,,,,,,,,,,,,,,2015_Sep_06_1320,A,facesParametric,6,59.6933288929,
./basicStim/36M_AN_O.jpg,,0,53,53,77,,,,,,,,,,,None,None,ANG,3.948,None,None,None,None,,,,,,,,,,,,,,,2015_Sep_06_1320,A,facesParametric,6,59.6933288929,
./basicStim/21M_HA_O.jpg,,0,54,54,45,,,,,,,,,,,HAP,3.356,None,None,None,None,None,None,,,,,,,,,,,,,,,2015_Sep_06_1320,A,facesParametric,6,59.6933288929,
./basicStim/21M_SA_C.jpg,,0,55,55,46,,,,,,,,,,,None,None,ANG,5.877,None,None,None,None,,,,,,,,,,,,,,,2015_Sep_06_1320,A,facesParametric,6,59.6933288929,
./basicStim/28M_AN_O.jpg,,0,56,56,63,,,,,,,,,,,None,None,ANG,4.611,None,None,None,None,,,,,,,,,,,,,,,2015_Sep_06_1320,A,facesParametric,6,59.6933288929,
./basicStim/07F_SP_O.jpg,,0,57,57,33,,,,,,,,,,,None,None,None,None,SUP,1.614,None,None,,,,,,,,,,,,,,,2015_Sep_06_1320,A,facesParametric,6,59.6933288929,
./basicStim/06F_AN_O.jpg,,0,58,58,21,,,,,,,,,,,None,None,ANG,0.925,None,None,None,None,,,,,,,,,,,,,,,2015_Sep_06_1320,A,facesParametric,6,59.6933288929,
./basicStim/34M_DI_O.jpg,,0,59,59,71,,,,,,,,,,,None,None,None,None,DIS,1.058,None,None,,,,,,,,,,,,,,,2015_Sep_06_1320,A,facesParametric,6,59.6933288929,
./basicStim/01F_AN_O.jpg,,0,60,60,0,,,,,,,,,,,None,None,ANG,1.414,None,None,None,None,,,,,,,,,,,,,,,2015_Sep_06_1320,A,facesParametric,6,59.6933288929,
./basicStim/28M_DI_O.jpg,,0,61,61,64,,,,,,,,,,,None,None,None,None,DIS,1.849,None,None,,,,,,,,,,,,,,,2015_Sep_06_1320,A,facesParametric,6,59.6933288929,
./basicStim/34M_NE_C.jpg,,0,62,62,76,,,,,,,,,,,None,None,None,None,None,None,NTR,0.985,,,,,,,,,,,,,,,2015_Sep_06_1320,A,facesParametric,6,59.6933288929,
./basicStim/02F_AN_O.jpg,,0,63,63,7,,,,,,,,,,,None,None,ANG,2.201,None,None,None,None,,,,,,,,,,,,,,,2015_Sep_06_1320,A,facesParametric,6,59.6933288929,
./basicStim/28M_FE_O.jpg,,0,64,64,65,,,,,,,,,,,None,None,FEA,1.713,None,None,None,None,,,,,,,,,,,,,,,2015_Sep_06_1320,A,facesParametric,6,59.6933288929,
./basicStim/06F_NE_C.jpg,,0,65,65,27,,,,,,,,,,,None,None,None,None,None,None,NTR,1.496,,,,,,,,,,,,,,,2015_Sep_06_1320,A,facesParametric,6,59.6933288929,
./basicStim/07F_AN_O.jpg,,0,66,66,28,,,,,,,,,,,None,None,ANG,1.784,None,None,None,None,,,,,,,,,,,,,,,2015_Sep_06_1320,A,facesParametric,6,59.6933288929,
./basicStim/24M_DI_O.jpg,,0,67,67,57,,,,,,,,,,,SAD,2.069,None,None,None,None,None,None,,,,,,,,,,,,,,,2015_Sep_06_1320,A,facesParametric,6,59.6933288929,
./basicStim/02F_HA_O.jpg,,0,68,68,10,,,,,,,,,,,HAP,1.414,None,None,None,None,None,None,,,,,,,,,,,,,,,2015_Sep_06_1320,A,facesParametric,6,59.6933288929,
./basicStim/34M_AN_O.jpg,,0,69,69,70,,,,,,,,,,,None,None,ANG,1.612,None,None,None,None,,,,,,,,,,,,,,,2015_Sep_06_1320,A,facesParametric,6,59.6933288929,
./basicStim/02F_DI_O.jpg,,0,70,70,8,,,,,,,,,,,None,None,None,None,DIS,3.102,None,None,,,,,,,,,,,,,,,2015_Sep_06_1320,A,facesParametric,6,59.6933288929,
./basicStim/01F_NE_C.jpg,,0,71,71,6,,,,,,,,,,,None,None,None,None,None,None,NTR,0.739,,,,,,,,,,,,,,,2015_Sep_06_1320,A,facesParametric,6,59.6933288929,
./basicStim/36M_NE_C.jpg,,0,72,72,83,,,,,,,,,,,None,None,None,None,None,None,NTR,0.503,,,,,,,,,,,,,,,2015_Sep_06_1320,A,facesParametric,6,59.6933288929,
./basicStim/09F_DI_O.jpg,,0,73,73,36,,,,,,,,,,,None,None,None,None,DIS,1.281,None,None,,,,,,,,,,,,,,,2015_Sep_06_1320,A,facesParametric,6,59.6933288929,
./basicStim/07F_DI_O.jpg,,0,74,74,29,,,,,,,,,,,None,None,None,None,DIS,1.443,None,None,,,,,,,,,,,,,,,2015_Sep_06_1320,A,facesParametric,6,59.6933288929,
./basicStim/21M_SP_O.jpg,,0,75,75,47,,,,,,,,,,,HAP,1.55,None,None,None,None,None,None,,,,,,,,,,,,,,,2015_Sep_06_1320,A,facesParametric,6,59.6933288929,
./basicStim/09F_HA_O.jpg,,0,76,76,38,,,,,,,,,,,HAP,0.492,None,None,None,None,None,None,,,,,,,,,,,,,,,2015_Sep_06_1320,A,facesParametric,6,59.6933288929,
./basicStim/09F_FE_O.jpg,,0,77,77,37,,,,,,,,,,,None,None,FEA,3.78,None,None,None,None,,,,,,,,,,,,,,,2015_Sep_06_1320,A,facesParametric,6,59.6933288929,
./basicStim/07F_FE_O.jpg,,0,78,78,30,,,,,,,,,,,None,None,None,None,DIS,2.821,None,None,,,,,,,,,,,,,,,2015_Sep_06_1320,A,facesParametric,6,59.6933288929,
./basicStim/01F_SA_C.jpg,,0,79,79,4,,,,,,,,,,,SAD,1.616,None,None,None,None,None,None,,,,,,,,,,,,,,,2015_Sep_06_1320,A,facesParametric,6,59.6933288929,
./basicStim/06F_FE_O.jpg,,0,80,80,23,,,,,,,,,,,None,None,None,None,SUP,3.238,None,None,,,,,,,,,,,,,,,2015_Sep_06_1320,A,facesParametric,6,59.6933288929,
./basicStim/36M_FE_O.jpg,,0,81,81,79,,,,,,,,,,,None,None,FEA,4.277,None,None,None,None,,,,,,,,,,,,,,,2015_Sep_06_1320,A,facesParametric,6,59.6933288929,
./basicStim/06F_DI_O.jpg,,0,82,82,22,,,,,,,,,,,None,None,None,None,DIS,0.835,None,None,,,,,,,,,,,,,,,2015_Sep_06_1320,A,facesParametric,6,59.6933288929,
./basicStim/21M_FE_O.jpg,,0,83,83,44,,,,,,,,,,,None,None,FEA,3.388,None,None,None,None,,,,,,,,,,,,,,,2015_Sep_06_1320,A,facesParametric,6,59.6933288929,
,,,,,,,,,,,,,,,,,,,,,,,,return,4.61067485809,,,,,,,,,,,,,2015_Sep_06_1320,A,facesParametric,6,59.6933288929,
,,,,,,,,,,,,,,return,14.9152810574,,,,,,,,,,,,,,,,,,,,,,,2015_Sep_06_1320,A,facesParametric,6,59.6933288929,
,,,,,,,,,,,,,,,,,,,,,,,,return,3.83806085587,,,,,,,,,,,,,2015_Sep_06_1320,A,facesParametric,6,59.6933288929,
,,,,,,,,,,,,,,,,,,,,,,,,,,return,1.87689900398,,,,,,,,,,,2015_Sep_06_1320,A,facesParametric,6,59.6933288929,
./stim/MorphM6_10_orig.jpg,0,,,,,0,0,0,0,,,,,,,,,,,,,,,,,,,12.12890625,-9.169921875,1,0,0,5.85471892357,,,,,2015_Sep_06_1320,A,facesParametric,6,59.6933288929,
./stim/MorphF9_04_orig.jpg,1,,,,,0,1,1,1,,,,,,,,,,,,,,,,,,,12.158203125,-9.140625,0,0,1,2.509141922,,,,,2015_Sep_06_1320,A,facesParametric,6,59.6933288929,
./stim/MorphM3_03_orig.jpg,2,,,,,0,2,2,2,,,,,,,,,,,,,,,,,,,13.125,-4.74609375,0,0,1,6.41786384583,,,,,2015_Sep_06_1320,A,facesParametric,6,59.6933288929,
./stim/MorphM1_00_orig.jpg,3,,,,,0,3,3,3,,,,,,,,,,,,,,,,,,,13.125,-4.74609375,0,0,1,1.94269990921,,,,,2015_Sep_06_1320,A,facesParametric,6,59.6933288929,
./stim/MorphM6_09_orig.jpg,4,,,,,0,4,4,4,,,,,,,,,,,,,,,,,,,13.095703125,-4.775390625,0,0,1,3.93679285049,,,,,2015_Sep_06_1320,A,facesParametric,6,59.6933288929,
./stim/MorphM10_02_orig.jpg,5,,,,,0,5,5,5,,,,,,,,,,,,,,,,,,,13.06640625,-4.775390625,0,0,1,2.0595099926,,,,,2015_Sep_06_1320,A,facesParametric,6,59.6933288929,
./stim/MorphM3_06_orig.jpg,6,,,,,0,6,6,6,,,,,,,,,,,,,,,,,,,13.037109375,-4.8046875,1,0,0,0.970950126648,,,,,2015_Sep_06_1320,A,facesParametric,6,59.6933288929,
./stim/MorphM7_08_orig.jpg,7,,,,,0,7,7,7,,,,,,,,,,,,,,,,,,,13.037109375,-4.8046875,1,0,0,1.69139885902,,,,,2015_Sep_06_1320,A,facesParametric,6,59.6933288929,
./stim/MorphM6_04_orig.jpg,8,,,,,0,8,8,8,,,,,,,,,,,,,,,,,,,13.037109375,-4.8046875,0,0,1,3.92020201683,,,,,2015_Sep_06_1320,A,facesParametric,6,59.6933288929,
./stim/MorphM2_05_orig.jpg,9,,,,,0,9,9,9,,,,,,,,,,,,,,,,,,,13.06640625,-4.8046875,0,0,1,2.17587399483,,,,,2015_Sep_06_1320,A,facesParametric,6,59.6933288929,
./stim/MorphM3_01_orig.jpg,10,,,,,0,10,10,10,,,,,,,,,,,,,,,,,,,13.06640625,-4.8046875,1,0,0,0.887305021286,,,,,2015_Sep_06_1320,A,facesParametric,6,59.6933288929,
./stim/MorphF1_03_orig.jpg,11,,,,,0,11,11,11,,,,,,,,,,,,,,,,,,,13.06640625,-4.8046875,0,0,1,1.74176812172,,,,,2015_Sep_06_1320,A,facesParametric,6,59.6933288929,
./stim/MorphF8_09_orig.jpg,12,,,,,0,12,12,12,,,,,,,,,,,,,,,,,,,13.06640625,-4.8046875,1,0,0,1.20530796051,,,,,2015_Sep_06_1320,A,facesParametric,6,59.6933288929,
./stim/MorphF3_01_orig.jpg,13,,,,,0,13,13,13,,,,,,,,,,,,,,,,,,,13.06640625,-4.8046875,0,0,1,0.971091032028,,,,,2015_Sep_06_1320,A,facesParametric,6,59.6933288929,
./stim/MorphF7_03_orig.jpg,14,,,,,0,14,14,14,,,,,,,,,,,,,,,,,,,13.095703125,-4.833984375,0,0,1,1.28967809677,,,,,2015_Sep_06_1320,A,facesParametric,6,59.6933288929,
./stim/MorphM1_05_orig.jpg,15,,,,,0,15,15,15,,,,,,,,,,,,,,,,,,,13.095703125,-4.833984375,0,0,1,1.55542397499,,,,,2015_Sep_06_1320,A,facesParametric,6,59.6933288929,
./stim/MorphM5_08_orig.jpg,16,,,,,0,16,16,16,,,,,,,,,,,,,,,,,,,13.06640625,-4.8046875,1,0,0,1.10506510735,,,,,2015_Sep_06_1320,A,facesParametric,6,59.6933288929,
./stim/MorphF7_01_orig.jpg,17,,,,,0,17,17,17,,,,,,,,,,,,,,,,,,,13.06640625,-4.8046875,0,0,1,2.12526297569,,,,,2015_Sep_06_1320,A,facesParametric,6,59.6933288929,
./stim/MorphF1_10_orig.jpg,18,,,,,0,18,18,18,,,,,,,,,,,,,,,,,,,13.06640625,-4.8046875,1,0,0,1.11963796616,,,,,2015_Sep_06_1320,A,facesParametric,6,59.6933288929,
./stim/MorphF9_06_orig.jpg,19,,,,,0,19,19,19,,,,,,,,,,,,,,,,,,,13.06640625,-4.8046875,1,0,0,1.12145900726,,,,,2015_Sep_06_1320,A,facesParametric,6,59.6933288929,
./stim/MorphM4_00_orig.jpg,20,,,,,0,20,20,20,,,,,,,,,,,,,,,,,,,13.06640625,-4.8046875,0,0,1,1.62433290482,,,,,2015_Sep_06_1320,A,facesParametric,6,59.6933288929,
./stim/MorphM10_08_orig.jpg,21,,,,,0,21,21,21,,,,,,,,,,,,,,,,,,,13.037109375,-4.833984375,1,0,0,1.03631711006,,,,,2015_Sep_06_1320,A,facesParametric,6,59.6933288929,
./stim/MorphF8_07_orig.jpg,22,,,,,0,22,22,22,,,,,,,,,,,,,,,,,,,13.037109375,-4.833984375,1,0,0,0.98685503006,,,,,2015_Sep_06_1320,A,facesParametric,6,59.6933288929,
./stim/MorphF6_02_orig.jpg,23,,,,,0,23,23,23,,,,,,,,,,,,,,,,,,,13.037109375,-4.833984375,0,0,1,1.90762805939,,,,,2015_Sep_06_1320,A,facesParametric,6,59.6933288929,
./stim/MorphM2_08_orig.jpg,24,,,,,0,24,24,24,,,,,,,,,,,,,,,,,,,13.037109375,-4.833984375,0,0,1,3.01583409309,,,,,2015_Sep_06_1320,A,facesParametric,6,59.6933288929,
./stim/MorphF9_05_orig.jpg,25,,,,,0,25,25,25,,,,,,,,,,,,,,,,,,,13.0078125,-4.8046875,0,0,1,2.34507012367,,,,,2015_Sep_06_1320,A,facesParametric,6,59.6933288929,
./stim/MorphF1_08_orig.jpg,26,,,,,0,26,26,26,,,,,,,,,,,,,,,,,,,13.037109375,-4.74609375,0,0,1,3.85332798958,,,,,2015_Sep_06_1320,A,facesParametric,6,59.6933288929,
./stim/MorphF6_09_orig.jpg,27,,,,,0,27,27,27,,,,,,,,,,,,,,,,,,,13.037109375,-4.365234375,1,0,0,1.52168893814,,,,,2015_Sep_06_1320,A,facesParametric,6,59.6933288929,
./stim/MorphF2_09_orig.jpg,28,,,,,0,28,28,28,,,,,,,,,,,,,,,,,,,13.037109375,-4.365234375,1,0,0,0.400964975357,,,,,2015_Sep_06_1320,A,facesParametric,6,59.6933288929,
./stim/MorphF1_04_orig.jpg,29,,,,,0,29,29,29,,,,,,,,,,,,,,,,,,,13.037109375,-4.365234375,0,0,1,3.75132608414,,,,,2015_Sep_06_1320,A,facesParametric,6,59.6933288929,
./stim/MorphM4_06_orig.jpg,30,,,,,0,30,30,30,,,,,,,,,,,,,,,,,,,-0.05859375,-0.322265625,1,0,0,6.50165915489,,,,,2015_Sep_06_1320,A,facesParametric,6,59.6933288929,
./stim/MorphM5_04_orig.jpg,31,,,,,0,31,31,31,,,,,,,,,,,,,,,,,,,-0.029296875,-0.05859375,1,0,0,2.14224815369,,,,,2015_Sep_06_1320,A,facesParametric,6,59.6933288929,
./stim/MorphF10_02_orig.jpg,32,,,,,0,32,32,32,,,,,,,,,,,,,,,,,,,0.0,-0.05859375,0,0,1,1.18877983093,,,,,2015_Sep_06_1320,A,facesParametric,6,59.6933288929,
./stim/MorphF6_05_orig.jpg,33,,,,,0,33,33,33,,,,,,,,,,,,,,,,,,,0.0,-0.05859375,0,0,1,2.34423613548,,,,,2015_Sep_06_1320,A,facesParametric,6,59.6933288929,
./stim/MorphF8_01_orig.jpg,34,,,,,0,34,34,34,,,,,,,,,,,,,,,,,,,-0.029296875,-0.029296875,0,0,1,0.752878904343,,,,,2015_Sep_06_1320,A,facesParametric,6,59.6933288929,
./stim/MorphM2_06_orig.jpg,35,,,,,0,35,35,35,,,,,,,,,,,,,,,,,,,0.1171875,0.05859375,0,0,1,3.76784396172,,,,,2015_Sep_06_1320,A,facesParametric,6,59.6933288929,
./stim/MorphM9_02_orig.jpg,36,,,,,0,36,36,36,,,,,,,,,,,,,,,,,,,0.1171875,0.087890625,0,0,1,1.87556600571,,,,,2015_Sep_06_1320,A,facesParametric,6,59.6933288929,
./stim/MorphM5_03_orig.jpg,37,,,,,0,37,37,37,,,,,,,,,,,,,,,,,,,0.146484375,0.1171875,0,0,1,1.84025883675,,,,,2015_Sep_06_1320,A,facesParametric,6,59.6933288929,
./stim/MorphM4_01_orig.jpg,38,,,,,0,38,38,38,,,,,,,,,,,,,,,,,,,0.146484375,0.1171875,0,0,1,0.986467123032,,,,,2015_Sep_06_1320,A,facesParametric,6,59.6933288929,
./stim/MorphM6_05_orig.jpg,39,,,,,0,39,39,39,,,,,,,,,,,,,,,,,,,0.17578125,0.146484375,0,0,1,2.2278649807,,,,,2015_Sep_06_1320,A,facesParametric,6,59.6933288929,
./stim/MorphF4_02_orig.jpg,40,,,,,0,40,40,40,,,,,,,,,,,,,,,,,,,0.17578125,0.146484375,0,0,1,1.0878200531,,,,,2015_Sep_06_1320,A,facesParametric,6,59.6933288929,
./stim/MorphM9_03_orig.jpg,41,,,,,0,41,41,41,,,,,,,,,,,,,,,,,,,0.46875,0.52734375,0,0,1,2.99858689308,,,,,2015_Sep_06_1320,A,facesParametric,6,59.6933288929,
./stim/MorphF4_06_orig.jpg,42,,,,,0,42,42,42,,,,,,,,,,,,,,,,,,,0.439453125,0.52734375,1,0,0,1.70783209801,,,,,2015_Sep_06_1320,A,facesParametric,6,59.6933288929,
./stim/MorphF5_00_orig.jpg,43,,,,,0,43,43,43,,,,,,,,,,,,,,,,,,,0.439453125,0.52734375,0,0,1,0.921537876129,,,,,2015_Sep_06_1320,A,facesParametric,6,59.6933288929,
./stim/MorphM7_04_orig.jpg,44,,,,,0,44,44,44,,,,,,,,,,,,,,,,,,,0.46875,0.498046875,1,0,0,3.08166503906,,,,,2015_Sep_06_1320,A,facesParametric,6,59.6933288929,
./stim/MorphF1_07_orig.jpg,45,,,,,0,45,45,45,,,,,,,,,,,,,,,,,,,0.46875,0.498046875,0,0,1,5.05995988846,,,,,2015_Sep_06_1320,A,facesParametric,6,59.6933288929,
./stim/MorphF7_02_orig.jpg,46,,,,,0,46,46,46,,,,,,,,,,,,,,,,,,,0.439453125,0.46875,0,0,1,0.936695814133,,,,,2015_Sep_06_1320,A,facesParametric,6,59.6933288929,
./stim/MorphF3_08_orig.jpg,47,,,,,0,47,47,47,,,,,,,,,,,,,,,,,,,0.439453125,0.46875,1,0,0,1.30536723137,,,,,2015_Sep_06_1320,A,facesParametric,6,59.6933288929,
./stim/MorphM4_03_orig.jpg,48,,,,,0,48,48,48,,,,,,,,,,,,,,,,,,,0.41015625,0.46875,1,0,0,1.12184596062,,,,,2015_Sep_06_1320,A,facesParametric,6,59.6933288929,
./stim/MorphM7_05_orig.jpg,49,,,,,0,49,49,49,,,,,,,,,,,,,,,,,,,0.380859375,0.439453125,1,0,0,1.18771004677,,,,,2015_Sep_06_1320,A,facesParametric,6,59.6933288929,
./stim/MorphM4_08_orig.jpg,50,,,,,0,50,50,50,,,,,,,,,,,,,,,,,,,0.380859375,0.439453125,1,0,0,0.935873031616,,,,,2015_Sep_06_1320,A,facesParametric,6,59.6933288929,
./stim/MorphM2_03_orig.jpg,51,,,,,0,51,51,51,,,,,,,,,,,,,,,,,,,0.380859375,0.439453125,0,0,1,1.13854980469,,,,,2015_Sep_06_1320,A,facesParametric,6,59.6933288929,
./stim/MorphF3_10_orig.jpg,52,,,,,0,52,52,52,,,,,,,,,,,,,,,,,,,0.3515625,0.439453125,1,0,0,2.07708215714,,,,,2015_Sep_06_1320,A,facesParametric,6,59.6933288929,
./stim/MorphF6_08_orig.jpg,53,,,,,0,53,53,53,,,,,,,,,,,,,,,,,,,0.322265625,0.439453125,1,0,0,1.18869304657,,,,,2015_Sep_06_1320,A,facesParametric,6,59.6933288929,
./stim/MorphM3_10_orig.jpg,54,,,,,0,54,54,54,,,,,,,,,,,,,,,,,,,0.322265625,0.439453125,1,0,0,3.03194904327,,,,,2015_Sep_06_1320,A,facesParametric,6,59.6933288929,
./stim/MorphM10_03_orig.jpg,55,,,,,0,55,55,55,,,,,,,,,,,,,,,,,,,0.322265625,0.439453125,1,0,0,0.819753885269,,,,,2015_Sep_06_1320,A,facesParametric,6,59.6933288929,
./stim/MorphF2_03_orig.jpg,56,,,,,0,56,56,56,,,,,,,,,,,,,,,,,,,0.322265625,0.439453125,1,0,0,3.31680393219,,,,,2015_Sep_06_1320,A,facesParametric,6,59.6933288929,
./stim/MorphM7_10_orig.jpg,57,,,,,0,57,57,57,,,,,,,,,,,,,,,,,,,0.29296875,0.46875,1,0,0,0.685145139694,,,,,2015_Sep_06_1320,A,facesParametric,6,59.6933288929,
./stim/MorphF8_00_orig.jpg,58,,,,,0,58,58,58,,,,,,,,,,,,,,,,,,,0.29296875,0.46875,0,0,1,1.12185811996,,,,,2015_Sep_06_1320,A,facesParametric,6,59.6933288929,
./stim/MorphF7_07_orig.jpg,59,,,,,0,59,59,59,,,,,,,,,,,,,,,,,,,0.29296875,0.46875,0,0,1,0.852988004684,,,,,2015_Sep_06_1320,A,facesParametric,6,59.6933288929,
./stim/MorphM8_09_orig.jpg,60,,,,,0,60,60,60,,,,,,,,,,,,,,,,,,,0.263671875,0.439453125,1,0,0,1.52318096161,,,,,2015_Sep_06_1320,A,facesParametric,6,59.6933288929,
./stim/MorphF5_08_orig.jpg,61,,,,,0,61,61,61,,,,,,,,,,,,,,,,,,,0.234375,0.439453125,1,0,0,1.08695602417,,,,,2015_Sep_06_1320,A,facesParametric,6,59.6933288929,
./stim/MorphM8_00_orig.jpg,62,,,,,0,62,62,62,,,,,,,,,,,,,,,,,,,0.17578125,0.41015625,1,0,0,2.94839096069,,,,,2015_Sep_06_1320,A,facesParametric,6,59.6933288929,
./stim/MorphF4_04_orig.jpg,63,,,,,0,63,63,63,,,,,,,,,,,,,,,,,,,0.146484375,0.380859375,0,0,1,0.93750500679,,,,,2015_Sep_06_1320,A,facesParametric,6,59.6933288929,
./stim/MorphM8_05_orig.jpg,64,,,,,0,64,64,64,,,,,,,,,,,,,,,,,,,0.146484375,0.380859375,1,0,0,1.70783901215,,,,,2015_Sep_06_1320,A,facesParametric,6,59.6933288929,
./stim/MorphM1_09_orig.jpg,65,,,,,0,65,65,65,,,,,,,,,,,,,,,,,,,0.1171875,0.41015625,0,0,1,3.50175023079,,,,,2015_Sep_06_1320,A,facesParametric,6,59.6933288929,
./stim/MorphF8_04_orig.jpg,66,,,,,0,66,66,66,,,,,,,,,,,,,,,,,,,0.1171875,0.41015625,0,0,1,1.62463498116,,,,,2015_Sep_06_1320,A,facesParametric,6,59.6933288929,
./stim/MorphM10_07_orig.jpg,67,,,,,0,67,67,67,,,,,,,,,,,,,,,,,,,0.1171875,0.41015625,1,0,0,2.41099596024,,,,,2015_Sep_06_1320,A,facesParametric,6,59.6933288929,
./stim/MorphM5_05_orig.jpg,68,,,,,0,68,68,68,,,,,,,,,,,,,,,,,,,0.1171875,0.41015625,1,0,0,1.55546808243,,,,,2015_Sep_06_1320,A,facesParametric,6,59.6933288929,
./stim/MorphM3_02_orig.jpg,69,,,,,0,69,69,69,,,,,,,,,,,,,,,,,,,0.146484375,0.439453125,1,0,0,1.15451693535,,,,,2015_Sep_06_1320,A,facesParametric,6,59.6933288929,
./stim/MorphF2_08_orig.jpg,70,,,,,0,70,70,70,,,,,,,,,,,,,,,,,,,0.146484375,0.439453125,1,0,0,0.969205856323,,,,,2015_Sep_06_1320,A,facesParametric,6,59.6933288929,
./stim/MorphM5_00_orig.jpg,71,,,,,0,71,71,71,,,,,,,,,,,,,,,,,,,0.146484375,0.439453125,0,0,1,1.30538201332,,,,,2015_Sep_06_1320,A,facesParametric,6,59.6933288929,
./stim/MorphF6_07_orig.jpg,72,,,,,0,72,72,72,,,,,,,,,,,,,,,,,,,0.146484375,0.439453125,1,0,0,1.30691194534,,,,,2015_Sep_06_1320,A,facesParametric,6,59.6933288929,
./stim/MorphM7_07_orig.jpg,73,,,,,0,73,73,73,,,,,,,,,,,,,,,,,,,0.1171875,0.439453125,1,0,0,2.998939991,,,,,2015_Sep_06_1320,A,facesParametric,6,59.6933288929,
./stim/MorphM4_05_orig.jpg,74,,,,,0,74,74,74,,,,,,,,,,,,,,,,,,,0.05859375,0.46875,1,0,0,2.12656211853,,,,,2015_Sep_06_1320,A,facesParametric,6,59.6933288929,
./stim/MorphF1_02_orig.jpg,75,,,,,0,75,75,75,,,,,,,,,,,,,,,,,,,0.146484375,0.5859375,0,0,1,0.802940130234,,,,,2015_Sep_06_1320,A,facesParametric,6,59.6933288929,
./stim/MorphM1_03_orig.jpg,76,,,,,0,76,76,76,,,,,,,,,,,,,,,,,,,0.234375,0.64453125,0,0,1,1.12143087387,,,,,2015_Sep_06_1320,A,facesParametric,6,59.6933288929,
./stim/MorphM6_01_orig.jpg,77,,,,,0,77,77,77,,,,,,,,,,,,,,,,,,,0.234375,0.64453125,1,0,0,5.29535317421,,,,,2015_Sep_06_1320,A,facesParametric,6,59.6933288929,
./stim/MorphF5_05_orig.jpg,78,,,,,0,78,78,78,,,,,,,,,,,,,,,,,,,0.234375,0.673828125,0,0,1,2.09335780144,,,,,2015_Sep_06_1320,A,facesParametric,6,59.6933288929,
./stim/MorphF4_10_orig.jpg,79,,,,,0,79,79,79,,,,,,,,,,,,,,,,,,,0.263671875,0.703125,1,0,0,1.80870699883,,,,,2015_Sep_06_1320,A,facesParametric,6,59.6933288929,
./stim/MorphF9_03_orig.jpg,80,,,,,0,80,80,80,,,,,,,,,,,,,,,,,,,0.263671875,0.703125,0,0,1,0.987372159958,,,,,2015_Sep_06_1320,A,facesParametric,6,59.6933288929,
./stim/MorphM8_04_orig.jpg,81,,,,,0,81,81,81,,,,,,,,,,,,,,,,,,,0.263671875,0.703125,1,0,0,1.42276477814,,,,,2015_Sep_06_1320,A,facesParametric,6,59.6933288929,
./stim/MorphF2_04_orig.jpg,82,,,,,0,82,82,82,,,,,,,,,,,,,,,,,,,0.205078125,0.673828125,1,0,0,5.05990886688,,,,,2015_Sep_06_1320,A,facesParametric,6,59.6933288929,
./stim/MorphM10_01_orig.jpg,83,,,,,0,83,83,83,,,,,,,,,,,,,,,,,,,0.205078125,0.673828125,1,0,0,1.62444210052,,,,,2015_Sep_06_1320,A,facesParametric,6,59.6933288929,
./stim/MorphF6_10_orig.jpg,84,,,,,0,84,84,84,,,,,,,,,,,,,,,,,,,0.205078125,0.673828125,1,0,0,1.1203110218,,,,,2015_Sep_06_1320,A,facesParametric,6,59.6933288929,
./stim/MorphF10_00_orig.jpg,85,,,,,0,85,85,85,,,,,,,,,,,,,,,,,,,0.205078125,0.673828125,0,0,1,1.67493391037,,,,,2015_Sep_06_1320,A,facesParametric,6,59.6933288929,
./stim/MorphM10_04_orig.jpg,86,,,,,0,86,86,86,,,,,,,,,,,,,,,,,,,0.205078125,0.673828125,1,0,0,1.33992290497,,,,,2015_Sep_06_1320,A,facesParametric,6,59.6933288929,
./stim/MorphM4_07_orig.jpg,87,,,,,0,87,87,87,,,,,,,,,,,,,,,,,,,0.205078125,0.64453125,1,0,0,0.853438138962,,,,,2015_Sep_06_1320,A,facesParametric,6,59.6933288929,
./stim/MorphF10_07_orig.jpg,88,,,,,0,88,88,88,,,,,,,,,,,,,,,,,,,0.205078125,0.64453125,1,0,0,0.969584941864,,,,,2015_Sep_06_1320,A,facesParametric,6,59.6933288929,
./stim/MorphF8_02_orig.jpg,89,,,,,0,89,89,89,,,,,,,,,,,,,,,,,,,0.205078125,0.64453125,0,0,1,2.22783899307,,,,,2015_Sep_06_1320,A,facesParametric,6,59.6933288929,
./stim/MorphM10_06_orig.jpg,90,,,,,0,90,90,90,,,,,,,,,,,,,,,,,,,0.234375,0.615234375,1,0,0,2.00907516479,,,,,2015_Sep_06_1320,A,facesParametric,6,59.6933288929,
./stim/MorphF6_06_orig.jpg,91,,,,,0,91,91,91,,,,,,,,,,,,,,,,,,,0.263671875,0.5859375,1,0,0,3.53502106667,,,,,2015_Sep_06_1320,A,facesParametric,6,59.6933288929,
./stim/MorphF2_07_orig.jpg,92,,,,,0,92,92,92,,,,,,,,,,,,,,,,,,,0.29296875,0.64453125,1,0,0,5.41149783134,,,,,2015_Sep_06_1320,A,facesParametric,6,59.6933288929,
./stim/MorphF3_04_orig.jpg,93,,,,,0,93,93,93,,,,,,,,,,,,,,,,,,,0.64453125,-0.234375,0,0,1,0.919054985046,,,,,2015_Sep_06_1320,A,facesParametric,6,59.6933288929,
./stim/MorphM10_10_orig.jpg,94,,,,,0,94,94,94,,,,,,,,,,,,,,,,,,,0.498046875,-0.29296875,1,0,0,1.07130885124,,,,,2015_Sep_06_1320,A,facesParametric,6,59.6933288929,
./stim/MorphF3_06_orig.jpg,95,,,,,0,95,95,95,,,,,,,,,,,,,,,,,,,0.498046875,-0.29296875,1,0,0,5.17764186859,,,,,2015_Sep_06_1320,A,facesParametric,6,59.6933288929,
./stim/MorphM8_06_orig.jpg,96,,,,,0,96,96,96,,,,,,,,,,,,,,,,,,,0.498046875,-0.29296875,1,0,0,1.72506117821,,,,,2015_Sep_06_1320,A,facesParametric,6,59.6933288929,
./stim/MorphM4_02_orig.jpg,97,,,,,0,97,97,97,,,,,,,,,,,,,,,,,,,0.498046875,-0.29296875,0,0,1,1.90791296959,,,,,2015_Sep_06_1320,A,facesParametric,6,59.6933288929,
./stim/MorphF9_08_orig.jpg,98,,,,,0,98,98,98,,,,,,,,,,,,,,,,,,,0.498046875,-0.29296875,1,0,0,3.41741394997,,,,,2015_Sep_06_1320,A,facesParametric,6,59.6933288929,
./stim/MorphF3_07_orig.jpg,99,,,,,0,99,99,99,,,,,,,,,,,,,,,,,,,0.498046875,-0.29296875,0,0,1,5.29453611374,,,,,2015_Sep_06_1320,A,facesParametric,6,59.6933288929,
./stim/MorphM10_09_orig.jpg,100,,,,,0,100,100,100,,,,,,,,,,,,,,,,,,,0.498046875,-0.29296875,1,0,0,1.35636091232,,,,,2015_Sep_06_1320,A,facesParametric,6,59.6933288929,
./stim/MorphM4_04_orig.jpg,101,,,,,0,101,101,101,,,,,,,,,,,,,,,,,,,0.46875,0.029296875,0,0,1,4.0546810627,,,,,2015_Sep_06_1320,A,facesParametric,6,59.6933288929,
./stim/MorphM6_07_orig.jpg,102,,,,,0,102,102,102,,,,,,,,,,,,,,,,,,,1.5234375,2.314453125,1,0,0,6.31694507599,,,,,2015_Sep_06_1320,A,facesParametric,6,59.6933288929,
./stim/MorphF4_01_orig.jpg,103,,,,,0,103,103,103,,,,,,,,,,,,,,,,,,,1.5234375,2.314453125,1,0,0,0.736034870148,,,,,2015_Sep_06_1320,A,facesParametric,6,59.6933288929,
./stim/MorphF10_06_orig.jpg,104,,,,,0,104,104,104,,,,,,,,,,,,,,,,,,,1.552734375,2.28515625,0,0,1,1.45722603798,,,,,2015_Sep_06_1320,A,facesParametric,6,59.6933288929,
./stim/MorphM3_00_orig.jpg,105,,,,,0,105,105,105,,,,,,,,,,,,,,,,,,,1.552734375,2.28515625,0,0,1,9.36586499214,,,,,2015_Sep_06_1320,A,facesParametric,6,59.6933288929,
./stim/MorphF7_08_orig.jpg,106,,,,,0,106,106,106,,,,,,,,,,,,,,,,,,,1.552734375,2.28515625,1,0,0,0.952871084213,,,,,2015_Sep_06_1320,A,facesParametric,6,59.6933288929,
./stim/MorphF1_06_orig.jpg,107,,,,,0,107,107,107,,,,,,,,,,,,,,,,,,,1.552734375,2.28515625,0,0,1,1.23773598671,,,,,2015_Sep_06_1320,A,facesParametric,6,59.6933288929,
./stim/MorphM7_02_orig.jpg,108,,,,,0,108,108,108,,,,,,,,,,,,,,,,,,,1.552734375,2.28515625,0,0,1,5.66137194633,,,,,2015_Sep_06_1320,A,facesParametric,6,59.6933288929,
./stim/MorphM5_02_orig.jpg,109,,,,,0,109,109,109,,,,,,,,,,,,,,,,,,,1.552734375,2.28515625,1,0,0,2.47891712189,,,,,2015_Sep_06_1320,A,facesParametric,6,59.6933288929,
./stim/MorphM6_08_orig.jpg,110,,,,,0,110,110,110,,,,,,,,,,,,,,,,,,,1.552734375,2.28515625,1,0,0,1.28956007957,,,,,2015_Sep_06_1320,A,facesParametric,6,59.6933288929,
./stim/MorphF6_01_orig.jpg,111,,,,,0,111,111,111,,,,,,,,,,,,,,,,,,,1.552734375,2.28515625,1,0,0,0.968858957291,,,,,2015_Sep_06_1320,A,facesParametric,6,59.6933288929,
./stim/MorphM3_08_orig.jpg,112,,,,,0,112,112,112,,,,,,,,,,,,,,,,,,,1.552734375,2.28515625,1,0,0,1.23684501648,,,,,2015_Sep_06_1320,A,facesParametric,6,59.6933288929,
./stim/MorphF2_06_orig.jpg,113,,,,,0,113,113,113,,,,,,,,,,,,,,,,,,,1.552734375,2.28515625,1,0,0,1.23696899414,,,,,2015_Sep_06_1320,A,facesParametric,6,59.6933288929,
./stim/MorphM9_05_orig.jpg,114,,,,,0,114,114,114,,,,,,,,,,,,,,,,,,,1.552734375,2.28515625,0,0,1,2.96511387825,,,,,2015_Sep_06_1320,A,facesParametric,6,59.6933288929,
./stim/MorphM7_06_orig.jpg,115,,,,,0,115,115,115,,,,,,,,,,,,,,,,,,,1.58203125,2.314453125,1,0,0,1.35606002808,,,,,2015_Sep_06_1320,A,facesParametric,6,59.6933288929,
./stim/MorphF7_00_orig.jpg,116,,,,,0,116,116,116,,,,,,,,,,,,,,,,,,,1.58203125,2.314453125,0,0,1,1.13900899887,,,,,2015_Sep_06_1320,A,facesParametric,6,59.6933288929,
./stim/MorphM7_00_orig.jpg,117,,,,,0,117,117,117,,,,,,,,,,,,,,,,,,,1.376953125,2.05078125,0,0,1,2.81203198433,,,,,2015_Sep_06_1320,A,facesParametric,6,59.6933288929,
./stim/MorphM6_02_orig.jpg,118,,,,,0,118,118,118,,,,,,,,,,,,,,,,,,,1.46484375,2.16796875,0,0,1,5.66182088852,,,,,2015_Sep_06_1320,A,facesParametric,6,59.6933288929,
./stim/MorphF7_04_orig.jpg,119,,,,,0,119,119,119,,,,,,,,,,,,,,,,,,,1.46484375,2.16796875,1,0,0,1.44001984596,,,,,2015_Sep_06_1320,A,facesParametric,6,59.6933288929,
./stim/MorphF4_00_orig.jpg,120,,,,,0,120,120,120,,,,,,,,,,,,,,,,,,,1.46484375,2.16796875,0,0,1,2.17749404907,,,,,2015_Sep_06_1320,A,facesParametric,6,59.6933288929,
./stim/MorphF9_07_orig.jpg,121,,,,,0,121,121,121,,,,,,,,,,,,,,,,,,,1.46484375,2.16796875,1,0,0,1.55758500099,,,,,2015_Sep_06_1320,A,facesParametric,6,59.6933288929,
./stim/MorphF4_05_orig.jpg,122,,,,,0,122,122,122,,,,,,,,,,,,,,,,,,,1.494140625,2.197265625,1,0,0,8.12633490562,,,,,2015_Sep_06_1320,A,facesParametric,6,59.6933288929,
./stim/MorphF5_10_orig.jpg,123,,,,,0,123,123,123,,,,,,,,,,,,,,,,,,,1.494140625,2.197265625,1,0,0,2.56146597862,,,,,2015_Sep_06_1320,A,facesParametric,6,59.6933288929,
./stim/MorphM9_06_orig.jpg,124,,,,,0,124,124,124,,,,,,,,,,,,,,,,,,,1.494140625,2.197265625,1,0,0,1.62189006805,,,,,2015_Sep_06_1320,A,facesParametric,6,59.6933288929,
./stim/MorphF1_00_orig.jpg,125,,,,,0,125,125,125,,,,,,,,,,,,,,,,,,,1.494140625,2.197265625,0,0,1,1.62437605858,,,,,2015_Sep_06_1320,A,facesParametric,6,59.6933288929,
./stim/MorphF5_07_orig.jpg,126,,,,,0,126,126,126,,,,,,,,,,,,,,,,,,,1.494140625,2.197265625,0,0,1,1.12064194679,,,,,2015_Sep_06_1320,A,facesParametric,6,59.6933288929,
./stim/MorphM6_06_orig.jpg,127,,,,,0,127,127,127,,,,,,,,,,,,,,,,,,,1.201171875,2.6953125,1,0,0,7.0879368782,,,,,2015_Sep_06_1320,A,facesParametric,6,59.6933288929,
./stim/MorphF2_00_orig.jpg,128,,,,,0,128,128,128,,,,,,,,,,,,,,,,,,,1.201171875,2.6953125,0,0,1,1.08714985847,,,,,2015_Sep_06_1320,A,facesParametric,6,59.6933288929,
./stim/MorphM6_03_orig.jpg,129,,,,,0,129,129,129,,,,,,,,,,,,,,,,,,,1.201171875,2.6953125,1,0,0,1.50719189644,,,,,2015_Sep_06_1320,A,facesParametric,6,59.6933288929,
./stim/MorphM3_04_orig.jpg,130,,,,,0,130,130,130,,,,,,,,,,,,,,,,,,,1.201171875,2.6953125,1,0,0,3.46852111816,,,,,2015_Sep_06_1320,A,facesParametric,6,59.6933288929,
./stim/MorphM8_01_orig.jpg,131,,,,,0,131,131,131,,,,,,,,,,,,,,,,,,,1.34765625,3.28125,1,0,0,8.76315784454,,,,,2015_Sep_06_1320,A,facesParametric,6,59.6933288929,
./stim/MorphM1_06_orig.jpg,132,,,,,0,132,132,132,,,,,,,,,,,,,,,,,,,1.34765625,3.28125,0,0,1,1.20373892784,,,,,2015_Sep_06_1320,A,facesParametric,6,59.6933288929,
./stim/MorphM2_09_orig.jpg,133,,,,,0,133,133,133,,,,,,,,,,,,,,,,,,,1.34765625,3.28125,1,0,0,2.24475908279,,,,,2015_Sep_06_1320,A,facesParametric,6,59.6933288929,
./stim/MorphF2_01_orig.jpg,134,,,,,0,134,134,134,,,,,,,,,,,,,,,,,,,1.34765625,3.28125,0,0,1,1.30523705482,,,,,2015_Sep_06_1320,A,facesParametric,6,59.6933288929,
./stim/MorphM5_01_orig.jpg,135,,,,,0,135,135,135,,,,,,,,,,,,,,,,,,,1.376953125,3.310546875,1,0,0,3.45050692558,,,,,2015_Sep_06_1320,A,facesParametric,6,59.6933288929,
./stim/MorphF8_03_orig.jpg,136,,,,,0,136,136,136,,,,,,,,,,,,,,,,,,,1.376953125,3.310546875,0,0,1,1.0859849453,,,,,2015_Sep_06_1320,A,facesParametric,6,59.6933288929,
./stim/MorphF10_03_orig.jpg,137,,,,,0,137,137,137,,,,,,,,,,,,,,,,,,,1.376953125,3.310546875,1,0,0,2.42897415161,,,,,2015_Sep_06_1320,A,facesParametric,6,59.6933288929,
./stim/MorphM7_09_orig.jpg,138,,,,,0,138,138,138,,,,,,,,,,,,,,,,,,,1.376953125,3.310546875,1,0,0,1.287525177,,,,,2015_Sep_06_1320,A,facesParametric,6,59.6933288929,
./stim/MorphM9_00_orig.jpg,139,,,,,0,139,139,139,,,,,,,,,,,,,,,,,,,1.376953125,3.310546875,0,0,1,2.7137799263,,,,,2015_Sep_06_1320,A,facesParametric,6,59.6933288929,
./stim/MorphM3_05_orig.jpg,140,,,,,0,140,140,140,,,,,,,,,,,,,,,,,,,1.376953125,3.310546875,1,0,0,0.987972974777,,,,,2015_Sep_06_1320,A,facesParametric,6,59.6933288929,
./stim/MorphM1_07_orig.jpg,141,,,,,0,141,141,141,,,,,,,,,,,,,,,,,,,1.376953125,3.310546875,0,0,1,1.22227406502,,,,,2015_Sep_06_1320,A,facesParametric,6,59.6933288929,
./stim/MorphM9_07_orig.jpg,142,,,,,0,142,142,142,,,,,,,,,,,,,,,,,,,1.376953125,3.310546875,1,0,0,2.19411802292,,,,,2015_Sep_06_1320,A,facesParametric,6,59.6933288929,
./stim/MorphF3_03_orig.jpg,143,,,,,0,143,143,143,,,,,,,,,,,,,,,,,,,1.376953125,3.310546875,0,0,1,2.71507501602,,,,,2015_Sep_06_1320,A,facesParametric,6,59.6933288929,
./stim/MorphF4_07_orig.jpg,144,,,,,0,144,144,144,,,,,,,,,,,,,,,,,,,1.435546875,3.33984375,1,0,0,4.64051198959,,,,,2015_Sep_06_1320,A,facesParametric,6,59.6933288929,
./stim/MorphM2_10_orig.jpg,145,,,,,0,145,145,145,,,,,,,,,,,,,,,,,,,1.435546875,3.33984375,1,0,0,1.27256202698,,,,,2015_Sep_06_1320,A,facesParametric,6,59.6933288929,
./stim/MorphF7_06_orig.jpg,146,,,,,0,146,146,146,,,,,,,,,,,,,,,,,,,1.435546875,3.33984375,1,0,0,1.99097800255,,,,,2015_Sep_06_1320,A,facesParametric,6,59.6933288929,
./stim/MorphM8_02_orig.jpg,147,,,,,0,147,147,147,,,,,,,,,,,,,,,,,,,1.435546875,3.33984375,1,0,0,0.920995950699,,,,,2015_Sep_06_1320,A,facesParametric,6,59.6933288929,
./stim/MorphF3_05_orig.jpg,148,,,,,0,148,148,148,,,,,,,,,,,,,,,,,,,1.435546875,3.33984375,0,0,1,0.752296924591,,,,,2015_Sep_06_1320,A,facesParametric,6,59.6933288929,
./stim/MorphF6_04_orig.jpg,149,,,,,0,149,149,149,,,,,,,,,,,,,,,,,,,1.46484375,3.369140625,0,0,1,1.22191882133,,,,,2015_Sep_06_1320,A,facesParametric,6,59.6933288929,
./stim/MorphM4_10_orig.jpg,150,,,,,0,150,150,150,,,,,,,,,,,,,,,,,,,1.46484375,3.369140625,1,0,0,1.82545208931,,,,,2015_Sep_06_1320,A,facesParametric,6,59.6933288929,
./stim/MorphF10_08_orig.jpg,151,,,,,0,151,151,151,,,,,,,,,,,,,,,,,,,1.46484375,3.369140625,1,0,0,0.837152004242,,,,,2015_Sep_06_1320,A,facesParametric,6,59.6933288929,
./stim/MorphF5_02_orig.jpg,152,,,,,0,152,152,152,,,,,,,,,,,,,,,,,,,1.46484375,3.369140625,1,0,0,5.82939386368,,,,,2015_Sep_06_1320,A,facesParametric,6,59.6933288929,
./stim/MorphF1_05_orig.jpg,153,,,,,0,153,153,153,,,,,,,,,,,,,,,,,,,1.494140625,3.45703125,0,0,1,3.41698408127,,,,,2015_Sep_06_1320,A,facesParametric,6,59.6933288929,
./stim/MorphF9_09_orig.jpg,154,,,,,0,154,154,154,,,,,,,,,,,,,,,,,,,1.552734375,3.720703125,1,0,0,11.8657081127,,,,,2015_Sep_06_1320,A,facesParametric,6,59.6933288929,
./stim/MorphF5_03_orig.jpg,155,,,,,0,155,155,155,,,,,,,,,,,,,,,,,,,4.072265625,-6.181640625,1,0,0,25.2382938862,,,,,2015_Sep_06_1320,A,facesParametric,6,59.6933288929,
./stim/MorphF4_03_orig.jpg,156,,,,,0,156,156,156,,,,,,,,,,,,,,,,,,,4.1015625,-5.80078125,1,0,0,2.19387292862,,,,,2015_Sep_06_1320,A,facesParametric,6,59.6933288929,
./stim/MorphF5_01_orig.jpg,157,,,,,0,157,157,157,,,,,,,,,,,,,,,,,,,4.130859375,-5.771484375,1,0,0,2.07555699348,,,,,2015_Sep_06_1320,A,facesParametric,6,59.6933288929,
./stim/MorphM1_01_orig.jpg,158,,,,,0,158,158,158,,,,,,,,,,,,,,,,,,,4.130859375,-5.771484375,0,0,1,0.886974096298,,,,,2015_Sep_06_1320,A,facesParametric,6,59.6933288929,
./stim/MorphF9_02_orig.jpg,159,,,,,0,159,159,159,,,,,,,,,,,,,,,,,,,4.130859375,-5.771484375,0,0,1,1.80886793137,,,,,2015_Sep_06_1320,A,facesParametric,6,59.6933288929,
./stim/MorphF2_02_orig.jpg,160,,,,,0,160,160,160,,,,,,,,,,,,,,,,,,,-3.779296875,-9.814453125,0,0,1,34.1028089523,,,,,2015_Sep_06_1320,A,facesParametric,6,59.6933288929,
./stim/MorphM8_10_orig.jpg,161,,,,,0,161,161,161,,,,,,,,,,,,,,,,,,,-3.837890625,-9.814453125,1,0,0,0.920760154724,,,,,2015_Sep_06_1320,A,facesParametric,6,59.6933288929,
./stim/MorphM1_10_orig.jpg,162,,,,,0,162,162,162,,,,,,,,,,,,,,,,,,,-3.837890625,-9.697265625,1,0,0,1.92614412308,,,,,2015_Sep_06_1320,A,facesParametric,6,59.6933288929,
./stim/MorphF10_04_orig.jpg,163,,,,,0,163,163,163,,,,,,,,,,,,,,,,,,,-3.80859375,-9.638671875,1,0,0,1.03630208969,,,,,2015_Sep_06_1320,A,facesParametric,6,59.6933288929,
./stim/MorphF3_00_orig.jpg,164,,,,,0,164,164,164,,,,,,,,,,,,,,,,,,,-3.80859375,-9.609375,0,0,1,1.94298005104,,,,,2015_Sep_06_1320,A,facesParametric,6,59.6933288929,
./stim/MorphM2_07_orig.jpg,165,,,,,0,165,165,165,,,,,,,,,,,,,,,,,,,-3.779296875,-9.55078125,1,0,0,1.03787493706,,,,,2015_Sep_06_1320,A,facesParametric,6,59.6933288929,
./stim/MorphF7_05_orig.jpg,166,,,,,0,166,166,166,,,,,,,,,,,,,,,,,,,-3.779296875,-9.55078125,1,0,0,1.2389190197,,,,,2015_Sep_06_1320,A,facesParametric,6,59.6933288929,
./stim/MorphF6_03_orig.jpg,167,,,,,0,167,167,167,,,,,,,,,,,,,,,,,,,-3.779296875,-9.55078125,0,0,1,1.15500497818,,,,,2015_Sep_06_1320,A,facesParametric,6,59.6933288929,
./stim/MorphF3_02_orig.jpg,168,,,,,0,168,168,168,,,,,,,,,,,,,,,,,,,-3.80859375,-9.43359375,0,0,1,0.853645086288,,,,,2015_Sep_06_1320,A,facesParametric,6,59.6933288929,
./stim/MorphF1_01_orig.jpg,169,,,,,0,169,169,169,,,,,,,,,,,,,,,,,,,-3.80859375,-9.111328125,0,0,1,1.87591505051,,,,,2015_Sep_06_1320,A,facesParametric,6,59.6933288929,
./stim/MorphM1_04_orig.jpg,170,,,,,0,170,170,170,,,,,,,,,,,,,,,,,,,-3.896484375,-9.052734375,0,0,1,0.970766067505,,,,,2015_Sep_06_1320,A,facesParametric,6,59.6933288929,
./stim/MorphF4_09_orig.jpg,171,,,,,0,171,171,171,,,,,,,,,,,,,,,,,,,-3.955078125,-8.994140625,1,0,0,1.25584697723,,,,,2015_Sep_06_1320,A,facesParametric,6,59.6933288929,
./stim/MorphM6_00_orig.jpg,172,,,,,0,172,172,172,,,,,,,,,,,,,,,,,,,-3.984375,-8.96484375,0,0,1,1.20418286324,,,,,2015_Sep_06_1320,A,facesParametric,6,59.6933288929,
./stim/MorphM5_09_orig.jpg,173,,,,,0,173,173,173,,,,,,,,,,,,,,,,,,,-3.984375,-8.994140625,1,0,0,1.47347712517,,,,,2015_Sep_06_1320,A,facesParametric,6,59.6933288929,
./stim/MorphF5_06_orig.jpg,174,,,,,0,174,174,174,,,,,,,,,,,,,,,,,,,-3.92578125,-8.818359375,1,0,0,1.1887960434,,,,,2015_Sep_06_1320,A,facesParametric,6,59.6933288929,
./stim/MorphF9_01_orig.jpg,175,,,,,0,175,175,175,,,,,,,,,,,,,,,,,,,-3.896484375,-8.701171875,0,0,1,2.73083782196,,,,,2015_Sep_06_1320,A,facesParametric,6,59.6933288929,
./stim/MorphM5_07_orig.jpg,176,,,,,0,176,176,176,,,,,,,,,,,,,,,,,,,-3.896484375,-8.701171875,1,0,0,0.819735050201,,,,,2015_Sep_06_1320,A,facesParametric,6,59.6933288929,
./stim/MorphM2_01_orig.jpg,177,,,,,0,177,177,177,,,,,,,,,,,,,,,,,,,-3.896484375,-8.701171875,0,0,1,1.25484704971,,,,,2015_Sep_06_1320,A,facesParametric,6,59.6933288929,
./stim/MorphM7_03_orig.jpg,178,,,,,0,178,178,178,,,,,,,,,,,,,,,,,,,-3.80859375,-8.642578125,1,0,0,3.92048597336,,,,,2015_Sep_06_1320,A,facesParametric,6,59.6933288929,
./stim/MorphM9_09_orig.jpg,179,,,,,0,179,179,179,,,,,,,,,,,,,,,,,,,-3.80859375,-8.466796875,1,0,0,1.45616197586,,,,,2015_Sep_06_1320,A,facesParametric,6,59.6933288929,
./stim/MorphF9_10_orig.jpg,180,,,,,0,180,180,180,,,,,,,,,,,,,,,,,,,-3.80859375,-8.466796875,1,0,0,0.887109994888,,,,,2015_Sep_06_1320,A,facesParametric,6,59.6933288929,
./stim/MorphF8_10_orig.jpg,181,,,,,0,181,181,181,,,,,,,,,,,,,,,,,,,-3.80859375,-8.4375,1,0,0,1.69136595726,,,,,2015_Sep_06_1320,A,facesParametric,6,59.6933288929,
./stim/MorphF10_10_orig.jpg,182,,,,,0,182,182,182,,,,,,,,,,,,,,,,,,,-3.80859375,-8.4375,1,0,0,0.669312000275,,,,,2015_Sep_06_1320,A,facesParametric,6,59.6933288929,
./stim/MorphM3_09_orig.jpg,183,,,,,0,183,183,183,,,,,,,,,,,,,,,,,,,-3.779296875,-8.408203125,1,0,0,0.818166971207,,,,,2015_Sep_06_1320,A,facesParametric,6,59.6933288929,
./stim/MorphF10_05_orig.jpg,184,,,,,0,184,184,184,,,,,,,,,,,,,,,,,,,-3.779296875,-8.408203125,1,0,0,0.669811010361,,,,,2015_Sep_06_1320,A,facesParametric,6,59.6933288929,
./stim/MorphF6_00_orig.jpg,185,,,,,0,185,185,185,,,,,,,,,,,,,,,,,,,-3.779296875,-8.408203125,0,0,1,0.835995912552,,,,,2015_Sep_06_1320,A,facesParametric,6,59.6933288929,
./stim/MorphF8_08_orig.jpg,186,,,,,0,186,186,186,,,,,,,,,,,,,,,,,,,-3.80859375,-8.37890625,1,0,0,2.4122838974,,,,,2015_Sep_06_1320,A,facesParametric,6,59.6933288929,
./stim/MorphF7_10_orig.jpg,187,,,,,0,187,187,187,,,,,,,,,,,,,,,,,,,-3.80859375,-8.37890625,1,0,0,1.104129076,,,,,2015_Sep_06_1320,A,facesParametric,6,59.6933288929,
./stim/MorphM9_10_orig.jpg,188,,,,,0,188,188,188,,,,,,,,,,,,,,,,,,,-3.80859375,-8.37890625,1,0,0,0.886956930161,,,,,2015_Sep_06_1320,A,facesParametric,6,59.6933288929,
./stim/MorphM10_05_orig.jpg,189,,,,,0,189,189,189,,,,,,,,,,,,,,,,,,,-3.80859375,-8.37890625,1,0,0,0.870371103287,,,,,2015_Sep_06_1320,A,facesParametric,6,59.6933288929,
./stim/MorphM8_03_orig.jpg,190,,,,,0,190,190,190,,,,,,,,,,,,,,,,,,,-3.80859375,-8.37890625,0,0,1,1.2387611866,,,,,2015_Sep_06_1320,A,facesParametric,6,59.6933288929,
./stim/MorphF2_10_orig.jpg,191,,,,,0,191,191,191,,,,,,,,,,,,,,,,,,,-3.80859375,-8.37890625,1,0,0,1.27268004417,,,,,2015_Sep_06_1320,A,facesParametric,6,59.6933288929,
./stim/MorphM1_02_orig.jpg,192,,,,,0,192,192,192,,,,,,,,,,,,,,,,,,,-3.80859375,-8.37890625,0,0,1,2.88145709038,,,,,2015_Sep_06_1320,A,facesParametric,6,59.6933288929,
./stim/MorphM4_09_orig.jpg,193,,,,,0,193,193,193,,,,,,,,,,,,,,,,,,,-3.80859375,-8.37890625,1,0,0,1.59076595306,,,,,2015_Sep_06_1320,A,facesParametric,6,59.6933288929,
./stim/MorphM8_07_orig.jpg,194,,,,,0,194,194,194,,,,,,,,,,,,,,,,,,,-3.80859375,-8.37890625,1,0,0,2.32853889465,,,,,2015_Sep_06_1320,A,facesParametric,6,59.6933288929,
./stim/MorphM1_08_orig.jpg,195,,,,,0,195,195,195,,,,,,,,,,,,,,,,,,,-3.80859375,-8.37890625,1,0,0,4.64006090164,,,,,2015_Sep_06_1320,A,facesParametric,6,59.6933288929,
./stim/MorphF4_08_orig.jpg,196,,,,,0,196,196,196,,,,,,,,,,,,,,,,,,,-3.80859375,-8.37890625,1,0,0,0.585063934326,,,,,2015_Sep_06_1320,A,facesParametric,6,59.6933288929,
./stim/MorphM9_04_orig.jpg,197,,,,,0,197,197,197,,,,,,,,,,,,,,,,,,,-3.837890625,-8.37890625,0,0,1,2.02510380745,,,,,2015_Sep_06_1320,A,facesParametric,6,59.6933288929,
./stim/MorphF1_09_orig.jpg,198,,,,,0,198,198,198,,,,,,,,,,,,,,,,,,,-3.837890625,-8.37890625,0,0,1,0.884793043137,,,,,2015_Sep_06_1320,A,facesParametric,6,59.6933288929,
./stim/MorphM9_08_orig.jpg,199,,,,,0,199,199,199,,,,,,,,,,,,,,,,,,,-3.837890625,-8.37890625,1,0,0,0.769766807556,,,,,2015_Sep_06_1320,A,facesParametric,6,59.6933288929,
./stim/MorphF10_01_orig.jpg,200,,,,,0,200,200,200,,,,,,,,,,,,,,,,,,,-3.8671875,-8.349609375,1,0,0,2.71202111244,,,,,2015_Sep_06_1320,A,facesParametric,6,59.6933288929,
./stim/MorphM10_00_orig.jpg,201,,,,,0,201,201,201,,,,,,,,,,,,,,,,,,,-3.8671875,-8.349609375,0,0,1,2.11055898666,,,,,2015_Sep_06_1320,A,facesParametric,6,59.6933288929,
./stim/MorphM2_00_orig.jpg,202,,,,,0,202,202,202,,,,,,,,,,,,,,,,,,,-3.8671875,-8.26171875,0,0,1,1.3227930069,,,,,2015_Sep_06_1320,A,facesParametric,6,59.6933288929,
./stim/MorphM9_01_orig.jpg,203,,,,,0,203,203,203,,,,,,,,,,,,,,,,,,,-3.8671875,-8.232421875,0,0,1,1.57381010056,,,,,2015_Sep_06_1320,A,facesParametric,6,59.6933288929,
./stim/MorphF7_09_orig.jpg,204,,,,,0,204,204,204,,,,,,,,,,,,,,,,,,,-3.8671875,-8.232421875,1,0,0,0.669533014297,,,,,2015_Sep_06_1320,A,facesParametric,6,59.6933288929,
./stim/MorphF9_00_orig.jpg,205,,,,,0,205,205,205,,,,,,,,,,,,,,,,,,,-3.8671875,-8.232421875,0,0,1,2.72849011421,,,,,2015_Sep_06_1320,A,facesParametric,6,59.6933288929,
./stim/MorphM2_02_orig.jpg,206,,,,,0,206,206,206,,,,,,,,,,,,,,,,,,,-3.8671875,-8.232421875,0,0,1,0.768059015274,,,,,2015_Sep_06_1320,A,facesParametric,6,59.6933288929,
./stim/MorphF8_05_orig.jpg,207,,,,,0,207,207,207,,,,,,,,,,,,,,,,,,,-3.8671875,-8.232421875,1,0,0,3.41698408127,,,,,2015_Sep_06_1320,A,facesParametric,6,59.6933288929,
./stim/MorphF3_09_orig.jpg,208,,,,,0,208,208,208,,,,,,,,,,,,,,,,,,,-3.8671875,-8.232421875,1,0,0,0.81998705864,,,,,2015_Sep_06_1320,A,facesParametric,6,59.6933288929,
./stim/MorphM5_10_orig.jpg,209,,,,,0,209,209,209,,,,,,,,,,,,,,,,,,,-3.8671875,-8.232421875,1,0,0,0.752706050873,,,,,2015_Sep_06_1320,A,facesParametric,6,59.6933288929,
./stim/MorphM8_08_orig.jpg,210,,,,,0,210,210,210,,,,,,,,,,,,,,,,,,,-3.8671875,-8.232421875,1,0,0,0.987821102142,,,,,2015_Sep_06_1320,A,facesParametric,6,59.6933288929,
./stim/MorphM3_07_orig.jpg,211,,,,,0,211,211,211,,,,,,,,,,,,,,,,,,,-3.8671875,-8.232421875,1,0,0,1.15539908409,,,,,2015_Sep_06_1320,A,facesParametric,6,59.6933288929,
./stim/MorphM5_06_orig.jpg,212,,,,,0,212,212,212,,,,,,,,,,,,,,,,,,,-3.8671875,-8.232421875,1,0,0,0.903818130493,,,,,2015_Sep_06_1320,A,facesParametric,6,59.6933288929,
./stim/MorphF5_09_orig.jpg,213,,,,,0,213,213,213,,,,,,,,,,,,,,,,,,,-3.8671875,-8.203125,1,0,0,1.18736314774,,,,,2015_Sep_06_1320,A,facesParametric,6,59.6933288929,
./stim/MorphF8_06_orig.jpg,214,,,,,0,214,214,214,,,,,,,,,,,,,,,,,,,-3.8671875,-8.203125,1,0,0,1.28899908066,,,,,2015_Sep_06_1320,A,facesParametric,6,59.6933288929,
./stim/MorphF5_04_orig.jpg,215,,,,,0,215,215,215,,,,,,,,,,,,,,,,,,,-3.8671875,-8.203125,0,0,1,2.39429688454,,,,,2015_Sep_06_1320,A,facesParametric,6,59.6933288929,
./stim/MorphM2_04_orig.jpg,216,,,,,0,216,216,216,,,,,,,,,,,,,,,,,,,-3.8671875,-8.173828125,0,0,1,0.903779029846,,,,,2015_Sep_06_1320,A,facesParametric,6,59.6933288929,
./stim/MorphF2_05_orig.jpg,217,,,,,0,217,217,217,,,,,,,,,,,,,,,,,,,-3.896484375,-8.14453125,1,0,0,0.987619876862,,,,,2015_Sep_06_1320,A,facesParametric,6,59.6933288929,
./stim/MorphM7_01_orig.jpg,218,,,,,0,218,218,218,,,,,,,,,,,,,,,,,,,-3.896484375,-8.14453125,1,0,0,1.64142203331,,,,,2015_Sep_06_1320,A,facesParametric,6,59.6933288929,
./stim/MorphF10_09_orig.jpg,219,,,,,0,219,219,219,,,,,,,,,,,,,,,,,,,-3.896484375,-8.14453125,1,0,0,0.635584831238,,,,,2015_Sep_06_1320,A,facesParametric,6,59.6933288929,
,,,,,,,,,,,,,,,,,,,,,,,,,,,,,,,,,,return,2.19563603401,,,2015_Sep_06_1320,A,facesParametric,6,59.6933288929,
./stim/MorphM6_10_orig.jpg,0,,,,,,,,,0,0,0,0,,,,,,,,,,,,,,,20.0390625,3.779296875,1,0,0,3.27238702774,,,,,2015_Sep_06_1320,A,facesParametric,6,59.6933288929,
./stim/MorphF9_04_orig.jpg,1,,,,,,,,,0,1,1,1,,,,,,,,,,,,,,,19.98046875,3.896484375,0,0,1,5.54613614082,,,,,2015_Sep_06_1320,A,facesParametric,6,59.6933288929,
./stim/MorphM3_03_orig.jpg,2,,,,,,,,,0,2,2,2,,,,,,,,,,,,,,,20.068359375,4.130859375,0,0,1,1.50703001022,,,,,2015_Sep_06_1320,A,facesParametric,6,59.6933288929,
./stim/MorphM1_00_orig.jpg,3,,,,,,,,,0,3,3,3,,,,,,,,,,,,,,,20.09765625,4.27734375,0,0,1,2.14405083656,,,,,2015_Sep_06_1320,A,facesParametric,6,59.6933288929,
./stim/MorphM6_09_orig.jpg,4,,,,,,,,,0,4,4,4,,,,,,,,,,,,,,,20.09765625,4.3359375,1,0,0,1.55654287338,,,,,2015_Sep_06_1320,A,facesParametric,6,59.6933288929,
./stim/MorphM10_02_orig.jpg,5,,,,,,,,,0,5,5,5,,,,,,,,,,,,,,,20.09765625,4.365234375,0,0,1,1.59061288834,,,,,2015_Sep_06_1320,A,facesParametric,6,59.6933288929,
./stim/MorphM3_06_orig.jpg,6,,,,,,,,,0,6,6,6,,,,,,,,,,,,,,,20.09765625,4.39453125,1,0,0,0.719598054886,,,,,2015_Sep_06_1320,A,facesParametric,6,59.6933288929,
./stim/MorphM7_08_orig.jpg,7,,,,,,,,,0,7,7,7,,,,,,,,,,,,,,,20.09765625,4.423828125,1,0,0,0.685886859894,,,,,2015_Sep_06_1320,A,facesParametric,6,59.6933288929,
./stim/MorphM6_04_orig.jpg,8,,,,,,,,,0,8,8,8,,,,,,,,,,,,,,,20.126953125,4.541015625,0,0,1,1.12222719193,,,,,2015_Sep_06_1320,A,facesParametric,6,59.6933288929,
./stim/MorphM2_05_orig.jpg,9,,,,,,,,,0,9,9,9,,,,,,,,,,,,,,,20.126953125,4.541015625,0,0,1,2.91490197182,,,,,2015_Sep_06_1320,A,facesParametric,6,59.6933288929,
./stim/MorphM3_01_orig.jpg,10,,,,,,,,,0,10,10,10,,,,,,,,,,,,,,,20.126953125,4.5703125,0,0,1,5.2611348629,,,,,2015_Sep_06_1320,A,facesParametric,6,59.6933288929,
./stim/MorphF1_03_orig.jpg,11,,,,,,,,,0,11,11,11,,,,,,,,,,,,,,,20.126953125,4.5703125,0,0,1,1.12079501152,,,,,2015_Sep_06_1320,A,facesParametric,6,59.6933288929,
./stim/MorphF8_09_orig.jpg,12,,,,,,,,,0,12,12,12,,,,,,,,,,,,,,,20.126953125,4.5703125,1,0,0,0.953892946243,,,,,2015_Sep_06_1320,A,facesParametric,6,59.6933288929,
./stim/MorphF3_01_orig.jpg,13,,,,,,,,,0,13,13,13,,,,,,,,,,,,,,,20.126953125,4.5703125,0,0,1,1.75870895386,,,,,2015_Sep_06_1320,A,facesParametric,6,59.6933288929,
./stim/MorphF7_03_orig.jpg,14,,,,,,,,,0,14,14,14,,,,,,,,,,,,,,,20.126953125,4.5703125,0,0,1,2.36175489426,,,,,2015_Sep_06_1320,A,facesParametric,6,59.6933288929,
./stim/MorphM1_05_orig.jpg,15,,,,,,,,,0,15,15,15,,,,,,,,,,,,,,,23.26171875,-5.302734375,0,0,1,6.80344986916,,,,,2015_Sep_06_1320,A,facesParametric,6,59.6933288929,
./stim/MorphM5_08_orig.jpg,16,,,,,,,,,0,16,16,16,,,,,,,,,,,,,,,23.173828125,-5.126953125,1,0,0,0.803066015244,,,,,2015_Sep_06_1320,A,facesParametric,6,59.6933288929,
./stim/MorphF7_01_orig.jpg,17,,,,,,,,,0,17,17,17,,,,,,,,,,,,,,,23.203125,-4.921875,0,0,1,3.83632111549,,,,,2015_Sep_06_1320,A,facesParametric,6,59.6933288929,
./stim/MorphF1_10_orig.jpg,18,,,,,,,,,0,18,18,18,,,,,,,,,,,,,,,23.203125,-4.892578125,0,0,1,1.38859581947,,,,,2015_Sep_06_1320,A,facesParametric,6,59.6933288929,
./stim/MorphF9_06_orig.jpg,19,,,,,,,,,0,19,19,19,,,,,,,,,,,,,,,-21.85546875,2.138671875,0,0,1,8.09381389618,,,,,2015_Sep_06_1320,A,facesParametric,6,59.6933288929,
./stim/MorphM4_00_orig.jpg,20,,,,,,,,,0,20,20,20,,,,,,,,,,,,,,,-21.884765625,2.2265625,0,0,1,2.96513700485,,,,,2015_Sep_06_1320,A,facesParametric,6,59.6933288929,
./stim/MorphM10_08_orig.jpg,21,,,,,,,,,0,21,21,21,,,,,,,,,,,,,,,-21.884765625,2.2265625,1,0,0,1.22062802315,,,,,2015_Sep_06_1320,A,facesParametric,6,59.6933288929,
./stim/MorphF8_07_orig.jpg,22,,,,,,,,,0,22,22,22,,,,,,,,,,,,,,,-21.884765625,2.255859375,1,0,0,2.51225996017,,,,,2015_Sep_06_1320,A,facesParametric,6,59.6933288929,
./stim/MorphF6_02_orig.jpg,23,,,,,,,,,0,23,23,23,,,,,,,,,,,,,,,-21.85546875,2.28515625,0,0,1,1.22170996666,,,,,2015_Sep_06_1320,A,facesParametric,6,59.6933288929,
./stim/MorphM2_08_orig.jpg,24,,,,,,,,,0,24,24,24,,,,,,,,,,,,,,,-21.85546875,2.28515625,1,0,0,1.55758500099,,,,,2015_Sep_06_1320,A,facesParametric,6,59.6933288929,
./stim/MorphF9_05_orig.jpg,25,,,,,,,,,0,25,25,25,,,,,,,,,,,,,,,-21.767578125,2.34375,0,0,1,4.50654697418,,,,,2015_Sep_06_1320,A,facesParametric,6,59.6933288929,
./stim/MorphF1_08_orig.jpg,26,,,,,,,,,0,26,26,26,,,,,,,,,,,,,,,-21.73828125,2.34375,0,0,1,0.86834192276,,,,,2015_Sep_06_1320,A,facesParametric,6,59.6933288929,
./stim/MorphF6_09_orig.jpg,27,,,,,,,,,0,27,27,27,,,,,,,,,,,,,,,-21.708984375,2.314453125,1,0,0,1.00334882736,,,,,2015_Sep_06_1320,A,facesParametric,6,59.6933288929,
./stim/MorphF2_09_orig.jpg,28,,,,,,,,,0,28,28,28,,,,,,,,,,,,,,,-21.708984375,2.314453125,1,0,0,0.853391170502,,,,,2015_Sep_06_1320,A,facesParametric,6,59.6933288929,
./stim/MorphF1_04_orig.jpg,29,,,,,,,,,0,29,29,29,,,,,,,,,,,,,,,-21.708984375,2.314453125,0,0,1,1.05307006836,,,,,2015_Sep_06_1320,A,facesParametric,6,59.6933288929,
./stim/MorphM4_06_orig.jpg,30,,,,,,,,,0,30,30,30,,,,,,,,,,,,,,,-21.73828125,2.373046875,1,0,0,6.80213594437,,,,,2015_Sep_06_1320,A,facesParametric,6,59.6933288929,
./stim/MorphM5_04_orig.jpg,31,,,,,,,,,0,31,31,31,,,,,,,,,,,,,,,-21.767578125,2.40234375,0,0,1,1.68989920616,,,,,2015_Sep_06_1320,A,facesParametric,6,59.6933288929,
./stim/MorphF10_02_orig.jpg,32,,,,,,,,,0,32,32,32,,,,,,,,,,,,,,,-21.767578125,2.40234375,0,0,1,3.73617291451,,,,,2015_Sep_06_1320,A,facesParametric,6,59.6933288929,
./stim/MorphF6_05_orig.jpg,33,,,,,,,,,0,33,33,33,,,,,,,,,,,,,,,-21.796875,2.431640625,0,0,1,3.80307388306,,,,,2015_Sep_06_1320,A,facesParametric,6,59.6933288929,
./stim/MorphF8_01_orig.jpg,34,,,,,,,,,0,34,34,34,,,,,,,,,,,,,,,-21.796875,2.431640625,0,0,1,1.12190008163,,,,,2015_Sep_06_1320,A,facesParametric,6,59.6933288929,
./stim/MorphM2_06_orig.jpg,35,,,,,,,,,0,35,35,35,,,,,,,,,,,,,,,-21.796875,2.431640625,0,0,1,1.33957719803,,,,,2015_Sep_06_1320,A,facesParametric,6,59.6933288929,
./stim/MorphM9_02_orig.jpg,36,,,,,,,,,0,36,36,36,,,,,,,,,,,,,,,-21.796875,2.431640625,0,0,1,1.07110309601,,,,,2015_Sep_06_1320,A,facesParametric,6,59.6933288929,
./stim/MorphM5_03_orig.jpg,37,,,,,,,,,0,37,37,37,,,,,,,,,,,,,,,-21.73828125,2.4609375,0,0,1,4.80897784233,,,,,2015_Sep_06_1320,A,facesParametric,6,59.6933288929,
./stim/MorphM4_01_orig.jpg,38,,,,,,,,,0,38,38,38,,,,,,,,,,,,,,,-21.73828125,2.4609375,0,0,1,1.2049601078,,,,,2015_Sep_06_1320,A,facesParametric,6,59.6933288929,
./stim/MorphM6_05_orig.jpg,39,,,,,,,,,0,39,39,39,,,,,,,,,,,,,,,-20.56640625,2.255859375,0,0,1,5.31133103371,,,,,2015_Sep_06_1320,A,facesParametric,6,59.6933288929,
./stim/MorphF4_02_orig.jpg,40,,,,,,,,,0,40,40,40,,,,,,,,,,,,,,,-20.56640625,2.4609375,0,0,1,0.903414964676,,,,,2015_Sep_06_1320,A,facesParametric,6,59.6933288929,
./stim/MorphM9_03_orig.jpg,41,,,,,,,,,0,41,41,41,,,,,,,,,,,,,,,-20.56640625,2.4609375,0,0,1,0.686263084412,,,,,2015_Sep_06_1320,A,facesParametric,6,59.6933288929,
./stim/MorphF4_06_orig.jpg,42,,,,,,,,,0,42,42,42,,,,,,,,,,,,,,,-20.56640625,2.51953125,1,0,0,0.887252807617,,,,,2015_Sep_06_1320,A,facesParametric,6,59.6933288929,
./stim/MorphF5_00_orig.jpg,43,,,,,,,,,0,43,43,43,,,,,,,,,,,,,,,-20.56640625,2.548828125,0,0,1,1.07107996941,,,,,2015_Sep_06_1320,A,facesParametric,6,59.6933288929,
./stim/MorphM7_04_orig.jpg,44,,,,,,,,,0,44,44,44,,,,,,,,,,,,,,,-20.56640625,2.578125,1,0,0,1.13877415657,,,,,2015_Sep_06_1320,A,facesParametric,6,59.6933288929,
./stim/MorphF1_07_orig.jpg,45,,,,,,,,,0,45,45,45,,,,,,,,,,,,,,,-20.56640625,2.578125,0,0,1,0.870252132416,,,,,2015_Sep_06_1320,A,facesParametric,6,59.6933288929,
./stim/MorphF7_02_orig.jpg,46,,,,,,,,,0,46,46,46,,,,,,,,,,,,,,,-20.56640625,2.578125,0,0,1,1.5405459404,,,,,2015_Sep_06_1320,A,facesParametric,6,59.6933288929,
./stim/MorphF3_08_orig.jpg,47,,,,,,,,,0,47,47,47,,,,,,,,,,,,,,,-20.56640625,2.578125,1,0,0,1.89273095131,,,,,2015_Sep_06_1320,A,facesParametric,6,59.6933288929,
./stim/MorphM4_03_orig.jpg,48,,,,,,,,,0,48,48,48,,,,,,,,,,,,,,,-20.56640625,2.666015625,1,0,0,1.64111709595,,,,,2015_Sep_06_1320,A,facesParametric,6,59.6933288929,
./stim/MorphM7_05_orig.jpg,49,,,,,,,,,0,49,49,49,,,,,,,,,,,,,,,-20.537109375,2.6953125,1,0,0,0.870260000229,,,,,2015_Sep_06_1320,A,facesParametric,6,59.6933288929,
./stim/MorphM4_08_orig.jpg,50,,,,,,,,,0,50,50,50,,,,,,,,,,,,,,,-20.537109375,2.6953125,1,0,0,1.2389318943,,,,,2015_Sep_06_1320,A,facesParametric,6,59.6933288929,
./stim/MorphM2_03_orig.jpg,51,,,,,,,,,0,51,51,51,,,,,,,,,,,,,,,-20.5078125,2.724609375,0,0,1,1.65787291527,,,,,2015_Sep_06_1320,A,facesParametric,6,59.6933288929,
./stim/MorphF3_10_orig.jpg,52,,,,,,,,,0,52,52,52,,,,,,,,,,,,,,,-20.5078125,2.75390625,1,0,0,2.19420289993,,,,,2015_Sep_06_1320,A,facesParametric,6,59.6933288929,
./stim/MorphF6_08_orig.jpg,53,,,,,,,,,0,53,53,53,,,,,,,,,,,,,,,-20.478515625,2.783203125,1,0,0,2.83117604256,,,,,2015_Sep_06_1320,A,facesParametric,6,59.6933288929,
./stim/MorphM3_10_orig.jpg,54,,,,,,,,,0,54,54,54,,,,,,,,,,,,,,,-20.478515625,2.783203125,1,0,0,0.854012966156,,,,,2015_Sep_06_1320,A,facesParametric,6,59.6933288929,
./stim/MorphM10_03_orig.jpg,55,,,,,,,,,0,55,55,55,,,,,,,,,,,,,,,-20.478515625,2.783203125,0,0,1,5.17679190636,,,,,2015_Sep_06_1320,A,facesParametric,6,59.6933288929,
./stim/MorphF2_03_orig.jpg,56,,,,,,,,,0,56,56,56,,,,,,,,,,,,,,,-20.478515625,2.783203125,0,0,1,4.05464601517,,,,,2015_Sep_06_1320,A,facesParametric,6,59.6933288929,
./stim/MorphM7_10_orig.jpg,57,,,,,,,,,0,57,57,57,,,,,,,,,,,,,,,-20.44921875,2.8125,1,0,0,1.44013905525,,,,,2015_Sep_06_1320,A,facesParametric,6,59.6933288929,
./stim/MorphF8_00_orig.jpg,58,,,,,,,,,0,58,58,58,,,,,,,,,,,,,,,-20.419921875,2.841796875,0,0,1,1.22025299072,,,,,2015_Sep_06_1320,A,facesParametric,6,59.6933288929,
./stim/MorphF7_07_orig.jpg,59,,,,,,,,,0,59,59,59,,,,,,,,,,,,,,,-20.478515625,2.958984375,0,0,1,3.66747999191,,,,,2015_Sep_06_1320,A,facesParametric,6,59.6933288929,
./stim/MorphM8_09_orig.jpg,60,,,,,,,,,0,60,60,60,,,,,,,,,,,,,,,-20.478515625,2.98828125,1,0,0,0.853667020798,,,,,2015_Sep_06_1320,A,facesParametric,6,59.6933288929,
./stim/MorphF5_08_orig.jpg,61,,,,,,,,,0,61,61,61,,,,,,,,,,,,,,,-20.5078125,3.017578125,1,0,0,0.803176879883,,,,,2015_Sep_06_1320,A,facesParametric,6,59.6933288929,
./stim/MorphM8_00_orig.jpg,62,,,,,,,,,0,62,62,62,,,,,,,,,,,,,,,-20.5078125,3.017578125,0,0,1,0.970599889755,,,,,2015_Sep_06_1320,A,facesParametric,6,59.6933288929,
./stim/MorphF4_04_orig.jpg,63,,,,,,,,,0,63,63,63,,,,,,,,,,,,,,,-20.537109375,2.98828125,0,0,1,2.01017808914,,,,,2015_Sep_06_1320,A,facesParametric,6,59.6933288929,
./stim/MorphM8_05_orig.jpg,64,,,,,,,,,0,64,64,64,,,,,,,,,,,,,,,-20.537109375,2.98828125,0,0,1,0.736264944077,,,,,2015_Sep_06_1320,A,facesParametric,6,59.6933288929,
./stim/MorphM1_09_orig.jpg,65,,,,,,,,,0,65,65,65,,,,,,,,,,,,,,,-20.595703125,2.958984375,1,0,0,5.71377515793,,,,,2015_Sep_06_1320,A,facesParametric,6,59.6933288929,
./stim/MorphF8_04_orig.jpg,66,,,,,,,,,0,66,66,66,,,,,,,,,,,,,,,-20.625,2.98828125,0,0,1,1.20523405075,,,,,2015_Sep_06_1320,A,facesParametric,6,59.6933288929,
./stim/MorphM10_07_orig.jpg,67,,,,,,,,,0,67,67,67,,,,,,,,,,,,,,,-20.712890625,2.958984375,1,0,0,1.33869290352,,,,,2015_Sep_06_1320,A,facesParametric,6,59.6933288929,
./stim/MorphM5_05_orig.jpg,68,,,,,,,,,0,68,68,68,,,,,,,,,,,,,,,-20.712890625,2.958984375,0,0,1,2.86430907249,,,,,2015_Sep_06_1320,A,facesParametric,6,59.6933288929,
./stim/MorphM3_02_orig.jpg,69,,,,,,,,,0,69,69,69,,,,,,,,,,,,,,,-20.712890625,2.958984375,0,0,1,2.06037402153,,,,,2015_Sep_06_1320,A,facesParametric,6,59.6933288929,
./stim/MorphF2_08_orig.jpg,70,,,,,,,,,0,70,70,70,,,,,,,,,,,,,,,-20.712890625,2.958984375,1,0,0,0.935157060623,,,,,2015_Sep_06_1320,A,facesParametric,6,59.6933288929,
./stim/MorphM5_00_orig.jpg,71,,,,,,,,,0,71,71,71,,,,,,,,,,,,,,,-20.712890625,2.958984375,0,0,1,0.77032995224,,,,,2015_Sep_06_1320,A,facesParametric,6,59.6933288929,
./stim/MorphF6_07_orig.jpg,72,,,,,,,,,0,72,72,72,,,,,,,,,,,,,,,-20.712890625,2.958984375,0,0,1,4.10441088676,,,,,2015_Sep_06_1320,A,facesParametric,6,59.6933288929,
./stim/MorphM7_07_orig.jpg,73,,,,,,,,,0,73,73,73,,,,,,,,,,,,,,,-20.712890625,2.958984375,1,0,0,0.820183038712,,,,,2015_Sep_06_1320,A,facesParametric,6,59.6933288929,
./stim/MorphM4_05_orig.jpg,74,,,,,,,,,0,74,74,74,,,,,,,,,,,,,,,-20.712890625,2.958984375,1,0,0,2.22767710686,,,,,2015_Sep_06_1320,A,facesParametric,6,59.6933288929,
./stim/MorphF1_02_orig.jpg,75,,,,,,,,,0,75,75,75,,,,,,,,,,,,,,,-20.712890625,2.958984375,0,0,1,0.752732992172,,,,,2015_Sep_06_1320,A,facesParametric,6,59.6933288929,
./stim/MorphM1_03_orig.jpg,76,,,,,,,,,0,76,76,76,,,,,,,,,,,,,,,-20.712890625,2.958984375,0,0,1,1.60648202896,,,,,2015_Sep_06_1320,A,facesParametric,6,59.6933288929,
./stim/MorphM6_01_orig.jpg,77,,,,,,,,,0,77,77,77,,,,,,,,,,,,,,,-20.712890625,2.958984375,0,0,1,1.18850398064,,,,,2015_Sep_06_1320,A,facesParametric,6,59.6933288929,
./stim/MorphF5_05_orig.jpg,78,,,,,,,,,0,78,78,78,,,,,,,,,,,,,,,-20.712890625,2.958984375,0,0,1,1.17211914062,,,,,2015_Sep_06_1320,A,facesParametric,6,59.6933288929,
./stim/MorphF4_10_orig.jpg,79,,,,,,,,,0,79,79,79,,,,,,,,,,,,,,,-20.712890625,2.958984375,1,0,0,1.472178936,,,,,2015_Sep_06_1320,A,facesParametric,6,59.6933288929,
./stim/MorphF9_03_orig.jpg,80,,,,,,,,,0,80,80,80,,,,,,,,,,,,,,,-20.68359375,2.958984375,0,0,1,2.76426410675,,,,,2015_Sep_06_1320,A,facesParametric,6,59.6933288929,
./stim/MorphM8_04_orig.jpg,81,,,,,,,,,0,81,81,81,,,,,,,,,,,,,,,-20.654296875,2.98828125,1,0,0,1.35425710678,,,,,2015_Sep_06_1320,A,facesParametric,6,59.6933288929,
./stim/MorphF2_04_orig.jpg,82,,,,,,,,,0,82,82,82,,,,,,,,,,,,,,,-20.654296875,2.98828125,0,0,1,3.51839780807,,,,,2015_Sep_06_1320,A,facesParametric,6,59.6933288929,
./stim/MorphM10_01_orig.jpg,83,,,,,,,,,0,83,83,83,,,,,,,,,,,,,,,-20.654296875,2.98828125,0,0,1,1.05500817299,,,,,2015_Sep_06_1320,A,facesParametric,6,59.6933288929,
./stim/MorphF6_10_orig.jpg,84,,,,,,,,,0,84,84,84,,,,,,,,,,,,,,,-20.654296875,2.98828125,1,0,0,1.10423517227,,,,,2015_Sep_06_1320,A,facesParametric,6,59.6933288929,
./stim/MorphF10_00_orig.jpg,85,,,,,,,,,0,85,85,85,,,,,,,,,,,,,,,-20.654296875,2.98828125,0,0,1,1.13835406303,,,,,2015_Sep_06_1320,A,facesParametric,6,59.6933288929,
./stim/MorphM10_04_orig.jpg,86,,,,,,,,,0,86,86,86,,,,,,,,,,,,,,,-19.775390625,3.779296875,0,0,1,12.4011700153,,,,,2015_Sep_06_1320,A,facesParametric,6,59.6933288929,
./stim/MorphM4_07_orig.jpg,87,,,,,,,,,0,87,87,87,,,,,,,,,,,,,,,-19.775390625,3.75,1,0,0,1.27230715752,,,,,2015_Sep_06_1320,A,facesParametric,6,59.6933288929,
./stim/MorphF10_07_orig.jpg,88,,,,,,,,,0,88,88,88,,,,,,,,,,,,,,,-19.775390625,3.75,1,0,0,1.13857102394,,,,,2015_Sep_06_1320,A,facesParametric,6,59.6933288929,
./stim/MorphF8_02_orig.jpg,89,,,,,,,,,0,89,89,89,,,,,,,,,,,,,,,-19.775390625,3.75,0,0,1,0.903805971146,,,,,2015_Sep_06_1320,A,facesParametric,6,59.6933288929,
./stim/MorphM10_06_orig.jpg,90,,,,,,,,,0,90,90,90,,,,,,,,,,,,,,,-19.775390625,3.75,1,0,0,0.886683940887,,,,,2015_Sep_06_1320,A,facesParametric,6,59.6933288929,
./stim/MorphF6_06_orig.jpg,91,,,,,,,,,0,91,91,91,,,,,,,,,,,,,,,-19.74609375,3.779296875,0,0,1,1.27055215836,,,,,2015_Sep_06_1320,A,facesParametric,6,59.6933288929,
./stim/MorphF2_07_orig.jpg,92,,,,,,,,,0,92,92,92,,,,,,,,,,,,,,,-19.74609375,3.779296875,1,0,0,1.02101898193,,,,,2015_Sep_06_1320,A,facesParametric,6,59.6933288929,
./stim/MorphF3_04_orig.jpg,93,,,,,,,,,0,93,93,93,,,,,,,,,,,,,,,-19.716796875,3.80859375,0,0,1,0.801151990891,,,,,2015_Sep_06_1320,A,facesParametric,6,59.6933288929,
./stim/MorphM10_10_orig.jpg,94,,,,,,,,,0,94,94,94,,,,,,,,,,,,,,,-19.716796875,3.80859375,1,0,0,0.784390926361,,,,,2015_Sep_06_1320,A,facesParametric,6,59.6933288929,
./stim/MorphF3_06_orig.jpg,95,,,,,,,,,0,95,95,95,,,,,,,,,,,,,,,-19.716796875,3.80859375,0,0,1,0.701325893402,,,,,2015_Sep_06_1320,A,facesParametric,6,59.6933288929,
./stim/MorphM8_06_orig.jpg,96,,,,,,,,,0,96,96,96,,,,,,,,,,,,,,,-19.6875,3.80859375,1,0,0,0.86914396286,,,,,2015_Sep_06_1320,A,facesParametric,6,59.6933288929,
./stim/MorphM4_02_orig.jpg,97,,,,,,,,,0,97,97,97,,,,,,,,,,,,,,,-19.658203125,3.80859375,1,0,0,0.869634866714,,,,,2015_Sep_06_1320,A,facesParametric,6,59.6933288929,
./stim/MorphF9_08_orig.jpg,98,,,,,,,,,0,98,98,98,,,,,,,,,,,,,,,-19.599609375,3.837890625,1,0,0,1.0041718483,,,,,2015_Sep_06_1320,A,facesParametric,6,59.6933288929,
./stim/MorphF3_07_orig.jpg,99,,,,,,,,,0,99,99,99,,,,,,,,,,,,,,,-19.541015625,3.896484375,0,0,1,0.904000043869,,,,,2015_Sep_06_1320,A,facesParametric,6,59.6933288929,
./stim/MorphM10_09_orig.jpg,100,,,,,,,,,0,100,100,100,,,,,,,,,,,,,,,-19.51171875,3.92578125,1,0,0,0.702607870102,,,,,2015_Sep_06_1320,A,facesParametric,6,59.6933288929,
./stim/MorphM4_04_orig.jpg,101,,,,,,,,,0,101,101,101,,,,,,,,,,,,,,,-19.482421875,3.955078125,1,0,0,0.953737974167,,,,,2015_Sep_06_1320,A,facesParametric,6,59.6933288929,
./stim/MorphM6_07_orig.jpg,102,,,,,,,,,0,102,102,102,,,,,,,,,,,,,,,-19.541015625,4.013671875,0,0,1,3.50152301788,,,,,2015_Sep_06_1320,A,facesParametric,6,59.6933288929,
./stim/MorphF4_01_orig.jpg,103,,,,,,,,,0,103,103,103,,,,,,,,,,,,,,,-19.541015625,4.013671875,0,0,1,2.86454582214,,,,,2015_Sep_06_1320,A,facesParametric,6,59.6933288929,
./stim/MorphF10_06_orig.jpg,104,,,,,,,,,0,104,104,104,,,,,,,,,,,,,,,-19.541015625,4.013671875,1,0,0,1.62424898148,,,,,2015_Sep_06_1320,A,facesParametric,6,59.6933288929,
./stim/MorphM3_00_orig.jpg,105,,,,,,,,,0,105,105,105,,,,,,,,,,,,,,,-19.541015625,4.013671875,0,0,1,1.57383584976,,,,,2015_Sep_06_1320,A,facesParametric,6,59.6933288929,
./stim/MorphF7_08_orig.jpg,106,,,,,,,,,0,106,106,106,,,,,,,,,,,,,,,-19.423828125,3.984375,1,0,0,1.15543484688,,,,,2015_Sep_06_1320,A,facesParametric,6,59.6933288929,
./stim/MorphF1_06_orig.jpg,107,,,,,,,,,0,107,107,107,,,,,,,,,,,,,,,-19.423828125,3.984375,0,0,1,0.852461099625,,,,,2015_Sep_06_1320,A,facesParametric,6,59.6933288929,
./stim/MorphM7_02_orig.jpg,108,,,,,,,,,0,108,108,108,,,,,,,,,,,,,,,-19.423828125,3.984375,1,0,0,1.0712351799,,,,,2015_Sep_06_1320,A,facesParametric,6,59.6933288929,
./stim/MorphM5_02_orig.jpg,109,,,,,,,,,0,109,109,109,,,,,,,,,,,,,,,-19.423828125,3.984375,1,0,0,1.85918807983,,,,,2015_Sep_06_1320,A,facesParametric,6,59.6933288929,
./stim/MorphM6_08_orig.jpg,110,,,,,,,,,0,110,110,110,,,,,,,,,,,,,,,-19.423828125,3.984375,1,0,0,2.91515398026,,,,,2015_Sep_06_1320,A,facesParametric,6,59.6933288929,
./stim/MorphF6_01_orig.jpg,111,,,,,,,,,0,111,111,111,,,,,,,,,,,,,,,-19.423828125,4.04296875,0,0,1,0.886925935745,,,,,2015_Sep_06_1320,A,facesParametric,6,59.6933288929,
./stim/MorphM3_08_orig.jpg,112,,,,,,,,,0,112,112,112,,,,,,,,,,,,,,,-19.423828125,4.04296875,1,0,0,1.02114295959,,,,,2015_Sep_06_1320,A,facesParametric,6,59.6933288929,
./stim/MorphF2_06_orig.jpg,113,,,,,,,,,0,113,113,113,,,,,,,,,,,,,,,-19.423828125,4.04296875,1,0,0,0.870249032974,,,,,2015_Sep_06_1320,A,facesParametric,6,59.6933288929,
./stim/MorphM9_05_orig.jpg,114,,,,,,,,,0,114,114,114,,,,,,,,,,,,,,,-19.423828125,4.04296875,0,0,1,3.45223808289,,,,,2015_Sep_06_1320,A,facesParametric,6,59.6933288929,
./stim/MorphM7_06_orig.jpg,115,,,,,,,,,0,115,115,115,,,,,,,,,,,,,,,-19.423828125,4.04296875,1,0,0,0.752142190933,,,,,2015_Sep_06_1320,A,facesParametric,6,59.6933288929,
./stim/MorphF7_00_orig.jpg,116,,,,,,,,,0,116,116,116,,,,,,,,,,,,,,,-19.482421875,4.013671875,0,0,1,1.50547599792,,,,,2015_Sep_06_1320,A,facesParametric,6,59.6933288929,
./stim/MorphM7_00_orig.jpg,117,,,,,,,,,0,117,117,117,,,,,,,,,,,,,,,-19.482421875,4.013671875,1,0,0,0.768598794937,,,,,2015_Sep_06_1320,A,facesParametric,6,59.6933288929,
./stim/MorphM6_02_orig.jpg,118,,,,,,,,,0,118,118,118,,,,,,,,,,,,,,,-19.482421875,4.013671875,0,0,1,1.95980882645,,,,,2015_Sep_06_1320,A,facesParametric,6,59.6933288929,
./stim/MorphF7_04_orig.jpg,119,,,,,,,,,0,119,119,119,,,,,,,,,,,,,,,-19.51171875,4.04296875,0,0,1,3.46724700928,,,,,2015_Sep_06_1320,A,facesParametric,6,59.6933288929,
./stim/MorphF4_00_orig.jpg,120,,,,,,,,,0,120,120,120,,,,,,,,,,,,,,,-19.51171875,4.04296875,0,0,1,0.685260057449,,,,,2015_Sep_06_1320,A,facesParametric,6,59.6933288929,
./stim/MorphF9_07_orig.jpg,121,,,,,,,,,0,121,121,121,,,,,,,,,,,,,,,-19.51171875,4.04296875,0,0,1,1.59062600136,,,,,2015_Sep_06_1320,A,facesParametric,6,59.6933288929,
./stim/MorphF4_05_orig.jpg,122,,,,,,,,,0,122,122,122,,,,,,,,,,,,,,,-19.51171875,4.04296875,0,0,1,1.01908493042,,,,,2015_Sep_06_1320,A,facesParametric,6,59.6933288929,
./stim/MorphF5_10_orig.jpg,123,,,,,,,,,0,123,123,123,,,,,,,,,,,,,,,-19.51171875,4.04296875,1,0,0,0.970788955688,,,,,2015_Sep_06_1320,A,facesParametric,6,59.6933288929,
./stim/MorphM9_06_orig.jpg,124,,,,,,,,,0,124,124,124,,,,,,,,,,,,,,,-19.51171875,4.04296875,1,0,0,2.4794318676,,,,,2015_Sep_06_1320,A,facesParametric,6,59.6933288929,
./stim/MorphF1_00_orig.jpg,125,,,,,,,,,0,125,125,125,,,,,,,,,,,,,,,-19.51171875,4.04296875,0,0,1,0.768676042557,,,,,2015_Sep_06_1320,A,facesParametric,6,59.6933288929,
./stim/MorphF5_07_orig.jpg,126,,,,,,,,,0,126,126,126,,,,,,,,,,,,,,,-19.541015625,4.072265625,1,0,0,1.10482692719,,,,,2015_Sep_06_1320,A,facesParametric,6,59.6933288929,
./stim/MorphM6_06_orig.jpg,127,,,,,,,,,0,127,127,127,,,,,,,,,,,,,,,-19.541015625,4.072265625,1,0,0,1.27273106575,,,,,2015_Sep_06_1320,A,facesParametric,6,59.6933288929,
./stim/MorphF2_00_orig.jpg,128,,,,,,,,,0,128,128,128,,,,,,,,,,,,,,,-19.541015625,4.072265625,0,0,1,3.11592507362,,,,,2015_Sep_06_1320,A,facesParametric,6,59.6933288929,
./stim/MorphM6_03_orig.jpg,129,,,,,,,,,0,129,129,129,,,,,,,,,,,,,,,-19.541015625,4.072265625,0,0,1,0.936513900757,,,,,2015_Sep_06_1320,A,facesParametric,6,59.6933288929,
./stim/MorphM3_04_orig.jpg,130,,,,,,,,,0,130,130,130,,,,,,,,,,,,,,,-19.541015625,4.072265625,1,0,0,2.36204600334,,,,,2015_Sep_06_1320,A,facesParametric,6,59.6933288929,
./stim/MorphM8_01_orig.jpg,131,,,,,,,,,0,131,131,131,,,,,,,,,,,,,,,-19.6875,4.013671875,1,0,0,2.14362311363,,,,,2015_Sep_06_1320,A,facesParametric,6,59.6933288929,
./stim/MorphM1_06_orig.jpg,132,,,,,,,,,0,132,132,132,,,,,,,,,,,,,,,-19.716796875,5.595703125,1,0,0,4.70853114128,,,,,2015_Sep_06_1320,A,facesParametric,6,59.6933288929,
./stim/MorphM2_09_orig.jpg,133,,,,,,,,,0,133,133,133,,,,,,,,,,,,,,,-19.716796875,5.595703125,1,0,0,1.20367002487,,,,,2015_Sep_06_1320,A,facesParametric,6,59.6933288929,
./stim/MorphF2_01_orig.jpg,134,,,,,,,,,0,134,134,134,,,,,,,,,,,,,,,-19.716796875,5.595703125,0,0,1,6.19957613945,,,,,2015_Sep_06_1320,A,facesParametric,6,59.6933288929,
./stim/MorphM5_01_orig.jpg,135,,,,,,,,,0,135,135,135,,,,,,,,,,,,,,,-19.716796875,5.595703125,0,0,1,1.80770301819,,,,,2015_Sep_06_1320,A,facesParametric,6,59.6933288929,
./stim/MorphF8_03_orig.jpg,136,,,,,,,,,0,136,136,136,,,,,,,,,,,,,,,-19.74609375,5.56640625,0,0,1,0.955219984055,,,,,2015_Sep_06_1320,A,facesParametric,6,59.6933288929,
./stim/MorphF10_03_orig.jpg,137,,,,,,,,,0,137,137,137,,,,,,,,,,,,,,,-19.74609375,5.56640625,0,0,1,1.27121186256,,,,,2015_Sep_06_1320,A,facesParametric,6,59.6933288929,
./stim/MorphM7_09_orig.jpg,138,,,,,,,,,0,138,138,138,,,,,,,,,,,,,,,-19.74609375,5.56640625,1,0,0,0.803472995758,,,,,2015_Sep_06_1320,A,facesParametric,6,59.6933288929,
./stim/MorphM9_00_orig.jpg,139,,,,,,,,,0,139,139,139,,,,,,,,,,,,,,,-19.74609375,5.56640625,0,0,1,1.12110209465,,,,,2015_Sep_06_1320,A,facesParametric,6,59.6933288929,
./stim/MorphM3_05_orig.jpg,140,,,,,,,,,0,140,140,140,,,,,,,,,,,,,,,-19.74609375,5.56640625,1,0,0,1.03910493851,,,,,2015_Sep_06_1320,A,facesParametric,6,59.6933288929,
./stim/MorphM1_07_orig.jpg,141,,,,,,,,,0,141,141,141,,,,,,,,,,,,,,,-19.6875,5.712890625,1,0,0,2.74601602554,,,,,2015_Sep_06_1320,A,facesParametric,6,59.6933288929,
./stim/MorphM9_07_orig.jpg,142,,,,,,,,,0,142,142,142,,,,,,,,,,,,,,,-19.658203125,5.7421875,1,0,0,2.81442403793,,,,,2015_Sep_06_1320,A,facesParametric,6,59.6933288929,
./stim/MorphF3_03_orig.jpg,143,,,,,,,,,0,143,143,143,,,,,,,,,,,,,,,-19.658203125,5.7421875,1,0,0,1.69142389297,,,,,2015_Sep_06_1320,A,facesParametric,6,59.6933288929,
./stim/MorphF4_07_orig.jpg,144,,,,,,,,,0,144,144,144,,,,,,,,,,,,,,,-19.658203125,5.7421875,1,0,0,1.859333992,,,,,2015_Sep_06_1320,A,facesParametric,6,59.6933288929,
./stim/MorphM2_10_orig.jpg,145,,,,,,,,,0,145,145,145,,,,,,,,,,,,,,,-19.658203125,5.7421875,1,0,0,0.736968994141,,,,,2015_Sep_06_1320,A,facesParametric,6,59.6933288929,
./stim/MorphF7_06_orig.jpg,146,,,,,,,,,0,146,146,146,,,,,,,,,,,,,,,-19.658203125,5.7421875,1,0,0,1.01895403862,,,,,2015_Sep_06_1320,A,facesParametric,6,59.6933288929,
./stim/MorphM8_02_orig.jpg,147,,,,,,,,,0,147,147,147,,,,,,,,,,,,,,,-19.658203125,5.7421875,0,0,1,2.49626994133,,,,,2015_Sep_06_1320,A,facesParametric,6,59.6933288929,
./stim/MorphF3_05_orig.jpg,148,,,,,,,,,0,148,148,148,,,,,,,,,,,,,,,-19.658203125,5.7421875,0,0,1,0.803331851959,,,,,2015_Sep_06_1320,A,facesParametric,6,59.6933288929,
./stim/MorphF6_04_orig.jpg,149,,,,,,,,,0,149,149,149,,,,,,,,,,,,,,,-19.658203125,5.7421875,0,0,1,1.23751616478,,,,,2015_Sep_06_1320,A,facesParametric,6,59.6933288929,
./stim/MorphM4_10_orig.jpg,150,,,,,,,,,0,150,150,150,,,,,,,,,,,,,,,-19.658203125,5.7421875,1,0,0,1.00219392776,,,,,2015_Sep_06_1320,A,facesParametric,6,59.6933288929,
./stim/MorphF10_08_orig.jpg,151,,,,,,,,,0,151,151,151,,,,,,,,,,,,,,,-19.658203125,5.7421875,1,0,0,2.83113789558,,,,,2015_Sep_06_1320,A,facesParametric,6,59.6933288929,
./stim/MorphF5_02_orig.jpg,152,,,,,,,,,0,152,152,152,,,,,,,,,,,,,,,-19.658203125,5.7421875,0,0,1,2.14434695244,,,,,2015_Sep_06_1320,A,facesParametric,6,59.6933288929,
./stim/MorphF1_05_orig.jpg,153,,,,,,,,,0,153,153,153,,,,,,,,,,,,,,,-19.62890625,5.712890625,0,0,1,0.769701004028,,,,,2015_Sep_06_1320,A,facesParametric,6,59.6933288929,
./stim/MorphF9_09_orig.jpg,154,,,,,,,,,0,154,154,154,,,,,,,,,,,,,,,-19.62890625,5.712890625,1,0,0,3.50123906136,,,,,2015_Sep_06_1320,A,facesParametric,6,59.6933288929,
./stim/MorphF5_03_orig.jpg,155,,,,,,,,,0,155,155,155,,,,,,,,,,,,,,,-19.62890625,5.712890625,0,0,1,1.5408809185,,,,,2015_Sep_06_1320,A,facesParametric,6,59.6933288929,
./stim/MorphF4_03_orig.jpg,156,,,,,,,,,0,156,156,156,,,,,,,,,,,,,,,-19.658203125,5.654296875,0,0,1,2.74673104286,,,,,2015_Sep_06_1320,A,facesParametric,6,59.6933288929,
./stim/MorphF5_01_orig.jpg,157,,,,,,,,,0,157,157,157,,,,,,,,,,,,,,,-19.6875,5.625,0,0,1,1.23545598984,,,,,2015_Sep_06_1320,A,facesParametric,6,59.6933288929,
./stim/MorphM1_01_orig.jpg,158,,,,,,,,,0,158,158,158,,,,,,,,,,,,,,,-19.6875,5.625,0,0,1,0.635537147522,,,,,2015_Sep_06_1320,A,facesParametric,6,59.6933288929,
./stim/MorphF9_02_orig.jpg,159,,,,,,,,,0,159,159,159,,,,,,,,,,,,,,,-19.658203125,5.595703125,0,0,1,13.8758609295,,,,,2015_Sep_06_1320,A,facesParametric,6,59.6933288929,
./stim/MorphF2_02_orig.jpg,160,,,,,,,,,0,160,160,160,,,,,,,,,,,,,,,-19.658203125,5.595703125,0,0,1,6.6690530777,,,,,2015_Sep_06_1320,A,facesParametric,6,59.6933288929,
./stim/MorphM8_10_orig.jpg,161,,,,,,,,,0,161,161,161,,,,,,,,,,,,,,,-19.658203125,5.595703125,1,0,0,1.17004704475,,,,,2015_Sep_06_1320,A,facesParametric,6,59.6933288929,
./stim/MorphM1_10_orig.jpg,162,,,,,,,,,0,162,162,162,,,,,,,,,,,,,,,-19.658203125,5.595703125,1,0,0,1.75879406929,,,,,2015_Sep_06_1320,A,facesParametric,6,59.6933288929,
./stim/MorphF10_04_orig.jpg,163,,,,,,,,,0,163,163,163,,,,,,,,,,,,,,,-19.658203125,5.595703125,0,0,1,1.54053902626,,,,,2015_Sep_06_1320,A,facesParametric,6,59.6933288929,
./stim/MorphF3_00_orig.jpg,164,,,,,,,,,0,164,164,164,,,,,,,,,,,,,,,-19.658203125,5.595703125,0,0,1,2.17772507668,,,,,2015_Sep_06_1320,A,facesParametric,6,59.6933288929,
./stim/MorphM2_07_orig.jpg,165,,,,,,,,,0,165,165,165,,,,,,,,,,,,,,,-19.658203125,5.595703125,0,0,1,2.11004805565,,,,,2015_Sep_06_1320,A,facesParametric,6,59.6933288929,
./stim/MorphF7_05_orig.jpg,166,,,,,,,,,0,166,166,166,,,,,,,,,,,,,,,-19.658203125,5.595703125,0,0,1,1.18900299072,,,,,2015_Sep_06_1320,A,facesParametric,6,59.6933288929,
./stim/MorphF6_03_orig.jpg,167,,,,,,,,,0,167,167,167,,,,,,,,,,,,,,,-19.658203125,5.595703125,0,0,1,0.75289106369,,,,,2015_Sep_06_1320,A,facesParametric,6,59.6933288929,
./stim/MorphF3_02_orig.jpg,168,,,,,,,,,0,168,168,168,,,,,,,,,,,,,,,-19.658203125,5.595703125,0,0,1,1.18884921074,,,,,2015_Sep_06_1320,A,facesParametric,6,59.6933288929,
./stim/MorphF1_01_orig.jpg,169,,,,,,,,,0,169,169,169,,,,,,,,,,,,,,,-19.658203125,5.595703125,0,0,1,2.89665794373,,,,,2015_Sep_06_1320,A,facesParametric,6,59.6933288929,
./stim/MorphM1_04_orig.jpg,170,,,,,,,,,0,170,170,170,,,,,,,,,,,,,,,-19.658203125,5.595703125,0,0,1,1.52416300774,,,,,2015_Sep_06_1320,A,facesParametric,6,59.6933288929,
./stim/MorphF4_09_orig.jpg,171,,,,,,,,,0,171,171,171,,,,,,,,,,,,,,,-19.658203125,5.595703125,1,0,0,1.53870105743,,,,,2015_Sep_06_1320,A,facesParametric,6,59.6933288929,
./stim/MorphM6_00_orig.jpg,172,,,,,,,,,0,172,172,172,,,,,,,,,,,,,,,-19.658203125,5.595703125,0,0,1,1.02147603035,,,,,2015_Sep_06_1320,A,facesParametric,6,59.6933288929,
./stim/MorphM5_09_orig.jpg,173,,,,,,,,,0,173,173,173,,,,,,,,,,,,,,,-19.658203125,5.595703125,1,0,0,1.11982512474,,,,,2015_Sep_06_1320,A,facesParametric,6,59.6933288929,
./stim/MorphF5_06_orig.jpg,174,,,,,,,,,0,174,174,174,,,,,,,,,,,,,,,-19.658203125,5.595703125,1,0,0,3.04898810387,,,,,2015_Sep_06_1320,A,facesParametric,6,59.6933288929,
./stim/MorphF9_01_orig.jpg,175,,,,,,,,,0,175,175,175,,,,,,,,,,,,,,,-19.658203125,5.595703125,0,0,1,1.32279109955,,,,,2015_Sep_06_1320,A,facesParametric,6,59.6933288929,
./stim/MorphM5_07_orig.jpg,176,,,,,,,,,0,176,176,176,,,,,,,,,,,,,,,-19.658203125,5.595703125,1,0,0,0.802695989609,,,,,2015_Sep_06_1320,A,facesParametric,6,59.6933288929,
./stim/MorphM2_01_orig.jpg,177,,,,,,,,,0,177,177,177,,,,,,,,,,,,,,,-19.658203125,5.595703125,0,0,1,1.75818920135,,,,,2015_Sep_06_1320,A,facesParametric,6,59.6933288929,
./stim/MorphM7_03_orig.jpg,178,,,,,,,,,0,178,178,178,,,,,,,,,,,,,,,-19.658203125,5.595703125,1,0,0,1.08851099014,,,,,2015_Sep_06_1320,A,facesParametric,6,59.6933288929,
./stim/MorphM9_09_orig.jpg,179,,,,,,,,,0,179,179,179,,,,,,,,,,,,,,,-19.658203125,5.595703125,1,0,0,1.08908486366,,,,,2015_Sep_06_1320,A,facesParametric,6,59.6933288929,
./stim/MorphF9_10_orig.jpg,180,,,,,,,,,0,180,180,180,,,,,,,,,,,,,,,-19.658203125,5.595703125,1,0,0,0.835473060608,,,,,2015_Sep_06_1320,A,facesParametric,6,59.6933288929,
./stim/MorphF8_10_orig.jpg,181,,,,,,,,,0,181,181,181,,,,,,,,,,,,,,,-19.658203125,5.595703125,1,0,0,0.786713838577,,,,,2015_Sep_06_1320,A,facesParametric,6,59.6933288929,
./stim/MorphF10_10_orig.jpg,182,,,,,,,,,0,182,182,182,,,,,,,,,,,,,,,-19.658203125,5.595703125,1,0,0,0.669060945511,,,,,2015_Sep_06_1320,A,facesParametric,6,59.6933288929,
./stim/MorphM3_09_orig.jpg,183,,,,,,,,,0,183,183,183,,,,,,,,,,,,,,,-19.658203125,5.595703125,1,0,0,0.784774065018,,,,,2015_Sep_06_1320,A,facesParametric,6,59.6933288929,
./stim/MorphF10_05_orig.jpg,184,,,,,,,,,0,184,184,184,,,,,,,,,,,,,,,-19.658203125,5.595703125,1,0,0,0.700181007385,,,,,2015_Sep_06_1320,A,facesParametric,6,59.6933288929,
./stim/MorphF6_00_orig.jpg,185,,,,,,,,,0,185,185,185,,,,,,,,,,,,,,,-19.658203125,5.595703125,0,0,1,0.969748020172,,,,,2015_Sep_06_1320,A,facesParametric,6,59.6933288929,
./stim/MorphF8_08_orig.jpg,186,,,,,,,,,0,186,186,186,,,,,,,,,,,,,,,-19.62890625,5.625,0,0,1,0.785192012787,,,,,2015_Sep_06_1320,A,facesParametric,6,59.6933288929,
./stim/MorphF7_10_orig.jpg,187,,,,,,,,,0,187,187,187,,,,,,,,,,,,,,,-19.62890625,5.625,1,0,0,1.87473702431,,,,,2015_Sep_06_1320,A,facesParametric,6,59.6933288929,
./stim/MorphM9_10_orig.jpg,188,,,,,,,,,0,188,188,188,,,,,,,,,,,,,,,-19.62890625,5.625,1,0,0,0.903460025787,,,,,2015_Sep_06_1320,A,facesParametric,6,59.6933288929,
./stim/MorphM10_05_orig.jpg,189,,,,,,,,,0,189,189,189,,,,,,,,,,,,,,,-19.62890625,5.625,1,0,0,2.9318780899,,,,,2015_Sep_06_1320,A,facesParametric,6,59.6933288929,
./stim/MorphM8_03_orig.jpg,190,,,,,,,,,0,190,190,190,,,,,,,,,,,,,,,-19.62890625,5.625,0,0,1,0.803431987762,,,,,2015_Sep_06_1320,A,facesParametric,6,59.6933288929,
./stim/MorphF2_10_orig.jpg,191,,,,,,,,,0,191,191,191,,,,,,,,,,,,,,,-19.62890625,5.625,1,0,0,1.05377078056,,,,,2015_Sep_06_1320,A,facesParametric,6,59.6933288929,
./stim/MorphM1_02_orig.jpg,192,,,,,,,,,0,192,192,192,,,,,,,,,,,,,,,-19.62890625,5.625,0,0,1,1.05440187454,,,,,2015_Sep_06_1320,A,facesParametric,6,59.6933288929,
./stim/MorphM4_09_orig.jpg,193,,,,,,,,,0,193,193,193,,,,,,,,,,,,,,,-19.599609375,5.595703125,1,0,0,1.15478801727,,,,,2015_Sep_06_1320,A,facesParametric,6,59.6933288929,
./stim/MorphM8_07_orig.jpg,194,,,,,,,,,0,194,194,194,,,,,,,,,,,,,,,-19.658203125,5.44921875,1,0,0,4.20449304581,,,,,2015_Sep_06_1320,A,facesParametric,6,59.6933288929,
./stim/MorphM1_08_orig.jpg,195,,,,,,,,,0,195,195,195,,,,,,,,,,,,,,,-19.541015625,5.478515625,1,0,0,2.78109908104,,,,,2015_Sep_06_1320,A,facesParametric,6,59.6933288929,
./stim/MorphF4_08_orig.jpg,196,,,,,,,,,0,196,196,196,,,,,,,,,,,,,,,-19.541015625,5.478515625,1,0,0,2.91254401207,,,,,2015_Sep_06_1320,A,facesParametric,6,59.6933288929,
./stim/MorphM9_04_orig.jpg,197,,,,,,,,,0,197,197,197,,,,,,,,,,,,,,,-19.51171875,5.5078125,0,0,1,1.57230114937,,,,,2015_Sep_06_1320,A,facesParametric,6,59.6933288929,
./stim/MorphF1_09_orig.jpg,198,,,,,,,,,0,198,198,198,,,,,,,,,,,,,,,-19.51171875,5.5078125,0,0,1,1.08699202538,,,,,2015_Sep_06_1320,A,facesParametric,6,59.6933288929,
./stim/MorphM9_08_orig.jpg,199,,,,,,,,,0,199,199,199,,,,,,,,,,,,,,,-19.51171875,5.5078125,0,0,1,1.39083790779,,,,,2015_Sep_06_1320,A,facesParametric,6,59.6933288929,
./stim/MorphF10_01_orig.jpg,200,,,,,,,,,0,200,200,200,,,,,,,,,,,,,,,-19.51171875,5.5078125,0,0,1,1.08722305298,,,,,2015_Sep_06_1320,A,facesParametric,6,59.6933288929,
./stim/MorphM10_00_orig.jpg,201,,,,,,,,,0,201,201,201,,,,,,,,,,,,,,,-19.51171875,5.5078125,0,0,1,0.936956882477,,,,,2015_Sep_06_1320,A,facesParametric,6,59.6933288929,
./stim/MorphM2_00_orig.jpg,202,,,,,,,,,0,202,202,202,,,,,,,,,,,,,,,-19.482421875,5.478515625,0,0,1,0.885499954224,,,,,2015_Sep_06_1320,A,facesParametric,6,59.6933288929,
./stim/MorphM9_01_orig.jpg,203,,,,,,,,,0,203,203,203,,,,,,,,,,,,,,,-19.453125,5.44921875,0,0,1,4.7751660347,,,,,2015_Sep_06_1320,A,facesParametric,6,59.6933288929,
./stim/MorphF7_09_orig.jpg,204,,,,,,,,,0,204,204,204,,,,,,,,,,,,,,,-19.453125,5.44921875,1,0,0,0.753233194351,,,,,2015_Sep_06_1320,A,facesParametric,6,59.6933288929,
./stim/MorphF9_00_orig.jpg,205,,,,,,,,,0,205,205,205,,,,,,,,,,,,,,,-19.39453125,5.478515625,0,0,1,1.57404494286,,,,,2015_Sep_06_1320,A,facesParametric,6,59.6933288929,
./stim/MorphM2_02_orig.jpg,206,,,,,,,,,0,206,206,206,,,,,,,,,,,,,,,-19.39453125,5.478515625,0,0,1,0.937283992767,,,,,2015_Sep_06_1320,A,facesParametric,6,59.6933288929,
./stim/MorphF8_05_orig.jpg,207,,,,,,,,,0,207,207,207,,,,,,,,,,,,,,,-19.39453125,5.478515625,0,0,1,1.13812303543,,,,,2015_Sep_06_1320,A,facesParametric,6,59.6933288929,
./stim/MorphF3_09_orig.jpg,208,,,,,,,,,0,208,208,208,,,,,,,,,,,,,,,-19.39453125,5.478515625,0,0,1,0.753098011017,,,,,2015_Sep_06_1320,A,facesParametric,6,59.6933288929,
./stim/MorphM5_10_orig.jpg,209,,,,,,,,,0,209,209,209,,,,,,,,,,,,,,,-19.39453125,5.478515625,1,0,0,1.70779109001,,,,,2015_Sep_06_1320,A,facesParametric,6,59.6933288929,
./stim/MorphM8_08_orig.jpg,210,,,,,,,,,0,210,210,210,,,,,,,,,,,,,,,-19.39453125,5.478515625,1,0,0,0.987629890442,,,,,2015_Sep_06_1320,A,facesParametric,6,59.6933288929,
./stim/MorphM3_07_orig.jpg,211,,,,,,,,,0,211,211,211,,,,,,,,,,,,,,,-19.39453125,5.478515625,1,0,0,0.735888004303,,,,,2015_Sep_06_1320,A,facesParametric,6,59.6933288929,
./stim/MorphM5_06_orig.jpg,212,,,,,,,,,0,212,212,212,,,,,,,,,,,,,,,-19.39453125,5.478515625,1,0,0,0.821294784546,,,,,2015_Sep_06_1320,A,facesParametric,6,59.6933288929,
./stim/MorphF5_09_orig.jpg,213,,,,,,,,,0,213,213,213,,,,,,,,,,,,,,,-19.39453125,5.478515625,1,0,0,2.0754699707,,,,,2015_Sep_06_1320,A,facesParametric,6,59.6933288929,
./stim/MorphF8_06_orig.jpg,214,,,,,,,,,0,214,214,214,,,,,,,,,,,,,,,-19.39453125,5.478515625,0,0,1,3.16645383835,,,,,2015_Sep_06_1320,A,facesParametric,6,59.6933288929,
./stim/MorphF5_04_orig.jpg,215,,,,,,,,,0,215,215,215,,,,,,,,,,,,,,,-19.39453125,5.478515625,1,0,0,3.76979899406,,,,,2015_Sep_06_1320,A,facesParametric,6,59.6933288929,
./stim/MorphM2_04_orig.jpg,216,,,,,,,,,0,216,216,216,,,,,,,,,,,,,,,-19.39453125,5.478515625,0,0,1,0.887145996094,,,,,2015_Sep_06_1320,A,facesParametric,6,59.6933288929,
./stim/MorphF2_05_orig.jpg,217,,,,,,,,,0,217,217,217,,,,,,,,,,,,,,,-19.39453125,5.478515625,1,0,0,1.10498309135,,,,,2015_Sep_06_1320,A,facesParametric,6,59.6933288929,
./stim/MorphM7_01_orig.jpg,218,,,,,,,,,0,218,218,218,,,,,,,,,,,,,,,-19.39453125,5.478515625,1,0,0,0.752686023712,,,,,2015_Sep_06_1320,A,facesParametric,6,59.6933288929,
./stim/MorphF10_09_orig.jpg,219,,,,,,,,,0,219,219,219,,,,,,,,,,,,,,,-19.39453125,5.478515625,1,0,0,0.820227146149,,,,,2015_Sep_06_1320,A,facesParametric,6,59.6933288929,
,,,,,,,,,,,,,,,,,,,,,,,,,,,,,,,,,,,,return,2.35712099075,2015_Sep_06_1320,A,facesParametric,6,59.6933288929,
