img,num,basicLoop.thisRepN,basicLoop.thisTrialN,basicLoop.thisN,basicLoop.thisIndex,trials.thisRepN,trials.thisTrialN,trials.thisN,trials.thisIndex,trials2.thisRepN,trials2.thisTrialN,trials2.thisN,trials2.thisIndex,key_resp_2.keys,key_resp_2.rt,basicRating1.response,basicRating1.rt,basicRating2.response,basicRating2.rt,basicRating3.response,basicRating3.rt,basicRating4.response,basicRating4.rt,key_resp_3.keys,key_resp_3.rt,key_resp_4.keys,key_resp_4.rt,mouseResp.x,mouseResp.y,mouseResp.leftButton,mouseResp.midButton,mouseResp.rightButton,mouseResp.time,key_resp_5.keys,key_resp_5.rt,date,group,expName,participant,frameRate,
,,,,,,,,,,,,,,return,1.373939991,,,,,,,,,,,,,,,,,,,,,2015_Sep_18_1934,A,facesParametric,7,59.6754935605,
./basicStim/28M_SP_O.jpg,,0,0,0,68,,,,,,,,,,,None,None,FEA,10.666,None,None,None,None,,,,,,,,,,,,,2015_Sep_18_1934,A,facesParametric,7,59.6754935605,
./basicStim/21M_NE_C.jpg,,0,1,1,48,,,,,,,,,,,None,None,None,None,None,None,NTR,8.415,,,,,,,,,,,,,2015_Sep_18_1934,A,facesParametric,7,59.6754935605,
./basicStim/34M_DI_O.jpg,,0,2,2,71,,,,,,,,,,,None,None,None,None,DIS,6.862,None,None,,,,,,,,,,,,,2015_Sep_18_1934,A,facesParametric,7,59.6754935605,
./basicStim/24M_AN_O.jpg,,0,3,3,56,,,,,,,,,,,None,None,ANG,5.86,None,None,None,None,,,,,,,,,,,,,2015_Sep_18_1934,A,facesParametric,7,59.6754935605,
./basicStim/02F_DI_O.jpg,,0,4,4,8,,,,,,,,,,,None,None,None,None,DIS,5.603,None,None,,,,,,,,,,,,,2015_Sep_18_1934,A,facesParametric,7,59.6754935605,
./basicStim/01F_FE_O.jpg,,0,5,5,2,,,,,,,,,,,None,None,None,None,SUP,4.349,None,None,,,,,,,,,,,,,2015_Sep_18_1934,A,facesParametric,7,59.6754935605,
./basicStim/07F_SA_C.jpg,,0,6,6,32,,,,,,,,,,,SAD,4.684,None,None,None,None,None,None,,,,,,,,,,,,,2015_Sep_18_1934,A,facesParametric,7,59.6754935605,
./basicStim/21M_DI_O.jpg,,0,7,7,43,,,,,,,,,,,None,None,None,None,DIS,2.704,None,None,,,,,,,,,,,,,2015_Sep_18_1934,A,facesParametric,7,59.6754935605,
./basicStim/07F_SP_O.jpg,,0,8,8,33,,,,,,,,,,,None,None,None,None,SUP,2.918,None,None,,,,,,,,,,,,,2015_Sep_18_1934,A,facesParametric,7,59.6754935605,
./basicStim/01F_AN_O.jpg,,0,9,9,0,,,,,,,,,,,None,None,ANG,4.261,None,None,None,None,,,,,,,,,,,,,2015_Sep_18_1934,A,facesParametric,7,59.6754935605,
./basicStim/06F_FE_O.jpg,,0,10,10,23,,,,,,,,,,,None,None,None,None,SUP,1.361,None,None,,,,,,,,,,,,,2015_Sep_18_1934,A,facesParametric,7,59.6754935605,
./basicStim/06F_AN_O.jpg,,0,11,11,21,,,,,,,,,,,None,None,ANG,0.994,None,None,None,None,,,,,,,,,,,,,2015_Sep_18_1934,A,facesParametric,7,59.6754935605,
./basicStim/02F_SA_C.jpg,,0,12,12,11,,,,,,,,,,,SAD,1.718,None,None,None,None,None,None,,,,,,,,,,,,,2015_Sep_18_1934,A,facesParametric,7,59.6754935605,
./basicStim/24M_SP_O.jpg,,0,13,13,61,,,,,,,,,,,None,None,None,None,SUP,2.516,None,None,,,,,,,,,,,,,2015_Sep_18_1934,A,facesParametric,7,59.6754935605,
./basicStim/34M_SA_C.jpg,,0,14,14,74,,,,,,,,,,,SAD,3.089,None,None,None,None,None,None,,,,,,,,,,,,,2015_Sep_18_1934,A,facesParametric,7,59.6754935605,
./basicStim/03F_NE_C.jpg,,0,15,15,20,,,,,,,,,,,None,None,None,None,None,None,NTR,1.359,,,,,,,,,,,,,2015_Sep_18_1934,A,facesParametric,7,59.6754935605,
./basicStim/02F_SP_O.jpg,,0,16,16,12,,,,,,,,,,,None,None,None,None,SUP,1.456,None,None,,,,,,,,,,,,,2015_Sep_18_1934,A,facesParametric,7,59.6754935605,
./basicStim/01F_SA_C.jpg,,0,17,17,4,,,,,,,,,,,SAD,1.377,None,None,None,None,None,None,,,,,,,,,,,,,2015_Sep_18_1934,A,facesParametric,7,59.6754935605,
./basicStim/21M_SA_C.jpg,,0,18,18,46,,,,,,,,,,,SAD,0.791,None,None,None,None,None,None,,,,,,,,,,,,,2015_Sep_18_1934,A,facesParametric,7,59.6754935605,
./basicStim/21M_FE_O.jpg,,0,19,19,44,,,,,,,,,,,SAD,8.6,None,None,None,None,None,None,,,,,,,,,,,,,2015_Sep_18_1934,A,facesParametric,7,59.6754935605,
./basicStim/01F_HA_O.jpg,,0,20,20,3,,,,,,,,,,,HAP,0.958,None,None,None,None,None,None,,,,,,,,,,,,,2015_Sep_18_1934,A,facesParametric,7,59.6754935605,
./basicStim/23M_AN_O.jpg,,0,21,21,49,,,,,,,,,,,None,None,ANG,1.447,None,None,None,None,,,,,,,,,,,,,2015_Sep_18_1934,A,facesParametric,7,59.6754935605,
./basicStim/21M_SP_O.jpg,,0,22,22,47,,,,,,,,,,,None,None,None,None,SUP,2.905,None,None,,,,,,,,,,,,,2015_Sep_18_1934,A,facesParametric,7,59.6754935605,
./basicStim/06F_NE_C.jpg,,0,23,23,27,,,,,,,,,,,None,None,None,None,None,None,NTR,0.958,,,,,,,,,,,,,2015_Sep_18_1934,A,facesParametric,7,59.6754935605,
./basicStim/03F_DI_O.jpg,,0,24,24,15,,,,,,,,,,,None,None,None,None,DIS,1.766,None,None,,,,,,,,,,,,,2015_Sep_18_1934,A,facesParametric,7,59.6754935605,
./basicStim/34M_NE_C.jpg,,0,25,25,76,,,,,,,,,,,None,None,None,None,None,None,NTR,1.191,,,,,,,,,,,,,2015_Sep_18_1934,A,facesParametric,7,59.6754935605,
./basicStim/02F_FE_O.jpg,,0,26,26,9,,,,,,,,,,,None,None,None,None,DIS,1.306,None,None,,,,,,,,,,,,,2015_Sep_18_1934,A,facesParametric,7,59.6754935605,
./basicStim/23M_FE_O.jpg,,0,27,27,51,,,,,,,,,,,None,None,None,None,SUP,1.813,None,None,,,,,,,,,,,,,2015_Sep_18_1934,A,facesParametric,7,59.6754935605,
./basicStim/09F_HA_O.jpg,,0,28,28,38,,,,,,,,,,,HAP,1.182,None,None,None,None,None,None,,,,,,,,,,,,,2015_Sep_18_1934,A,facesParametric,7,59.6754935605,
./basicStim/23M_NE_C.jpg,,0,29,29,55,,,,,,,,,,,None,None,None,None,None,None,NTR,1.194,,,,,,,,,,,,,2015_Sep_18_1934,A,facesParametric,7,59.6754935605,
./basicStim/03F_AN_O.jpg,,0,30,30,14,,,,,,,,,,,None,None,ANG,2.238,None,None,None,None,,,,,,,,,,,,,2015_Sep_18_1934,A,facesParametric,7,59.6754935605,
./basicStim/03F_FE_O.jpg,,0,31,31,16,,,,,,,,,,,None,None,FEA,1.301,None,None,None,None,,,,,,,,,,,,,2015_Sep_18_1934,A,facesParametric,7,59.6754935605,
./basicStim/36M_HA_O.jpg,,0,32,32,80,,,,,,,,,,,HAP,0.908,None,None,None,None,None,None,,,,,,,,,,,,,2015_Sep_18_1934,A,facesParametric,7,59.6754935605,
./basicStim/03F_HA_O.jpg,,0,33,33,17,,,,,,,,,,,HAP,4.161,None,None,None,None,None,None,,,,,,,,,,,,,2015_Sep_18_1934,A,facesParametric,7,59.6754935605,
./basicStim/09F_SA_C.jpg,,0,34,34,39,,,,,,,,,,,SAD,1.329,None,None,None,None,None,None,,,,,,,,,,,,,2015_Sep_18_1934,A,facesParametric,7,59.6754935605,
./basicStim/03F_SP_O.jpg,,0,35,35,19,,,,,,,,,,,None,None,None,None,SUP,7.885,None,None,,,,,,,,,,,,,2015_Sep_18_1934,A,facesParametric,7,59.6754935605,
./basicStim/06F_SA_C.jpg,,0,36,36,25,,,,,,,,,,,SAD,1.8,None,None,None,None,None,None,,,,,,,,,,,,,2015_Sep_18_1934,A,facesParametric,7,59.6754935605,
./basicStim/02F_NE_C.jpg,,0,37,37,13,,,,,,,,,,,SAD,1.637,None,None,None,None,None,None,,,,,,,,,,,,,2015_Sep_18_1934,A,facesParametric,7,59.6754935605,
./basicStim/07F_FE_O.jpg,,0,38,38,30,,,,,,,,,,,None,None,None,None,DIS,1.399,None,None,,,,,,,,,,,,,2015_Sep_18_1934,A,facesParametric,7,59.6754935605,
./basicStim/23M_SA_C.jpg,,0,39,39,53,,,,,,,,,,,None,None,None,None,DIS,3.659,None,None,,,,,,,,,,,,,2015_Sep_18_1934,A,facesParametric,7,59.6754935605,
./basicStim/36M_SA_C.jpg,,0,40,40,81,,,,,,,,,,,SAD,1.298,None,None,None,None,None,None,,,,,,,,,,,,,2015_Sep_18_1934,A,facesParametric,7,59.6754935605,
./basicStim/36M_AN_O.jpg,,0,41,41,77,,,,,,,,,,,None,None,ANG,1.902,None,None,None,None,,,,,,,,,,,,,2015_Sep_18_1934,A,facesParametric,7,59.6754935605,
./basicStim/28M_NE_C.jpg,,0,42,42,69,,,,,,,,,,,None,None,None,None,None,None,NTR,1.295,,,,,,,,,,,,,2015_Sep_18_1934,A,facesParametric,7,59.6754935605,
./basicStim/23M_DI_O.jpg,,0,43,43,50,,,,,,,,,,,SAD,2.604,None,None,None,None,None,None,,,,,,,,,,,,,2015_Sep_18_1934,A,facesParametric,7,59.6754935605,
./basicStim/02F_AN_O.jpg,,0,44,44,7,,,,,,,,,,,None,None,ANG,5.492,None,None,None,None,,,,,,,,,,,,,2015_Sep_18_1934,A,facesParametric,7,59.6754935605,
./basicStim/07F_HA_O.jpg,,0,45,45,31,,,,,,,,,,,HAP,1.014,None,None,None,None,None,None,,,,,,,,,,,,,2015_Sep_18_1934,A,facesParametric,7,59.6754935605,
./basicStim/28M_SA_C.jpg,,0,46,46,67,,,,,,,,,,,None,None,None,None,SUP,3.038,None,None,,,,,,,,,,,,,2015_Sep_18_1934,A,facesParametric,7,59.6754935605,
./basicStim/28M_FE_O.jpg,,0,47,47,65,,,,,,,,,,,None,None,FEA,2.25,None,None,None,None,,,,,,,,,,,,,2015_Sep_18_1934,A,facesParametric,7,59.6754935605,
./basicStim/36M_SP_O.jpg,,0,48,48,82,,,,,,,,,,,None,None,None,None,SUP,3.171,None,None,,,,,,,,,,,,,2015_Sep_18_1934,A,facesParametric,7,59.6754935605,
./basicStim/07F_NE_C.jpg,,0,49,49,34,,,,,,,,,,,None,None,None,None,None,None,NTR,1.142,,,,,,,,,,,,,2015_Sep_18_1934,A,facesParametric,7,59.6754935605,
./basicStim/02F_HA_O.jpg,,0,50,50,10,,,,,,,,,,,HAP,1.112,None,None,None,None,None,None,,,,,,,,,,,,,2015_Sep_18_1934,A,facesParametric,7,59.6754935605,
./basicStim/24M_DI_O.jpg,,0,51,51,57,,,,,,,,,,,None,None,None,None,None,None,NTR,13.008,,,,,,,,,,,,,2015_Sep_18_1934,A,facesParametric,7,59.6754935605,
./basicStim/34M_FE_O.jpg,,0,52,52,72,,,,,,,,,,,None,None,None,None,SUP,4.227,None,None,,,,,,,,,,,,,2015_Sep_18_1934,A,facesParametric,7,59.6754935605,
./basicStim/34M_AN_O.jpg,,0,53,53,70,,,,,,,,,,,None,None,ANG,1.297,None,None,None,None,,,,,,,,,,,,,2015_Sep_18_1934,A,facesParametric,7,59.6754935605,
./basicStim/09F_NE_C.jpg,,0,54,54,41,,,,,,,,,,,None,None,None,None,None,None,NTR,1.174,,,,,,,,,,,,,2015_Sep_18_1934,A,facesParametric,7,59.6754935605,
./basicStim/34M_HA_O.jpg,,0,55,55,73,,,,,,,,,,,HAP,1.399,None,None,None,None,None,None,,,,,,,,,,,,,2015_Sep_18_1934,A,facesParametric,7,59.6754935605,
./basicStim/21M_AN_O.jpg,,0,56,56,42,,,,,,,,,,,None,None,ANG,1.811,None,None,None,None,,,,,,,,,,,,,2015_Sep_18_1934,A,facesParametric,7,59.6754935605,
./basicStim/28M_HA_O.jpg,,0,57,57,66,,,,,,,,,,,HAP,4.145,None,None,None,None,None,None,,,,,,,,,,,,,2015_Sep_18_1934,A,facesParametric,7,59.6754935605,
./basicStim/09F_DI_O.jpg,,0,58,58,36,,,,,,,,,,,None,None,None,None,DIS,2.253,None,None,,,,,,,,,,,,,2015_Sep_18_1934,A,facesParametric,7,59.6754935605,
./basicStim/01F_DI_O.jpg,,0,59,59,1,,,,,,,,,,,None,None,ANG,1.191,None,None,None,None,,,,,,,,,,,,,2015_Sep_18_1934,A,facesParametric,7,59.6754935605,
./basicStim/09F_FE_O.jpg,,0,60,60,37,,,,,,,,,,,None,None,FEA,1.531,None,None,None,None,,,,,,,,,,,,,2015_Sep_18_1934,A,facesParametric,7,59.6754935605,
./basicStim/06F_SP_O.jpg,,0,61,61,26,,,,,,,,,,,None,None,None,None,SUP,1.045,None,None,,,,,,,,,,,,,2015_Sep_18_1934,A,facesParametric,7,59.6754935605,
./basicStim/21M_HA_O.jpg,,0,62,62,45,,,,,,,,,,,HAP,1.078,None,None,None,None,None,None,,,,,,,,,,,,,2015_Sep_18_1934,A,facesParametric,7,59.6754935605,
./basicStim/24M_FE_O.jpg,,0,63,63,58,,,,,,,,,,,None,None,ANG,2.619,None,None,None,None,,,,,,,,,,,,,2015_Sep_18_1934,A,facesParametric,7,59.6754935605,
./basicStim/24M_SA_C.jpg,,0,64,64,60,,,,,,,,,,,SAD,1.179,None,None,None,None,None,None,,,,,,,,,,,,,2015_Sep_18_1934,A,facesParametric,7,59.6754935605,
./basicStim/09F_AN_O.jpg,,0,65,65,35,,,,,,,,,,,None,None,ANG,0.941,None,None,None,None,,,,,,,,,,,,,2015_Sep_18_1934,A,facesParametric,7,59.6754935605,
./basicStim/36M_FE_O.jpg,,0,66,66,79,,,,,,,,,,,None,None,FEA,1.615,None,None,None,None,,,,,,,,,,,,,2015_Sep_18_1934,A,facesParametric,7,59.6754935605,
./basicStim/36M_DI_O.jpg,,0,67,67,78,,,,,,,,,,,None,None,None,None,DIS,2.416,None,None,,,,,,,,,,,,,2015_Sep_18_1934,A,facesParametric,7,59.6754935605,
./basicStim/06F_HA_O.jpg,,0,68,68,24,,,,,,,,,,,HAP,0.962,None,None,None,None,None,None,,,,,,,,,,,,,2015_Sep_18_1934,A,facesParametric,7,59.6754935605,
./basicStim/23M_HA_O.jpg,,0,69,69,52,,,,,,,,,,,HAP,3.158,None,None,None,None,None,None,,,,,,,,,,,,,2015_Sep_18_1934,A,facesParametric,7,59.6754935605,
./basicStim/23M_SP_O.jpg,,0,70,70,54,,,,,,,,,,,None,None,None,None,SUP,2.539,None,None,,,,,,,,,,,,,2015_Sep_18_1934,A,facesParametric,7,59.6754935605,
./basicStim/09F_SP_O.jpg,,0,71,71,40,,,,,,,,,,,None,None,None,None,SUP,1.385,None,None,,,,,,,,,,,,,2015_Sep_18_1934,A,facesParametric,7,59.6754935605,
./basicStim/24M_HA_O.jpg,,0,72,72,59,,,,,,,,,,,HAP,0.843,None,None,None,None,None,None,,,,,,,,,,,,,2015_Sep_18_1934,A,facesParametric,7,59.6754935605,
./basicStim/07F_AN_O.jpg,,0,73,73,28,,,,,,,,,,,None,None,ANG,1.766,None,None,None,None,,,,,,,,,,,,,2015_Sep_18_1934,A,facesParametric,7,59.6754935605,
./basicStim/28M_DI_O.jpg,,0,74,74,64,,,,,,,,,,,None,None,None,None,DIS,1.108,None,None,,,,,,,,,,,,,2015_Sep_18_1934,A,facesParametric,7,59.6754935605,
./basicStim/01F_SP_O.jpg,,0,75,75,5,,,,,,,,,,,None,None,None,None,SUP,1.764,None,None,,,,,,,,,,,,,2015_Sep_18_1934,A,facesParametric,7,59.6754935605,
./basicStim/24M_NE_C.jpg,,0,76,76,62,,,,,,,,,,,None,None,None,None,None,None,NTR,1.514,,,,,,,,,,,,,2015_Sep_18_1934,A,facesParametric,7,59.6754935605,
./basicStim/36M_NE_C.jpg,,0,77,77,83,,,,,,,,,,,None,None,None,None,None,None,NTR,0.701,,,,,,,,,,,,,2015_Sep_18_1934,A,facesParametric,7,59.6754935605,
./basicStim/01F_NE_C.jpg,,0,78,78,6,,,,,,,,,,,None,None,None,None,None,None,NTR,1.727,,,,,,,,,,,,,2015_Sep_18_1934,A,facesParametric,7,59.6754935605,
./basicStim/28M_AN_O.jpg,,0,79,79,63,,,,,,,,,,,None,None,None,None,DIS,3.829,None,None,,,,,,,,,,,,,2015_Sep_18_1934,A,facesParametric,7,59.6754935605,
./basicStim/07F_DI_O.jpg,,0,80,80,29,,,,,,,,,,,None,None,None,None,DIS,0.735,None,None,,,,,,,,,,,,,2015_Sep_18_1934,A,facesParametric,7,59.6754935605,
./basicStim/03F_SA_C.jpg,,0,81,81,18,,,,,,,,,,,SAD,1.967,None,None,None,None,None,None,,,,,,,,,,,,,2015_Sep_18_1934,A,facesParametric,7,59.6754935605,
./basicStim/06F_DI_O.jpg,,0,82,82,22,,,,,,,,,,,None,None,None,None,DIS,0.939,None,None,,,,,,,,,,,,,2015_Sep_18_1934,A,facesParametric,7,59.6754935605,
./basicStim/34M_SP_O.jpg,,0,83,83,75,,,,,,,,,,,None,None,None,None,SUP,1.435,None,None,,,,,,,,,,,,,2015_Sep_18_1934,A,facesParametric,7,59.6754935605,
,,,,,,,,,,,,,,,,,,,,,,,,return,14.7428820133,,,,,,,,,,,2015_Sep_18_1934,A,facesParametric,7,59.6754935605,
,,,,,,,,,,,,,,return,17.8160998821,,,,,,,,,,,,,,,,,,,,,2015_Sep_18_1934,A,facesParametric,7,59.6754935605,
,,,,,,,,,,,,,,,,,,,,,,,,return,14.8816649914,,,,,,,,,,,2015_Sep_18_1934,A,facesParametric,7,59.6754935605,
,,,,,,,,,,,,,,,,,,,,,,,,,,return,2.84919285774,,,,,,,,,2015_Sep_18_1934,A,facesParametric,7,59.6754935605,
./stim/MorphM6_08_orig.jpg,0,,,,,0,0,0,0,,,,,,,,,,,,,,,,,,,-18.10546875,-11.54296875,0,0,1,8.02997708321,,,2015_Sep_18_1934,A,facesParametric,7,59.6754935605,
./stim/MorphF4_09_orig.jpg,1,,,,,0,1,1,1,,,,,,,,,,,,,,,,,,,-18.10546875,-11.54296875,0,0,1,5.57698202133,,,2015_Sep_18_1934,A,facesParametric,7,59.6754935605,
./stim/MorphM4_03_orig.jpg,2,,,,,0,2,2,2,,,,,,,,,,,,,,,,,,,-18.10546875,-11.54296875,1,0,0,1.28748607635,,,2015_Sep_18_1934,A,facesParametric,7,59.6754935605,
./stim/MorphM6_10_orig.jpg,3,,,,,0,3,3,3,,,,,,,,,,,,,,,,,,,-18.10546875,-11.54296875,0,0,1,1.272356987,,,2015_Sep_18_1934,A,facesParametric,7,59.6754935605,
./stim/MorphF1_01_orig.jpg,4,,,,,0,4,4,4,,,,,,,,,,,,,,,,,,,-18.10546875,-11.54296875,1,0,0,0.920222043991,,,2015_Sep_18_1934,A,facesParametric,7,59.6754935605,
./stim/MorphM9_03_orig.jpg,5,,,,,0,5,5,5,,,,,,,,,,,,,,,,,,,-18.10546875,-11.54296875,0,0,1,2.49529290199,,,2015_Sep_18_1934,A,facesParametric,7,59.6754935605,
./stim/MorphF2_08_orig.jpg,6,,,,,0,6,6,6,,,,,,,,,,,,,,,,,,,-18.10546875,-11.54296875,0,0,1,1.4069788456,,,2015_Sep_18_1934,A,facesParametric,7,59.6754935605,
./stim/MorphF9_06_orig.jpg,7,,,,,0,7,7,7,,,,,,,,,,,,,,,,,,,-18.10546875,-11.54296875,1,0,0,1.08636212349,,,2015_Sep_18_1934,A,facesParametric,7,59.6754935605,
./stim/MorphF2_07_orig.jpg,8,,,,,0,8,8,8,,,,,,,,,,,,,,,,,,,-18.10546875,-11.54296875,0,0,1,1.18870186806,,,2015_Sep_18_1934,A,facesParametric,7,59.6754935605,
./stim/MorphM2_03_orig.jpg,9,,,,,0,9,9,9,,,,,,,,,,,,,,,,,,,-18.10546875,-11.54296875,1,0,0,0.970695972443,,,2015_Sep_18_1934,A,facesParametric,7,59.6754935605,
./stim/MorphM3_01_orig.jpg,10,,,,,0,10,10,10,,,,,,,,,,,,,,,,,,,-18.10546875,-11.54296875,1,0,0,1.00466799736,,,2015_Sep_18_1934,A,facesParametric,7,59.6754935605,
./stim/MorphF5_10_orig.jpg,11,,,,,0,11,11,11,,,,,,,,,,,,,,,,,,,-18.10546875,-11.54296875,0,0,1,1.10467004776,,,2015_Sep_18_1934,A,facesParametric,7,59.6754935605,
./stim/MorphF3_05_orig.jpg,12,,,,,0,12,12,12,,,,,,,,,,,,,,,,,,,-18.10546875,-11.54296875,1,0,0,0.870396852493,,,2015_Sep_18_1934,A,facesParametric,7,59.6754935605,
./stim/MorphM1_08_orig.jpg,13,,,,,0,13,13,13,,,,,,,,,,,,,,,,,,,-18.10546875,-11.54296875,1,0,0,1.79242181778,,,2015_Sep_18_1934,A,facesParametric,7,59.6754935605,
./stim/MorphM5_06_orig.jpg,14,,,,,0,14,14,14,,,,,,,,,,,,,,,,,,,-18.10546875,-11.54296875,0,0,1,1.1032679081,,,2015_Sep_18_1934,A,facesParametric,7,59.6754935605,
./stim/MorphM7_10_orig.jpg,15,,,,,0,15,15,15,,,,,,,,,,,,,,,,,,,-18.10546875,-11.54296875,0,0,1,1.03763389587,,,2015_Sep_18_1934,A,facesParametric,7,59.6754935605,
./stim/MorphM3_03_orig.jpg,16,,,,,0,16,16,16,,,,,,,,,,,,,,,,,,,-18.10546875,-11.54296875,0,0,1,1.44007492065,,,2015_Sep_18_1934,A,facesParametric,7,59.6754935605,
./stim/MorphM4_05_orig.jpg,17,,,,,0,17,17,17,,,,,,,,,,,,,,,,,,,-18.10546875,-11.54296875,1,0,0,1.03795099258,,,2015_Sep_18_1934,A,facesParametric,7,59.6754935605,
./stim/MorphM1_05_orig.jpg,18,,,,,0,18,18,18,,,,,,,,,,,,,,,,,,,-18.10546875,-11.54296875,0,0,1,0.953742027283,,,2015_Sep_18_1934,A,facesParametric,7,59.6754935605,
./stim/MorphM9_04_orig.jpg,19,,,,,0,19,19,19,,,,,,,,,,,,,,,,,,,-18.10546875,-11.54296875,1,0,0,7.79023098946,,,2015_Sep_18_1934,A,facesParametric,7,59.6754935605,
./stim/MorphM1_07_orig.jpg,20,,,,,0,20,20,20,,,,,,,,,,,,,,,,,,,-18.10546875,-11.54296875,0,0,1,3.51784396172,,,2015_Sep_18_1934,A,facesParametric,7,59.6754935605,
./stim/MorphF3_00_orig.jpg,21,,,,,0,21,21,21,,,,,,,,,,,,,,,,,,,-18.10546875,-11.54296875,1,0,0,0.937319993973,,,2015_Sep_18_1934,A,facesParametric,7,59.6754935605,
./stim/MorphF6_03_orig.jpg,22,,,,,0,22,22,22,,,,,,,,,,,,,,,,,,,-18.10546875,-11.54296875,1,0,0,1.2890689373,,,2015_Sep_18_1934,A,facesParametric,7,59.6754935605,
./stim/MorphF1_08_orig.jpg,23,,,,,0,23,23,23,,,,,,,,,,,,,,,,,,,-18.10546875,-11.54296875,0,0,1,1.77631783485,,,2015_Sep_18_1934,A,facesParametric,7,59.6754935605,
./stim/MorphM7_05_orig.jpg,24,,,,,0,24,24,24,,,,,,,,,,,,,,,,,,,-18.10546875,-11.54296875,0,0,1,1.55484008789,,,2015_Sep_18_1934,A,facesParametric,7,59.6754935605,
./stim/MorphM2_01_orig.jpg,25,,,,,0,25,25,25,,,,,,,,,,,,,,,,,,,-18.10546875,-11.54296875,1,0,0,1.10520195961,,,2015_Sep_18_1934,A,facesParametric,7,59.6754935605,
./stim/MorphF10_01_orig.jpg,26,,,,,0,26,26,26,,,,,,,,,,,,,,,,,,,-18.10546875,-11.54296875,1,0,0,1.16992282867,,,2015_Sep_18_1934,A,facesParametric,7,59.6754935605,
./stim/MorphM4_04_orig.jpg,27,,,,,0,27,27,27,,,,,,,,,,,,,,,,,,,-18.10546875,-11.54296875,0,0,1,2.46245408058,,,2015_Sep_18_1934,A,facesParametric,7,59.6754935605,
./stim/MorphF5_01_orig.jpg,28,,,,,0,28,28,28,,,,,,,,,,,,,,,,,,,-18.10546875,-11.54296875,1,0,0,1.2367579937,,,2015_Sep_18_1934,A,facesParametric,7,59.6754935605,
./stim/MorphF6_01_orig.jpg,29,,,,,0,29,29,29,,,,,,,,,,,,,,,,,,,-18.10546875,-11.54296875,1,0,0,5.5294508934,,,2015_Sep_18_1934,A,facesParametric,7,59.6754935605,
./stim/MorphM5_05_orig.jpg,30,,,,,0,30,30,30,,,,,,,,,,,,,,,,,,,-18.10546875,-11.54296875,0,0,1,2.29617595673,,,2015_Sep_18_1934,A,facesParametric,7,59.6754935605,
./stim/MorphM1_00_orig.jpg,31,,,,,0,31,31,31,,,,,,,,,,,,,,,,,,,-18.10546875,-11.54296875,0,0,1,1.50610303879,,,2015_Sep_18_1934,A,facesParametric,7,59.6754935605,
./stim/MorphF3_02_orig.jpg,32,,,,,0,32,32,32,,,,,,,,,,,,,,,,,,,-18.10546875,-11.54296875,0,0,1,1.7234120369,,,2015_Sep_18_1934,A,facesParametric,7,59.6754935605,
./stim/MorphF6_06_orig.jpg,33,,,,,0,33,33,33,,,,,,,,,,,,,,,,,,,-18.10546875,-11.54296875,1,0,0,2.27765798569,,,2015_Sep_18_1934,A,facesParametric,7,59.6754935605,
./stim/MorphF8_05_orig.jpg,34,,,,,0,34,34,34,,,,,,,,,,,,,,,,,,,-18.10546875,-11.54296875,1,0,0,3.70255208015,,,2015_Sep_18_1934,A,facesParametric,7,59.6754935605,
./stim/MorphF1_09_orig.jpg,35,,,,,0,35,35,35,,,,,,,,,,,,,,,,,,,-18.10546875,-11.54296875,0,0,1,2.0104970932,,,2015_Sep_18_1934,A,facesParametric,7,59.6754935605,
./stim/MorphF7_07_orig.jpg,36,,,,,0,36,36,36,,,,,,,,,,,,,,,,,,,-18.10546875,-11.54296875,0,0,1,1.18794107437,,,2015_Sep_18_1934,A,facesParametric,7,59.6754935605,
./stim/MorphM6_09_orig.jpg,37,,,,,0,37,37,37,,,,,,,,,,,,,,,,,,,-18.10546875,-11.54296875,0,0,1,1.00413990021,,,2015_Sep_18_1934,A,facesParametric,7,59.6754935605,
./stim/MorphF3_10_orig.jpg,38,,,,,0,38,38,38,,,,,,,,,,,,,,,,,,,-18.10546875,-11.54296875,0,0,1,1.18754220009,,,2015_Sep_18_1934,A,facesParametric,7,59.6754935605,
./stim/MorphF10_03_orig.jpg,39,,,,,0,39,39,39,,,,,,,,,,,,,,,,,,,-18.10546875,-11.54296875,1,0,0,3.75278711319,,,2015_Sep_18_1934,A,facesParametric,7,59.6754935605,
./stim/MorphF8_00_orig.jpg,40,,,,,0,40,40,40,,,,,,,,,,,,,,,,,,,-18.10546875,-11.54296875,1,0,0,0.851789951324,,,2015_Sep_18_1934,A,facesParametric,7,59.6754935605,
./stim/MorphM7_00_orig.jpg,41,,,,,0,41,41,41,,,,,,,,,,,,,,,,,,,-18.10546875,-11.54296875,1,0,0,2.54606795311,,,2015_Sep_18_1934,A,facesParametric,7,59.6754935605,
./stim/MorphM4_09_orig.jpg,42,,,,,0,42,42,42,,,,,,,,,,,,,,,,,,,-18.10546875,-11.54296875,0,0,1,1.64129018784,,,2015_Sep_18_1934,A,facesParametric,7,59.6754935605,
./stim/MorphM3_10_orig.jpg,43,,,,,0,43,43,43,,,,,,,,,,,,,,,,,,,-18.10546875,-11.54296875,0,0,1,1.00397586823,,,2015_Sep_18_1934,A,facesParametric,7,59.6754935605,
./stim/MorphF5_02_orig.jpg,44,,,,,0,44,44,44,,,,,,,,,,,,,,,,,,,-18.10546875,-11.54296875,1,0,0,1.45742297173,,,2015_Sep_18_1934,A,facesParametric,7,59.6754935605,
./stim/MorphF6_04_orig.jpg,45,,,,,0,45,45,45,,,,,,,,,,,,,,,,,,,-18.10546875,-11.54296875,0,0,1,1.873306036,,,2015_Sep_18_1934,A,facesParametric,7,59.6754935605,
./stim/MorphF10_02_orig.jpg,46,,,,,0,46,46,46,,,,,,,,,,,,,,,,,,,-18.10546875,-11.54296875,0,0,1,4.69145798683,,,2015_Sep_18_1934,A,facesParametric,7,59.6754935605,
./stim/MorphF7_08_orig.jpg,47,,,,,0,47,47,47,,,,,,,,,,,,,,,,,,,-18.10546875,-11.54296875,0,0,1,0.886878967285,,,2015_Sep_18_1934,A,facesParametric,7,59.6754935605,
./stim/MorphF10_10_orig.jpg,48,,,,,0,48,48,48,,,,,,,,,,,,,,,,,,,-18.10546875,-11.54296875,0,0,1,0.836892843246,,,2015_Sep_18_1934,A,facesParametric,7,59.6754935605,
./stim/MorphF6_05_orig.jpg,49,,,,,0,49,49,49,,,,,,,,,,,,,,,,,,,-18.10546875,-11.54296875,0,0,1,4.57489109039,,,2015_Sep_18_1934,A,facesParametric,7,59.6754935605,
./stim/MorphF5_00_orig.jpg,50,,,,,0,50,50,50,,,,,,,,,,,,,,,,,,,-18.10546875,-11.54296875,1,0,0,0.886393785477,,,2015_Sep_18_1934,A,facesParametric,7,59.6754935605,
./stim/MorphF2_01_orig.jpg,51,,,,,0,51,51,51,,,,,,,,,,,,,,,,,,,-18.10546875,-11.54296875,0,0,1,1.70609998703,,,2015_Sep_18_1934,A,facesParametric,7,59.6754935605,
./stim/MorphF7_05_orig.jpg,52,,,,,0,52,52,52,,,,,,,,,,,,,,,,,,,-18.10546875,-11.54296875,0,0,1,0.820037841797,,,2015_Sep_18_1934,A,facesParametric,7,59.6754935605,
./stim/MorphF1_00_orig.jpg,53,,,,,0,53,53,53,,,,,,,,,,,,,,,,,,,-18.10546875,-11.54296875,1,0,0,0.903620958328,,,2015_Sep_18_1934,A,facesParametric,7,59.6754935605,
./stim/MorphM3_06_orig.jpg,54,,,,,0,54,54,54,,,,,,,,,,,,,,,,,,,-18.10546875,-11.54296875,0,0,1,0.88577914238,,,2015_Sep_18_1934,A,facesParametric,7,59.6754935605,
./stim/MorphM6_03_orig.jpg,55,,,,,0,55,55,55,,,,,,,,,,,,,,,,,,,-18.10546875,-11.54296875,1,0,0,2.10881710052,,,2015_Sep_18_1934,A,facesParametric,7,59.6754935605,
./stim/MorphM7_06_orig.jpg,56,,,,,0,56,56,56,,,,,,,,,,,,,,,,,,,-18.10546875,-11.54296875,0,0,1,1.57271099091,,,2015_Sep_18_1934,A,facesParametric,7,59.6754935605,
./stim/MorphM2_06_orig.jpg,57,,,,,0,57,57,57,,,,,,,,,,,,,,,,,,,-18.10546875,-11.54296875,0,0,1,4.23779296875,,,2015_Sep_18_1934,A,facesParametric,7,59.6754935605,
./stim/MorphM8_09_orig.jpg,58,,,,,0,58,58,58,,,,,,,,,,,,,,,,,,,-18.10546875,-11.54296875,0,0,1,1.47268605232,,,2015_Sep_18_1934,A,facesParametric,7,59.6754935605,
./stim/MorphM7_04_orig.jpg,59,,,,,0,59,59,59,,,,,,,,,,,,,,,,,,,-18.10546875,-11.54296875,1,0,0,0.886675834656,,,2015_Sep_18_1934,A,facesParametric,7,59.6754935605,
./stim/MorphF2_02_orig.jpg,60,,,,,0,60,60,60,,,,,,,,,,,,,,,,,,,-18.10546875,-11.54296875,1,0,0,2.79854607582,,,2015_Sep_18_1934,A,facesParametric,7,59.6754935605,
./stim/MorphM8_07_orig.jpg,61,,,,,0,61,61,61,,,,,,,,,,,,,,,,,,,-18.10546875,-11.54296875,0,0,1,1.92628884315,,,2015_Sep_18_1934,A,facesParametric,7,59.6754935605,
./stim/MorphF7_09_orig.jpg,62,,,,,0,62,62,62,,,,,,,,,,,,,,,,,,,-18.10546875,-11.54296875,0,0,1,0.852780103683,,,2015_Sep_18_1934,A,facesParametric,7,59.6754935605,
./stim/MorphM2_07_orig.jpg,63,,,,,0,63,63,63,,,,,,,,,,,,,,,,,,,-18.10546875,-11.54296875,0,0,1,1.33915996552,,,2015_Sep_18_1934,A,facesParametric,7,59.6754935605,
./stim/MorphF6_02_orig.jpg,64,,,,,0,64,64,64,,,,,,,,,,,,,,,,,,,-18.10546875,-11.54296875,1,0,0,1.10369086266,,,2015_Sep_18_1934,A,facesParametric,7,59.6754935605,
./stim/MorphM10_07_orig.jpg,65,,,,,0,65,65,65,,,,,,,,,,,,,,,,,,,-18.10546875,-11.54296875,0,0,1,0.804524898529,,,2015_Sep_18_1934,A,facesParametric,7,59.6754935605,
./stim/MorphM7_08_orig.jpg,66,,,,,0,66,66,66,,,,,,,,,,,,,,,,,,,-18.10546875,-11.54296875,0,0,1,1.67216420174,,,2015_Sep_18_1934,A,facesParametric,7,59.6754935605,
./stim/MorphF9_07_orig.jpg,67,,,,,0,67,67,67,,,,,,,,,,,,,,,,,,,-18.10546875,-11.54296875,1,0,0,4.05339312553,,,2015_Sep_18_1934,A,facesParametric,7,59.6754935605,
./stim/MorphF3_03_orig.jpg,68,,,,,0,68,68,68,,,,,,,,,,,,,,,,,,,-18.10546875,-11.54296875,1,0,0,1.25613284111,,,2015_Sep_18_1934,A,facesParametric,7,59.6754935605,
./stim/MorphM10_09_orig.jpg,69,,,,,0,69,69,69,,,,,,,,,,,,,,,,,,,-18.10546875,-11.54296875,0,0,1,1.1200978756,,,2015_Sep_18_1934,A,facesParametric,7,59.6754935605,
./stim/MorphF5_03_orig.jpg,70,,,,,0,70,70,70,,,,,,,,,,,,,,,,,,,-18.10546875,-11.54296875,1,0,0,1.32311010361,,,2015_Sep_18_1934,A,facesParametric,7,59.6754935605,
./stim/MorphF4_01_orig.jpg,71,,,,,0,71,71,71,,,,,,,,,,,,,,,,,,,-18.10546875,-11.54296875,1,0,0,1.38914895058,,,2015_Sep_18_1934,A,facesParametric,7,59.6754935605,
./stim/MorphF8_09_orig.jpg,72,,,,,0,72,72,72,,,,,,,,,,,,,,,,,,,-18.10546875,-11.54296875,0,0,1,0.970626115799,,,2015_Sep_18_1934,A,facesParametric,7,59.6754935605,
./stim/MorphM3_09_orig.jpg,73,,,,,0,73,73,73,,,,,,,,,,,,,,,,,,,-18.10546875,-11.54296875,0,0,1,0.8703789711,,,2015_Sep_18_1934,A,facesParametric,7,59.6754935605,
./stim/MorphF7_06_orig.jpg,74,,,,,0,74,74,74,,,,,,,,,,,,,,,,,,,-18.10546875,-11.54296875,0,0,1,1.28911995888,,,2015_Sep_18_1934,A,facesParametric,7,59.6754935605,
./stim/MorphM6_05_orig.jpg,75,,,,,0,75,75,75,,,,,,,,,,,,,,,,,,,-18.10546875,-11.54296875,1,0,0,1.25454711914,,,2015_Sep_18_1934,A,facesParametric,7,59.6754935605,
./stim/MorphF6_00_orig.jpg,76,,,,,0,76,76,76,,,,,,,,,,,,,,,,,,,-18.10546875,-11.54296875,1,0,0,1.40689086914,,,2015_Sep_18_1934,A,facesParametric,7,59.6754935605,
./stim/MorphF2_10_orig.jpg,77,,,,,0,77,77,77,,,,,,,,,,,,,,,,,,,-18.10546875,-11.54296875,0,0,1,1.62250900269,,,2015_Sep_18_1934,A,facesParametric,7,59.6754935605,
./stim/MorphF5_05_orig.jpg,78,,,,,0,78,78,78,,,,,,,,,,,,,,,,,,,-18.10546875,-11.54296875,1,0,0,1.05427193642,,,2015_Sep_18_1934,A,facesParametric,7,59.6754935605,
./stim/MorphM2_05_orig.jpg,79,,,,,0,79,79,79,,,,,,,,,,,,,,,,,,,-18.10546875,-11.54296875,1,0,0,2.96593880653,,,2015_Sep_18_1934,A,facesParametric,7,59.6754935605,
./stim/MorphF4_02_orig.jpg,80,,,,,0,80,80,80,,,,,,,,,,,,,,,,,,,-18.10546875,-11.54296875,1,0,0,1.12122488022,,,2015_Sep_18_1934,A,facesParametric,7,59.6754935605,
./stim/MorphF2_09_orig.jpg,81,,,,,0,81,81,81,,,,,,,,,,,,,,,,,,,-18.10546875,-11.54296875,0,0,1,0.902363061905,,,2015_Sep_18_1934,A,facesParametric,7,59.6754935605,
./stim/MorphF4_06_orig.jpg,82,,,,,0,82,82,82,,,,,,,,,,,,,,,,,,,-18.10546875,-11.54296875,1,0,0,1.89052987099,,,2015_Sep_18_1934,A,facesParametric,7,59.6754935605,
./stim/MorphM1_02_orig.jpg,83,,,,,0,83,83,83,,,,,,,,,,,,,,,,,,,-18.10546875,-11.54296875,1,0,0,2.44561886787,,,2015_Sep_18_1934,A,facesParametric,7,59.6754935605,
./stim/MorphF6_07_orig.jpg,84,,,,,0,84,84,84,,,,,,,,,,,,,,,,,,,-18.10546875,-11.54296875,1,0,0,7.69154119492,,,2015_Sep_18_1934,A,facesParametric,7,59.6754935605,
./stim/MorphM7_01_orig.jpg,85,,,,,0,85,85,85,,,,,,,,,,,,,,,,,,,-18.10546875,-11.54296875,1,0,0,1.70828795433,,,2015_Sep_18_1934,A,facesParametric,7,59.6754935605,
./stim/MorphF2_06_orig.jpg,86,,,,,0,86,86,86,,,,,,,,,,,,,,,,,,,-18.10546875,-11.54296875,0,0,1,5.46244001389,,,2015_Sep_18_1934,A,facesParametric,7,59.6754935605,
./stim/MorphF4_00_orig.jpg,87,,,,,0,87,87,87,,,,,,,,,,,,,,,,,,,-18.10546875,-11.54296875,1,0,0,0.887109041214,,,2015_Sep_18_1934,A,facesParametric,7,59.6754935605,
./stim/MorphF9_03_orig.jpg,88,,,,,0,88,88,88,,,,,,,,,,,,,,,,,,,-18.10546875,-11.54296875,1,0,0,1.45641207695,,,2015_Sep_18_1934,A,facesParametric,7,59.6754935605,
./stim/MorphM4_00_orig.jpg,89,,,,,0,89,89,89,,,,,,,,,,,,,,,,,,,-18.10546875,-11.54296875,1,0,0,1.87636899948,,,2015_Sep_18_1934,A,facesParametric,7,59.6754935605,
./stim/MorphF2_00_orig.jpg,90,,,,,0,90,90,90,,,,,,,,,,,,,,,,,,,-18.10546875,-11.54296875,1,0,0,4.7571709156,,,2015_Sep_18_1934,A,facesParametric,7,59.6754935605,
./stim/MorphF6_09_orig.jpg,91,,,,,0,91,91,91,,,,,,,,,,,,,,,,,,,-18.10546875,-11.54296875,1,0,0,1.08828902245,,,2015_Sep_18_1934,A,facesParametric,7,59.6754935605,
./stim/MorphM9_00_orig.jpg,92,,,,,0,92,92,92,,,,,,,,,,,,,,,,,,,-18.10546875,-11.54296875,1,0,0,4.20397591591,,,2015_Sep_18_1934,A,facesParametric,7,59.6754935605,
./stim/MorphM6_01_orig.jpg,93,,,,,0,93,93,93,,,,,,,,,,,,,,,,,,,-18.10546875,-11.54296875,1,0,0,1.30598497391,,,2015_Sep_18_1934,A,facesParametric,7,59.6754935605,
./stim/MorphF5_04_orig.jpg,94,,,,,0,94,94,94,,,,,,,,,,,,,,,,,,,-18.10546875,-11.54296875,1,0,0,1.07171010971,,,2015_Sep_18_1934,A,facesParametric,7,59.6754935605,
./stim/MorphM6_06_orig.jpg,95,,,,,0,95,95,95,,,,,,,,,,,,,,,,,,,-18.10546875,-11.54296875,1,0,0,1.79151701927,,,2015_Sep_18_1934,A,facesParametric,7,59.6754935605,
./stim/MorphM4_08_orig.jpg,96,,,,,0,96,96,96,,,,,,,,,,,,,,,,,,,-18.10546875,-11.54296875,0,0,1,1.33793902397,,,2015_Sep_18_1934,A,facesParametric,7,59.6754935605,
./stim/MorphM10_04_orig.jpg,97,,,,,0,97,97,97,,,,,,,,,,,,,,,,,,,-18.10546875,-11.54296875,0,0,1,1.17007303238,,,2015_Sep_18_1934,A,facesParametric,7,59.6754935605,
./stim/MorphF2_04_orig.jpg,98,,,,,0,98,98,98,,,,,,,,,,,,,,,,,,,-18.10546875,-11.54296875,1,0,0,1.47351098061,,,2015_Sep_18_1934,A,facesParametric,7,59.6754935605,
./stim/MorphF9_10_orig.jpg,99,,,,,0,99,99,99,,,,,,,,,,,,,,,,,,,-18.10546875,-11.54296875,0,0,1,0.985635042191,,,2015_Sep_18_1934,A,facesParametric,7,59.6754935605,
./stim/MorphF7_01_orig.jpg,100,,,,,0,100,100,100,,,,,,,,,,,,,,,,,,,-18.10546875,-11.54296875,1,0,0,2.91485691071,,,2015_Sep_18_1934,A,facesParametric,7,59.6754935605,
./stim/MorphM1_06_orig.jpg,101,,,,,0,101,101,101,,,,,,,,,,,,,,,,,,,-18.10546875,-11.54296875,1,0,0,3.33476805687,,,2015_Sep_18_1934,A,facesParametric,7,59.6754935605,
./stim/MorphM3_08_orig.jpg,102,,,,,0,102,102,102,,,,,,,,,,,,,,,,,,,-18.10546875,-11.54296875,0,0,1,0.718263864517,,,2015_Sep_18_1934,A,facesParametric,7,59.6754935605,
./stim/MorphF8_10_orig.jpg,103,,,,,0,103,103,103,,,,,,,,,,,,,,,,,,,-18.10546875,-11.54296875,0,0,1,0.837215900421,,,2015_Sep_18_1934,A,facesParametric,7,59.6754935605,
./stim/MorphF9_08_orig.jpg,104,,,,,0,104,104,104,,,,,,,,,,,,,,,,,,,-18.10546875,-11.54296875,0,0,1,0.835243940353,,,2015_Sep_18_1934,A,facesParametric,7,59.6754935605,
./stim/MorphM2_02_orig.jpg,105,,,,,0,105,105,105,,,,,,,,,,,,,,,,,,,-18.10546875,-11.54296875,1,0,0,0.970704078674,,,2015_Sep_18_1934,A,facesParametric,7,59.6754935605,
./stim/MorphM9_05_orig.jpg,106,,,,,0,106,106,106,,,,,,,,,,,,,,,,,,,-18.10546875,-11.54296875,1,0,0,1.37337088585,,,2015_Sep_18_1934,A,facesParametric,7,59.6754935605,
./stim/MorphM3_04_orig.jpg,107,,,,,0,107,107,107,,,,,,,,,,,,,,,,,,,-18.10546875,-11.54296875,0,0,1,0.751415967941,,,2015_Sep_18_1934,A,facesParametric,7,59.6754935605,
./stim/MorphF2_03_orig.jpg,108,,,,,0,108,108,108,,,,,,,,,,,,,,,,,,,-18.10546875,-11.54296875,0,0,1,1.08811211586,,,2015_Sep_18_1934,A,facesParametric,7,59.6754935605,
./stim/MorphM10_01_orig.jpg,109,,,,,0,109,109,109,,,,,,,,,,,,,,,,,,,-18.10546875,-11.54296875,1,0,0,0.920383930206,,,2015_Sep_18_1934,A,facesParametric,7,59.6754935605,
./stim/MorphM6_02_orig.jpg,110,,,,,0,110,110,110,,,,,,,,,,,,,,,,,,,-18.10546875,-11.54296875,1,0,0,1.57450819016,,,2015_Sep_18_1934,A,facesParametric,7,59.6754935605,
./stim/MorphF9_02_orig.jpg,111,,,,,0,111,111,111,,,,,,,,,,,,,,,,,,,-18.10546875,-11.54296875,1,0,0,0.951845884323,,,2015_Sep_18_1934,A,facesParametric,7,59.6754935605,
./stim/MorphM9_01_orig.jpg,112,,,,,0,112,112,112,,,,,,,,,,,,,,,,,,,-18.10546875,-11.54296875,1,0,0,1.13677310944,,,2015_Sep_18_1934,A,facesParametric,7,59.6754935605,
./stim/MorphM1_04_orig.jpg,113,,,,,0,113,113,113,,,,,,,,,,,,,,,,,,,-18.10546875,-11.54296875,1,0,0,1.13748693466,,,2015_Sep_18_1934,A,facesParametric,7,59.6754935605,
./stim/MorphM5_02_orig.jpg,114,,,,,0,114,114,114,,,,,,,,,,,,,,,,,,,-18.10546875,-11.54296875,1,0,0,1.62372016907,,,2015_Sep_18_1934,A,facesParametric,7,59.6754935605,
./stim/MorphF3_04_orig.jpg,115,,,,,0,115,115,115,,,,,,,,,,,,,,,,,,,-18.10546875,-11.54296875,1,0,0,0.987862825394,,,2015_Sep_18_1934,A,facesParametric,7,59.6754935605,
./stim/MorphF10_07_orig.jpg,116,,,,,0,116,116,116,,,,,,,,,,,,,,,,,,,-18.10546875,-11.54296875,0,0,1,0.937428951263,,,2015_Sep_18_1934,A,facesParametric,7,59.6754935605,
./stim/MorphF3_06_orig.jpg,117,,,,,0,117,117,117,,,,,,,,,,,,,,,,,,,-18.10546875,-11.54296875,1,0,0,0.884485960007,,,2015_Sep_18_1934,A,facesParametric,7,59.6754935605,
./stim/MorphM8_08_orig.jpg,118,,,,,0,118,118,118,,,,,,,,,,,,,,,,,,,-18.10546875,-11.54296875,0,0,1,3.19787597656,,,2015_Sep_18_1934,A,facesParametric,7,59.6754935605,
./stim/MorphM7_07_orig.jpg,119,,,,,0,119,119,119,,,,,,,,,,,,,,,,,,,-18.10546875,-11.54296875,0,0,1,1.00404691696,,,2015_Sep_18_1934,A,facesParametric,7,59.6754935605,
./stim/MorphF5_06_orig.jpg,120,,,,,0,120,120,120,,,,,,,,,,,,,,,,,,,-18.10546875,-11.54296875,1,0,0,2.66366410255,,,2015_Sep_18_1934,A,facesParametric,7,59.6754935605,
./stim/MorphM6_07_orig.jpg,121,,,,,0,121,121,121,,,,,,,,,,,,,,,,,,,-18.10546875,-11.54296875,1,0,0,1.95813894272,,,2015_Sep_18_1934,A,facesParametric,7,59.6754935605,
./stim/MorphM9_08_orig.jpg,122,,,,,0,122,122,122,,,,,,,,,,,,,,,,,,,-18.10546875,-11.54296875,1,0,0,1.69136309624,,,2015_Sep_18_1934,A,facesParametric,7,59.6754935605,
./stim/MorphM4_07_orig.jpg,123,,,,,0,123,123,123,,,,,,,,,,,,,,,,,,,-18.10546875,-11.54296875,0,0,1,2.42915201187,,,2015_Sep_18_1934,A,facesParametric,7,59.6754935605,
./stim/MorphM2_00_orig.jpg,124,,,,,0,124,124,124,,,,,,,,,,,,,,,,,,,-18.10546875,-11.54296875,1,0,0,3.68450284004,,,2015_Sep_18_1934,A,facesParametric,7,59.6754935605,
./stim/MorphF8_02_orig.jpg,125,,,,,0,125,125,125,,,,,,,,,,,,,,,,,,,-18.10546875,-11.54296875,1,0,0,1.20590901375,,,2015_Sep_18_1934,A,facesParametric,7,59.6754935605,
./stim/MorphM10_03_orig.jpg,126,,,,,0,126,126,126,,,,,,,,,,,,,,,,,,,-18.10546875,-11.54296875,1,0,0,0.870399951935,,,2015_Sep_18_1934,A,facesParametric,7,59.6754935605,
./stim/MorphF8_06_orig.jpg,127,,,,,0,127,127,127,,,,,,,,,,,,,,,,,,,-18.10546875,-11.54296875,1,0,0,0.903532981873,,,2015_Sep_18_1934,A,facesParametric,7,59.6754935605,
./stim/MorphM5_08_orig.jpg,128,,,,,0,128,128,128,,,,,,,,,,,,,,,,,,,-18.10546875,-11.54296875,1,0,0,1.75809502602,,,2015_Sep_18_1934,A,facesParametric,7,59.6754935605,
./stim/MorphF6_10_orig.jpg,129,,,,,0,129,129,129,,,,,,,,,,,,,,,,,,,-18.10546875,-11.54296875,0,0,1,0.954311132431,,,2015_Sep_18_1934,A,facesParametric,7,59.6754935605,
./stim/MorphF2_05_orig.jpg,130,,,,,0,130,130,130,,,,,,,,,,,,,,,,,,,-18.10546875,-11.54296875,0,0,1,0.870561122894,,,2015_Sep_18_1934,A,facesParametric,7,59.6754935605,
./stim/MorphF9_01_orig.jpg,131,,,,,0,131,131,131,,,,,,,,,,,,,,,,,,,-18.10546875,-11.54296875,1,0,0,0.91782784462,,,2015_Sep_18_1934,A,facesParametric,7,59.6754935605,
./stim/MorphM1_10_orig.jpg,132,,,,,0,132,132,132,,,,,,,,,,,,,,,,,,,-18.10546875,-11.54296875,0,0,1,1.37322616577,,,2015_Sep_18_1934,A,facesParametric,7,59.6754935605,
./stim/MorphM5_01_orig.jpg,133,,,,,0,133,133,133,,,,,,,,,,,,,,,,,,,-18.10546875,-11.54296875,1,0,0,2.17624092102,,,2015_Sep_18_1934,A,facesParametric,7,59.6754935605,
./stim/MorphM8_10_orig.jpg,134,,,,,0,134,134,134,,,,,,,,,,,,,,,,,,,-18.10546875,-11.54296875,0,0,1,1.13779211044,,,2015_Sep_18_1934,A,facesParametric,7,59.6754935605,
./stim/MorphF7_03_orig.jpg,135,,,,,0,135,135,135,,,,,,,,,,,,,,,,,,,-18.10546875,-11.54296875,0,0,1,1.80769300461,,,2015_Sep_18_1934,A,facesParametric,7,59.6754935605,
./stim/MorphM6_00_orig.jpg,136,,,,,0,136,136,136,,,,,,,,,,,,,,,,,,,-18.10546875,-11.54296875,1,0,0,1.77504301071,,,2015_Sep_18_1934,A,facesParametric,7,59.6754935605,
./stim/MorphM8_00_orig.jpg,137,,,,,0,137,137,137,,,,,,,,,,,,,,,,,,,-18.10546875,-11.54296875,1,0,0,1.28912615776,,,2015_Sep_18_1934,A,facesParametric,7,59.6754935605,
./stim/MorphF1_04_orig.jpg,138,,,,,0,138,138,138,,,,,,,,,,,,,,,,,,,-18.10546875,-11.54296875,1,0,0,3.21585798264,,,2015_Sep_18_1934,A,facesParametric,7,59.6754935605,
./stim/MorphF9_09_orig.jpg,139,,,,,0,139,139,139,,,,,,,,,,,,,,,,,,,-18.076171875,-11.54296875,0,0,1,5.47914099693,,,2015_Sep_18_1934,A,facesParametric,7,59.6754935605,
./stim/MorphM4_06_orig.jpg,140,,,,,0,140,140,140,,,,,,,,,,,,,,,,,,,-18.046875,-11.54296875,0,0,1,2.12719798088,,,2015_Sep_18_1934,A,facesParametric,7,59.6754935605,
./stim/MorphM7_03_orig.jpg,141,,,,,0,141,141,141,,,,,,,,,,,,,,,,,,,-18.046875,-11.54296875,1,0,0,1.05428218842,,,2015_Sep_18_1934,A,facesParametric,7,59.6754935605,
./stim/MorphF4_07_orig.jpg,142,,,,,0,142,142,142,,,,,,,,,,,,,,,,,,,-18.046875,-11.54296875,1,0,0,1.23925089836,,,2015_Sep_18_1934,A,facesParametric,7,59.6754935605,
./stim/MorphF1_07_orig.jpg,143,,,,,0,143,143,143,,,,,,,,,,,,,,,,,,,-18.046875,-11.54296875,1,0,0,1.82531404495,,,2015_Sep_18_1934,A,facesParametric,7,59.6754935605,
./stim/MorphM8_06_orig.jpg,144,,,,,0,144,144,144,,,,,,,,,,,,,,,,,,,-18.046875,-11.54296875,0,0,1,1.22194600105,,,2015_Sep_18_1934,A,facesParametric,7,59.6754935605,
./stim/MorphF10_09_orig.jpg,145,,,,,0,145,145,145,,,,,,,,,,,,,,,,,,,-18.046875,-11.54296875,0,0,1,0.753000020981,,,2015_Sep_18_1934,A,facesParametric,7,59.6754935605,
./stim/MorphM9_09_orig.jpg,146,,,,,0,146,146,146,,,,,,,,,,,,,,,,,,,-18.046875,-11.54296875,0,0,1,1.03712415695,,,2015_Sep_18_1934,A,facesParametric,7,59.6754935605,
./stim/MorphF10_04_orig.jpg,147,,,,,0,147,147,147,,,,,,,,,,,,,,,,,,,-18.046875,-11.54296875,1,0,0,1.27209711075,,,2015_Sep_18_1934,A,facesParametric,7,59.6754935605,
./stim/MorphM4_02_orig.jpg,148,,,,,0,148,148,148,,,,,,,,,,,,,,,,,,,-18.046875,-11.54296875,1,0,0,1.10465598106,,,2015_Sep_18_1934,A,facesParametric,7,59.6754935605,
./stim/MorphM1_09_orig.jpg,149,,,,,0,149,149,149,,,,,,,,,,,,,,,,,,,-18.046875,-11.54296875,1,0,0,1.9259929657,,,2015_Sep_18_1934,A,facesParametric,7,59.6754935605,
./stim/MorphM3_00_orig.jpg,150,,,,,0,150,150,150,,,,,,,,,,,,,,,,,,,-18.046875,-11.54296875,0,0,1,0.819948196411,,,2015_Sep_18_1934,A,facesParametric,7,59.6754935605,
./stim/MorphM9_10_orig.jpg,151,,,,,0,151,151,151,,,,,,,,,,,,,,,,,,,-18.046875,-11.54296875,0,0,1,0.93764090538,,,2015_Sep_18_1934,A,facesParametric,7,59.6754935605,
./stim/MorphM8_03_orig.jpg,152,,,,,0,152,152,152,,,,,,,,,,,,,,,,,,,-18.046875,-11.54296875,1,0,0,1.00428581238,,,2015_Sep_18_1934,A,facesParametric,7,59.6754935605,
./stim/MorphF9_00_orig.jpg,153,,,,,0,153,153,153,,,,,,,,,,,,,,,,,,,-18.046875,-11.54296875,1,0,0,1.03702998161,,,2015_Sep_18_1934,A,facesParametric,7,59.6754935605,
./stim/MorphM9_07_orig.jpg,154,,,,,0,154,154,154,,,,,,,,,,,,,,,,,,,-18.046875,-11.54296875,0,0,1,3.88655400276,,,2015_Sep_18_1934,A,facesParametric,7,59.6754935605,
./stim/MorphF8_08_orig.jpg,155,,,,,0,155,155,155,,,,,,,,,,,,,,,,,,,-18.046875,-11.54296875,0,0,1,0.786182165146,,,2015_Sep_18_1934,A,facesParametric,7,59.6754935605,
./stim/MorphF5_08_orig.jpg,156,,,,,0,156,156,156,,,,,,,,,,,,,,,,,,,-18.046875,-11.54296875,0,0,1,1.20538592339,,,2015_Sep_18_1934,A,facesParametric,7,59.6754935605,
./stim/MorphM10_00_orig.jpg,157,,,,,0,157,157,157,,,,,,,,,,,,,,,,,,,-18.046875,-11.54296875,1,0,0,1.13832592964,,,2015_Sep_18_1934,A,facesParametric,7,59.6754935605,
./stim/MorphM7_09_orig.jpg,158,,,,,0,158,158,158,,,,,,,,,,,,,,,,,,,-18.046875,-11.54296875,0,0,1,0.919963121414,,,2015_Sep_18_1934,A,facesParametric,7,59.6754935605,
./stim/MorphF8_07_orig.jpg,159,,,,,0,159,159,159,,,,,,,,,,,,,,,,,,,-18.046875,-11.54296875,0,0,1,1.37287092209,,,2015_Sep_18_1934,A,facesParametric,7,59.6754935605,
./stim/MorphF4_03_orig.jpg,160,,,,,0,160,160,160,,,,,,,,,,,,,,,,,,,-18.046875,-11.54296875,1,0,0,0.937108039856,,,2015_Sep_18_1934,A,facesParametric,7,59.6754935605,
./stim/MorphF5_09_orig.jpg,161,,,,,0,161,161,161,,,,,,,,,,,,,,,,,,,-18.046875,-11.54296875,0,0,1,1.05349802971,,,2015_Sep_18_1934,A,facesParametric,7,59.6754935605,
./stim/MorphF9_04_orig.jpg,162,,,,,0,162,162,162,,,,,,,,,,,,,,,,,,,-18.046875,-11.54296875,0,0,1,1.77554416656,,,2015_Sep_18_1934,A,facesParametric,7,59.6754935605,
./stim/MorphM3_07_orig.jpg,163,,,,,0,163,163,163,,,,,,,,,,,,,,,,,,,-18.046875,-11.54296875,0,0,1,1.72375893593,,,2015_Sep_18_1934,A,facesParametric,7,59.6754935605,
./stim/MorphF6_08_orig.jpg,164,,,,,0,164,164,164,,,,,,,,,,,,,,,,,,,-18.046875,-11.54296875,0,0,1,1.10477900505,,,2015_Sep_18_1934,A,facesParametric,7,59.6754935605,
./stim/MorphM1_03_orig.jpg,165,,,,,0,165,165,165,,,,,,,,,,,,,,,,,,,-18.046875,-11.54296875,1,0,0,1.23774695396,,,2015_Sep_18_1934,A,facesParametric,7,59.6754935605,
./stim/MorphM5_00_orig.jpg,166,,,,,0,166,166,166,,,,,,,,,,,,,,,,,,,-18.046875,-11.54296875,1,0,0,1.40672492981,,,2015_Sep_18_1934,A,facesParametric,7,59.6754935605,
./stim/MorphF10_05_orig.jpg,167,,,,,0,167,167,167,,,,,,,,,,,,,,,,,,,-18.046875,-11.54296875,0,0,1,0.734165906906,,,2015_Sep_18_1934,A,facesParametric,7,59.6754935605,
./stim/MorphF3_09_orig.jpg,168,,,,,0,168,168,168,,,,,,,,,,,,,,,,,,,-18.046875,-11.54296875,0,0,1,0.904195785522,,,2015_Sep_18_1934,A,facesParametric,7,59.6754935605,
./stim/MorphF4_10_orig.jpg,169,,,,,0,169,169,169,,,,,,,,,,,,,,,,,,,-18.046875,-11.54296875,0,0,1,1.62409496307,,,2015_Sep_18_1934,A,facesParametric,7,59.6754935605,
./stim/MorphM8_04_orig.jpg,170,,,,,0,170,170,170,,,,,,,,,,,,,,,,,,,-18.046875,-11.54296875,1,0,0,1.271515131,,,2015_Sep_18_1934,A,facesParametric,7,59.6754935605,
./stim/MorphF3_07_orig.jpg,171,,,,,0,171,171,171,,,,,,,,,,,,,,,,,,,-18.046875,-11.54296875,0,0,1,1.03770899773,,,2015_Sep_18_1934,A,facesParametric,7,59.6754935605,
./stim/MorphM2_10_orig.jpg,172,,,,,0,172,172,172,,,,,,,,,,,,,,,,,,,-18.046875,-11.54296875,0,0,1,1.79227614403,,,2015_Sep_18_1934,A,facesParametric,7,59.6754935605,
./stim/MorphM8_05_orig.jpg,173,,,,,0,173,173,173,,,,,,,,,,,,,,,,,,,-18.046875,-11.54296875,0,0,1,1.67489790916,,,2015_Sep_18_1934,A,facesParametric,7,59.6754935605,
./stim/MorphF4_08_orig.jpg,174,,,,,0,174,174,174,,,,,,,,,,,,,,,,,,,-18.046875,-11.54296875,1,0,0,1.08797001839,,,2015_Sep_18_1934,A,facesParametric,7,59.6754935605,
./stim/MorphF7_00_orig.jpg,175,,,,,0,175,175,175,,,,,,,,,,,,,,,,,,,-18.046875,-11.54296875,1,0,0,1.57326102257,,,2015_Sep_18_1934,A,facesParametric,7,59.6754935605,
./stim/MorphM6_04_orig.jpg,176,,,,,0,176,176,176,,,,,,,,,,,,,,,,,,,-18.046875,-11.54296875,1,0,0,1.10535001755,,,2015_Sep_18_1934,A,facesParametric,7,59.6754935605,
./stim/MorphF7_10_orig.jpg,177,,,,,0,177,177,177,,,,,,,,,,,,,,,,,,,-18.046875,-11.54296875,0,0,1,0.819689035416,,,2015_Sep_18_1934,A,facesParametric,7,59.6754935605,
./stim/MorphF10_00_orig.jpg,178,,,,,0,178,178,178,,,,,,,,,,,,,,,,,,,-18.046875,-11.54296875,1,0,0,1.77552509308,,,2015_Sep_18_1934,A,facesParametric,7,59.6754935605,
./stim/MorphM4_01_orig.jpg,179,,,,,0,179,179,179,,,,,,,,,,,,,,,,,,,-18.046875,-11.54296875,1,0,0,1.08805894852,,,2015_Sep_18_1934,A,facesParametric,7,59.6754935605,
./stim/MorphM3_05_orig.jpg,180,,,,,0,180,180,180,,,,,,,,,,,,,,,,,,,-18.046875,-11.54296875,0,0,1,1.03661108017,,,2015_Sep_18_1934,A,facesParametric,7,59.6754935605,
./stim/MorphM8_02_orig.jpg,181,,,,,0,181,181,181,,,,,,,,,,,,,,,,,,,-18.046875,-11.54296875,0,0,1,1.67303991318,,,2015_Sep_18_1934,A,facesParametric,7,59.6754935605,
./stim/MorphF3_01_orig.jpg,182,,,,,0,182,182,182,,,,,,,,,,,,,,,,,,,-18.046875,-11.54296875,1,0,0,4.40498805046,,,2015_Sep_18_1934,A,facesParametric,7,59.6754935605,
./stim/MorphF1_02_orig.jpg,183,,,,,0,183,183,183,,,,,,,,,,,,,,,,,,,-18.046875,-11.54296875,0,0,1,1.97646188736,,,2015_Sep_18_1934,A,facesParametric,7,59.6754935605,
./stim/MorphM2_04_orig.jpg,184,,,,,0,184,184,184,,,,,,,,,,,,,,,,,,,-18.046875,-11.54296875,1,0,0,1.12202119827,,,2015_Sep_18_1934,A,facesParametric,7,59.6754935605,
./stim/MorphF1_05_orig.jpg,185,,,,,0,185,185,185,,,,,,,,,,,,,,,,,,,-18.046875,-11.54296875,1,0,0,4.22012495995,,,2015_Sep_18_1934,A,facesParametric,7,59.6754935605,
./stim/MorphF4_05_orig.jpg,186,,,,,0,186,186,186,,,,,,,,,,,,,,,,,,,-18.046875,-11.54296875,1,0,0,0.987935066223,,,2015_Sep_18_1934,A,facesParametric,7,59.6754935605,
./stim/MorphF7_04_orig.jpg,187,,,,,0,187,187,187,,,,,,,,,,,,,,,,,,,-18.046875,-11.54296875,1,0,0,1.84014797211,,,2015_Sep_18_1934,A,facesParametric,7,59.6754935605,
./stim/MorphM3_02_orig.jpg,188,,,,,0,188,188,188,,,,,,,,,,,,,,,,,,,-18.046875,-11.54296875,0,0,1,0.853116989136,,,2015_Sep_18_1934,A,facesParametric,7,59.6754935605,
./stim/MorphM5_10_orig.jpg,189,,,,,0,189,189,189,,,,,,,,,,,,,,,,,,,-18.046875,-11.54296875,0,0,1,1.38980984688,,,2015_Sep_18_1934,A,facesParametric,7,59.6754935605,
./stim/MorphM7_02_orig.jpg,190,,,,,0,190,190,190,,,,,,,,,,,,,,,,,,,-18.046875,-11.54296875,1,0,0,0.987414836884,,,2015_Sep_18_1934,A,facesParametric,7,59.6754935605,
./stim/MorphM10_06_orig.jpg,191,,,,,0,191,191,191,,,,,,,,,,,,,,,,,,,-18.046875,-11.54296875,0,0,1,0.769486188889,,,2015_Sep_18_1934,A,facesParametric,7,59.6754935605,
./stim/MorphF5_07_orig.jpg,192,,,,,0,192,192,192,,,,,,,,,,,,,,,,,,,-18.046875,-11.54296875,0,0,1,0.987725019455,,,2015_Sep_18_1934,A,facesParametric,7,59.6754935605,
./stim/MorphF1_03_orig.jpg,193,,,,,0,193,193,193,,,,,,,,,,,,,,,,,,,-18.046875,-11.54296875,0,0,1,3.41751885414,,,2015_Sep_18_1934,A,facesParametric,7,59.6754935605,
./stim/MorphM5_07_orig.jpg,194,,,,,0,194,194,194,,,,,,,,,,,,,,,,,,,-18.046875,-11.54296875,0,0,1,0.93744802475,,,2015_Sep_18_1934,A,facesParametric,7,59.6754935605,
./stim/MorphM10_10_orig.jpg,195,,,,,0,195,195,195,,,,,,,,,,,,,,,,,,,-18.046875,-11.54296875,0,0,1,0.786092042923,,,2015_Sep_18_1934,A,facesParametric,7,59.6754935605,
./stim/MorphF3_08_orig.jpg,196,,,,,0,196,196,196,,,,,,,,,,,,,,,,,,,-18.046875,-11.54296875,0,0,1,0.836760997772,,,2015_Sep_18_1934,A,facesParametric,7,59.6754935605,
./stim/MorphF8_01_orig.jpg,197,,,,,0,197,197,197,,,,,,,,,,,,,,,,,,,-18.046875,-11.54296875,1,0,0,1.59062218666,,,2015_Sep_18_1934,A,facesParametric,7,59.6754935605,
./stim/MorphM1_01_orig.jpg,198,,,,,0,198,198,198,,,,,,,,,,,,,,,,,,,-18.046875,-11.54296875,1,0,0,1.18913698196,,,2015_Sep_18_1934,A,facesParametric,7,59.6754935605,
./stim/MorphM2_08_orig.jpg,199,,,,,0,199,199,199,,,,,,,,,,,,,,,,,,,-18.046875,-11.54296875,0,0,1,1.6571149826,,,2015_Sep_18_1934,A,facesParametric,7,59.6754935605,
./stim/MorphF8_04_orig.jpg,200,,,,,0,200,200,200,,,,,,,,,,,,,,,,,,,-18.046875,-11.54296875,1,0,0,1.32256293297,,,2015_Sep_18_1934,A,facesParametric,7,59.6754935605,
./stim/MorphM2_09_orig.jpg,201,,,,,0,201,201,201,,,,,,,,,,,,,,,,,,,-18.046875,-11.54296875,0,0,1,1.00468206406,,,2015_Sep_18_1934,A,facesParametric,7,59.6754935605,
./stim/MorphF10_08_orig.jpg,202,,,,,0,202,202,202,,,,,,,,,,,,,,,,,,,-18.046875,-11.54296875,0,0,1,0.801073074341,,,2015_Sep_18_1934,A,facesParametric,7,59.6754935605,
./stim/MorphM9_02_orig.jpg,203,,,,,0,203,203,203,,,,,,,,,,,,,,,,,,,-18.046875,-11.54296875,1,0,0,1.10240197182,,,2015_Sep_18_1934,A,facesParametric,7,59.6754935605,
./stim/MorphF9_05_orig.jpg,204,,,,,0,204,204,204,,,,,,,,,,,,,,,,,,,-18.046875,-11.54296875,1,0,0,1.20517110825,,,2015_Sep_18_1934,A,facesParametric,7,59.6754935605,
./stim/MorphM5_03_orig.jpg,205,,,,,0,205,205,205,,,,,,,,,,,,,,,,,,,-18.046875,-11.54296875,0,0,1,3.75285387039,,,2015_Sep_18_1934,A,facesParametric,7,59.6754935605,
./stim/MorphM9_06_orig.jpg,206,,,,,0,206,206,206,,,,,,,,,,,,,,,,,,,-18.046875,-11.54296875,0,0,1,1.25539708138,,,2015_Sep_18_1934,A,facesParametric,7,59.6754935605,
./stim/MorphF10_06_orig.jpg,207,,,,,0,207,207,207,,,,,,,,,,,,,,,,,,,-18.046875,-11.54296875,0,0,1,0.768019914627,,,2015_Sep_18_1934,A,facesParametric,7,59.6754935605,
./stim/MorphM4_10_orig.jpg,208,,,,,0,208,208,208,,,,,,,,,,,,,,,,,,,-18.046875,-11.54296875,0,0,1,1.18842411041,,,2015_Sep_18_1934,A,facesParametric,7,59.6754935605,
./stim/MorphF4_04_orig.jpg,209,,,,,0,209,209,209,,,,,,,,,,,,,,,,,,,-18.046875,-11.54296875,1,0,0,1.08819389343,,,2015_Sep_18_1934,A,facesParametric,7,59.6754935605,
./stim/MorphM8_01_orig.jpg,210,,,,,0,210,210,210,,,,,,,,,,,,,,,,,,,-18.046875,-11.54296875,1,0,0,2.46251392365,,,2015_Sep_18_1934,A,facesParametric,7,59.6754935605,
./stim/MorphM10_02_orig.jpg,211,,,,,0,211,211,211,,,,,,,,,,,,,,,,,,,-18.046875,-11.54296875,1,0,0,1.10461115837,,,2015_Sep_18_1934,A,facesParametric,7,59.6754935605,
./stim/MorphF8_03_orig.jpg,212,,,,,0,212,212,212,,,,,,,,,,,,,,,,,,,-18.046875,-11.54296875,1,0,0,2.98173499107,,,2015_Sep_18_1934,A,facesParametric,7,59.6754935605,
./stim/MorphF7_02_orig.jpg,213,,,,,0,213,213,213,,,,,,,,,,,,,,,,,,,-18.046875,-11.54296875,1,0,0,2.07729291916,,,2015_Sep_18_1934,A,facesParametric,7,59.6754935605,
./stim/MorphM5_09_orig.jpg,214,,,,,0,214,214,214,,,,,,,,,,,,,,,,,,,-18.046875,-11.54296875,0,0,1,0.885653018951,,,2015_Sep_18_1934,A,facesParametric,7,59.6754935605,
./stim/MorphM10_05_orig.jpg,215,,,,,0,215,215,215,,,,,,,,,,,,,,,,,,,-18.046875,-11.54296875,0,0,1,1.03834700584,,,2015_Sep_18_1934,A,facesParametric,7,59.6754935605,
./stim/MorphF1_06_orig.jpg,216,,,,,0,216,216,216,,,,,,,,,,,,,,,,,,,-18.046875,-11.54296875,1,0,0,2.17804503441,,,2015_Sep_18_1934,A,facesParametric,7,59.6754935605,
./stim/MorphM5_04_orig.jpg,217,,,,,0,217,217,217,,,,,,,,,,,,,,,,,,,-18.046875,-11.54296875,0,0,1,0.431718826294,,,2015_Sep_18_1934,A,facesParametric,7,59.6754935605,
./stim/MorphM10_08_orig.jpg,218,,,,,0,218,218,218,,,,,,,,,,,,,,,,,,,-18.046875,-11.54296875,0,0,1,0.734427928925,,,2015_Sep_18_1934,A,facesParametric,7,59.6754935605,
./stim/MorphF1_10_orig.jpg,219,,,,,0,219,219,219,,,,,,,,,,,,,,,,,,,-18.046875,-11.54296875,0,0,1,1.38990187645,,,2015_Sep_18_1934,A,facesParametric,7,59.6754935605,
,,,,,,,,,,,,,,,,,,,,,,,,,,,,,,,,,,return,8.24605107307,2015_Sep_18_1934,A,facesParametric,7,59.6754935605,
./stim/MorphM5_05_orig.jpg,0,,,,,,,,,0,0,0,0,,,,,,,,,,,,,,,-18.134765625,-11.54296875,1,0,0,3.33579802513,,,2015_Sep_18_1934,A,facesParametric,7,59.6754935605,
./stim/MorphF2_06_orig.jpg,1,,,,,,,,,0,1,1,1,,,,,,,,,,,,,,,-18.134765625,-11.54296875,0,0,1,5.18977808952,,,2015_Sep_18_1934,A,facesParametric,7,59.6754935605,
./stim/MorphM9_08_orig.jpg,2,,,,,,,,,0,2,2,2,,,,,,,,,,,,,,,-18.134765625,-11.54296875,0,0,1,0.920687913895,,,2015_Sep_18_1934,A,facesParametric,7,59.6754935605,
./stim/MorphF10_10_orig.jpg,3,,,,,,,,,0,3,3,3,,,,,,,,,,,,,,,-18.134765625,-11.54296875,0,0,1,0.668295860291,,,2015_Sep_18_1934,A,facesParametric,7,59.6754935605,
./stim/MorphM3_09_orig.jpg,4,,,,,,,,,0,4,4,4,,,,,,,,,,,,,,,-18.134765625,-11.54296875,0,0,1,0.803581953049,,,2015_Sep_18_1934,A,facesParametric,7,59.6754935605,
./stim/MorphM10_02_orig.jpg,5,,,,,,,,,0,5,5,5,,,,,,,,,,,,,,,-18.134765625,-11.54296875,1,0,0,1.004114151,,,2015_Sep_18_1934,A,facesParametric,7,59.6754935605,
./stim/MorphM1_03_orig.jpg,6,,,,,,,,,0,6,6,6,,,,,,,,,,,,,,,-18.134765625,-11.54296875,1,0,0,1.12156510353,,,2015_Sep_18_1934,A,facesParametric,7,59.6754935605,
./stim/MorphF4_06_orig.jpg,7,,,,,,,,,0,7,7,7,,,,,,,,,,,,,,,-18.134765625,-11.54296875,1,0,0,1.02098608017,,,2015_Sep_18_1934,A,facesParametric,7,59.6754935605,
./stim/MorphM3_02_orig.jpg,8,,,,,,,,,0,8,8,8,,,,,,,,,,,,,,,-18.134765625,-11.54296875,0,0,1,0.668912887573,,,2015_Sep_18_1934,A,facesParametric,7,59.6754935605,
./stim/MorphM5_08_orig.jpg,9,,,,,,,,,0,9,9,9,,,,,,,,,,,,,,,-18.134765625,-11.54296875,0,0,1,0.936522960663,,,2015_Sep_18_1934,A,facesParametric,7,59.6754935605,
./stim/MorphF1_09_orig.jpg,10,,,,,,,,,0,10,10,10,,,,,,,,,,,,,,,-18.134765625,-11.54296875,0,0,1,1.12166309357,,,2015_Sep_18_1934,A,facesParametric,7,59.6754935605,
./stim/MorphF7_02_orig.jpg,11,,,,,,,,,0,11,11,11,,,,,,,,,,,,,,,-18.134765625,-11.54296875,1,0,0,2.89582514763,,,2015_Sep_18_1934,A,facesParametric,7,59.6754935605,
./stim/MorphM5_00_orig.jpg,12,,,,,,,,,0,12,12,12,,,,,,,,,,,,,,,-18.134765625,-11.54296875,1,0,0,2.1091401577,,,2015_Sep_18_1934,A,facesParametric,7,59.6754935605,
./stim/MorphF8_00_orig.jpg,13,,,,,,,,,0,13,13,13,,,,,,,,,,,,,,,-18.134765625,-11.54296875,1,0,0,1.38797879219,,,2015_Sep_18_1934,A,facesParametric,7,59.6754935605,
./stim/MorphF2_03_orig.jpg,14,,,,,,,,,0,14,14,14,,,,,,,,,,,,,,,-18.134765625,-11.54296875,0,0,1,0.853682041168,,,2015_Sep_18_1934,A,facesParametric,7,59.6754935605,
./stim/MorphM7_04_orig.jpg,15,,,,,,,,,0,15,15,15,,,,,,,,,,,,,,,-18.134765625,-11.54296875,0,0,1,2.64675998688,,,2015_Sep_18_1934,A,facesParametric,7,59.6754935605,
./stim/MorphF3_00_orig.jpg,16,,,,,,,,,0,16,16,16,,,,,,,,,,,,,,,-18.134765625,-11.54296875,1,0,0,3.21685886383,,,2015_Sep_18_1934,A,facesParametric,7,59.6754935605,
./stim/MorphF7_04_orig.jpg,17,,,,,,,,,0,17,17,17,,,,,,,,,,,,,,,-18.134765625,-11.54296875,1,0,0,1.18750095367,,,2015_Sep_18_1934,A,facesParametric,7,59.6754935605,
./stim/MorphF6_01_orig.jpg,18,,,,,,,,,0,18,18,18,,,,,,,,,,,,,,,-18.134765625,-11.54296875,1,0,0,0.887083053589,,,2015_Sep_18_1934,A,facesParametric,7,59.6754935605,
./stim/MorphM9_09_orig.jpg,19,,,,,,,,,0,19,19,19,,,,,,,,,,,,,,,-18.134765625,-11.54296875,0,0,1,1.03808188438,,,2015_Sep_18_1934,A,facesParametric,7,59.6754935605,
./stim/MorphM4_03_orig.jpg,20,,,,,,,,,0,20,20,20,,,,,,,,,,,,,,,-18.134765625,-11.54296875,1,0,0,1.05435490608,,,2015_Sep_18_1934,A,facesParametric,7,59.6754935605,
./stim/MorphM10_04_orig.jpg,21,,,,,,,,,0,21,21,21,,,,,,,,,,,,,,,-18.134765625,-11.54296875,0,0,1,0.886797189713,,,2015_Sep_18_1934,A,facesParametric,7,59.6754935605,
./stim/MorphM1_02_orig.jpg,22,,,,,,,,,0,22,22,22,,,,,,,,,,,,,,,-18.134765625,-11.54296875,1,0,0,1.35626888275,,,2015_Sep_18_1934,A,facesParametric,7,59.6754935605,
./stim/MorphF3_04_orig.jpg,23,,,,,,,,,0,23,23,23,,,,,,,,,,,,,,,-18.134765625,-11.54296875,1,0,0,1.33999204636,,,2015_Sep_18_1934,A,facesParametric,7,59.6754935605,
./stim/MorphM9_01_orig.jpg,24,,,,,,,,,0,24,24,24,,,,,,,,,,,,,,,-18.134765625,-11.54296875,1,0,0,1.48960185051,,,2015_Sep_18_1934,A,facesParametric,7,59.6754935605,
./stim/MorphF9_01_orig.jpg,25,,,,,,,,,0,25,25,25,,,,,,,,,,,,,,,-18.134765625,-11.54296875,1,0,0,0.886640071869,,,2015_Sep_18_1934,A,facesParametric,7,59.6754935605,
./stim/MorphM2_08_orig.jpg,26,,,,,,,,,0,26,26,26,,,,,,,,,,,,,,,-18.134765625,-11.54296875,0,0,1,0.836827993393,,,2015_Sep_18_1934,A,facesParametric,7,59.6754935605,
./stim/MorphM6_08_orig.jpg,27,,,,,,,,,0,27,27,27,,,,,,,,,,,,,,,-18.134765625,-11.54296875,0,0,1,0.870577096939,,,2015_Sep_18_1934,A,facesParametric,7,59.6754935605,
./stim/MorphM10_08_orig.jpg,28,,,,,,,,,0,28,28,28,,,,,,,,,,,,,,,-18.134765625,-11.54296875,0,0,1,0.987661123276,,,2015_Sep_18_1934,A,facesParametric,7,59.6754935605,
./stim/MorphM2_01_orig.jpg,29,,,,,,,,,0,29,29,29,,,,,,,,,,,,,,,-18.134765625,-11.54296875,1,0,0,1.10554814339,,,2015_Sep_18_1934,A,facesParametric,7,59.6754935605,
./stim/MorphM5_10_orig.jpg,30,,,,,,,,,0,30,30,30,,,,,,,,,,,,,,,-18.134765625,-11.54296875,0,0,1,0.902646064758,,,2015_Sep_18_1934,A,facesParametric,7,59.6754935605,
./stim/MorphM6_09_orig.jpg,31,,,,,,,,,0,31,31,31,,,,,,,,,,,,,,,-18.134765625,-11.54296875,0,0,1,0.95373916626,,,2015_Sep_18_1934,A,facesParametric,7,59.6754935605,
./stim/MorphM9_00_orig.jpg,32,,,,,,,,,0,32,32,32,,,,,,,,,,,,,,,-18.134765625,-11.54296875,1,0,0,1.03673291206,,,2015_Sep_18_1934,A,facesParametric,7,59.6754935605,
./stim/MorphM5_04_orig.jpg,33,,,,,,,,,0,33,33,33,,,,,,,,,,,,,,,-18.134765625,-11.54296875,0,0,1,0.937107801437,,,2015_Sep_18_1934,A,facesParametric,7,59.6754935605,
./stim/MorphF6_04_orig.jpg,34,,,,,,,,,0,34,34,34,,,,,,,,,,,,,,,-18.134765625,-11.54296875,0,0,1,1.75838303566,,,2015_Sep_18_1934,A,facesParametric,7,59.6754935605,
./stim/MorphF7_08_orig.jpg,35,,,,,,,,,0,35,35,35,,,,,,,,,,,,,,,-18.134765625,-11.54296875,0,0,1,0.954085826874,,,2015_Sep_18_1934,A,facesParametric,7,59.6754935605,
./stim/MorphM2_03_orig.jpg,36,,,,,,,,,0,36,36,36,,,,,,,,,,,,,,,-18.134765625,-11.54296875,1,0,0,1.07157492638,,,2015_Sep_18_1934,A,facesParametric,7,59.6754935605,
./stim/MorphM6_00_orig.jpg,37,,,,,,,,,0,37,37,37,,,,,,,,,,,,,,,-18.134765625,-11.54296875,1,0,0,1.35585999489,,,2015_Sep_18_1934,A,facesParametric,7,59.6754935605,
./stim/MorphM8_07_orig.jpg,38,,,,,,,,,0,38,38,38,,,,,,,,,,,,,,,-18.134765625,-11.54296875,0,0,1,1.15473890305,,,2015_Sep_18_1934,A,facesParametric,7,59.6754935605,
./stim/MorphM6_02_orig.jpg,39,,,,,,,,,0,39,39,39,,,,,,,,,,,,,,,-18.134765625,-11.54296875,1,0,0,1.13865017891,,,2015_Sep_18_1934,A,facesParametric,7,59.6754935605,
./stim/MorphM7_10_orig.jpg,40,,,,,,,,,0,40,40,40,,,,,,,,,,,,,,,-18.134765625,-11.54296875,0,0,1,1.00441384315,,,2015_Sep_18_1934,A,facesParametric,7,59.6754935605,
./stim/MorphM3_06_orig.jpg,41,,,,,,,,,0,41,41,41,,,,,,,,,,,,,,,-18.134765625,-11.54296875,0,0,1,1.01903510094,,,2015_Sep_18_1934,A,facesParametric,7,59.6754935605,
./stim/MorphF2_00_orig.jpg,42,,,,,,,,,0,42,42,42,,,,,,,,,,,,,,,-18.134765625,-11.54296875,0,0,1,1.70819401741,,,2015_Sep_18_1934,A,facesParametric,7,59.6754935605,
./stim/MorphM9_06_orig.jpg,43,,,,,,,,,0,43,43,43,,,,,,,,,,,,,,,-18.134765625,-11.54296875,1,0,0,1.35424685478,,,2015_Sep_18_1934,A,facesParametric,7,59.6754935605,
./stim/MorphF2_05_orig.jpg,44,,,,,,,,,0,44,44,44,,,,,,,,,,,,,,,-18.134765625,-11.54296875,0,0,1,1.35674595833,,,2015_Sep_18_1934,A,facesParametric,7,59.6754935605,
./stim/MorphF3_08_orig.jpg,45,,,,,,,,,0,45,45,45,,,,,,,,,,,,,,,-18.134765625,-11.54296875,0,0,1,1.03668403625,,,2015_Sep_18_1934,A,facesParametric,7,59.6754935605,
./stim/MorphM7_03_orig.jpg,46,,,,,,,,,0,46,46,46,,,,,,,,,,,,,,,-18.134765625,-11.54296875,1,0,0,2.3788189888,,,2015_Sep_18_1934,A,facesParametric,7,59.6754935605,
./stim/MorphM8_04_orig.jpg,47,,,,,,,,,0,47,47,47,,,,,,,,,,,,,,,-18.134765625,-11.54296875,1,0,0,1.55697798729,,,2015_Sep_18_1934,A,facesParametric,7,59.6754935605,
./stim/MorphF9_06_orig.jpg,48,,,,,,,,,0,48,48,48,,,,,,,,,,,,,,,-18.134765625,-11.54296875,1,0,0,1.08867406845,,,2015_Sep_18_1934,A,facesParametric,7,59.6754935605,
./stim/MorphM1_07_orig.jpg,49,,,,,,,,,0,49,49,49,,,,,,,,,,,,,,,-18.134765625,-11.54296875,1,0,0,6.3512108326,,,2015_Sep_18_1934,A,facesParametric,7,59.6754935605,
./stim/MorphM2_00_orig.jpg,50,,,,,,,,,0,50,50,50,,,,,,,,,,,,,,,-18.134765625,-11.54296875,1,0,0,0.8862388134,,,2015_Sep_18_1934,A,facesParametric,7,59.6754935605,
./stim/MorphF10_05_orig.jpg,51,,,,,,,,,0,51,51,51,,,,,,,,,,,,,,,-18.134765625,-11.54296875,0,0,1,0.887594938278,,,2015_Sep_18_1934,A,facesParametric,7,59.6754935605,
./stim/MorphM9_02_orig.jpg,52,,,,,,,,,0,52,52,52,,,,,,,,,,,,,,,-18.134765625,-11.54296875,1,0,0,3.14926505089,,,2015_Sep_18_1934,A,facesParametric,7,59.6754935605,
./stim/MorphM4_07_orig.jpg,53,,,,,,,,,0,53,53,53,,,,,,,,,,,,,,,-18.134765625,-11.54296875,1,0,0,0.869817018509,,,2015_Sep_18_1934,A,facesParametric,7,59.6754935605,
./stim/MorphM10_05_orig.jpg,54,,,,,,,,,0,54,54,54,,,,,,,,,,,,,,,-18.134765625,-11.54296875,0,0,1,2.52926516533,,,2015_Sep_18_1934,A,facesParametric,7,59.6754935605,
./stim/MorphF8_02_orig.jpg,55,,,,,,,,,0,55,55,55,,,,,,,,,,,,,,,-18.134765625,-11.54296875,0,0,1,1.08730983734,,,2015_Sep_18_1934,A,facesParametric,7,59.6754935605,
./stim/MorphF1_07_orig.jpg,56,,,,,,,,,0,56,56,56,,,,,,,,,,,,,,,-18.134765625,-11.54296875,1,0,0,1.5237429142,,,2015_Sep_18_1934,A,facesParametric,7,59.6754935605,
./stim/MorphM8_02_orig.jpg,57,,,,,,,,,0,57,57,57,,,,,,,,,,,,,,,-18.134765625,-11.54296875,1,0,0,1.72490000725,,,2015_Sep_18_1934,A,facesParametric,7,59.6754935605,
./stim/MorphM5_01_orig.jpg,58,,,,,,,,,0,58,58,58,,,,,,,,,,,,,,,-18.134765625,-11.54296875,0,0,1,1.42320895195,,,2015_Sep_18_1934,A,facesParametric,7,59.6754935605,
./stim/MorphM10_06_orig.jpg,59,,,,,,,,,0,59,59,59,,,,,,,,,,,,,,,-18.134765625,-11.54296875,0,0,1,0.90408706665,,,2015_Sep_18_1934,A,facesParametric,7,59.6754935605,
./stim/MorphF3_07_orig.jpg,60,,,,,,,,,0,60,60,60,,,,,,,,,,,,,,,-18.134765625,-11.54296875,1,0,0,1.05439186096,,,2015_Sep_18_1934,A,facesParametric,7,59.6754935605,
./stim/MorphF5_05_orig.jpg,61,,,,,,,,,0,61,61,61,,,,,,,,,,,,,,,-18.134765625,-11.54296875,0,0,1,0.435445070267,,,2015_Sep_18_1934,A,facesParametric,7,59.6754935605,
./stim/MorphM1_04_orig.jpg,62,,,,,,,,,0,62,62,62,,,,,,,,,,,,,,,-18.134765625,-11.54296875,0,0,1,2.9142100811,,,2015_Sep_18_1934,A,facesParametric,7,59.6754935605,
./stim/MorphM10_10_orig.jpg,63,,,,,,,,,0,63,63,63,,,,,,,,,,,,,,,-18.134765625,-11.54296875,0,0,1,0.652198076248,,,2015_Sep_18_1934,A,facesParametric,7,59.6754935605,
./stim/MorphM2_04_orig.jpg,64,,,,,,,,,0,64,64,64,,,,,,,,,,,,,,,-18.134765625,-11.54296875,1,0,0,1.18794178963,,,2015_Sep_18_1934,A,facesParametric,7,59.6754935605,
./stim/MorphF6_05_orig.jpg,65,,,,,,,,,0,65,65,65,,,,,,,,,,,,,,,-18.134765625,-11.54296875,0,0,1,1.35609197617,,,2015_Sep_18_1934,A,facesParametric,7,59.6754935605,
./stim/MorphM8_09_orig.jpg,66,,,,,,,,,0,66,66,66,,,,,,,,,,,,,,,-18.134765625,-11.54296875,0,0,1,0.937495946884,,,2015_Sep_18_1934,A,facesParametric,7,59.6754935605,
./stim/MorphM4_08_orig.jpg,67,,,,,,,,,0,67,67,67,,,,,,,,,,,,,,,-18.134765625,-11.54296875,0,0,1,3.87115001678,,,2015_Sep_18_1934,A,facesParametric,7,59.6754935605,
./stim/MorphM3_00_orig.jpg,68,,,,,,,,,0,68,68,68,,,,,,,,,,,,,,,-18.134765625,-11.54296875,0,0,1,0.969521999359,,,2015_Sep_18_1934,A,facesParametric,7,59.6754935605,
./stim/MorphF3_06_orig.jpg,69,,,,,,,,,0,69,69,69,,,,,,,,,,,,,,,-18.134765625,-11.54296875,0,0,1,2.68066191673,,,2015_Sep_18_1934,A,facesParametric,7,59.6754935605,
./stim/MorphM8_06_orig.jpg,70,,,,,,,,,0,70,70,70,,,,,,,,,,,,,,,-18.134765625,-11.54296875,0,0,1,3.60210704803,,,2015_Sep_18_1934,A,facesParametric,7,59.6754935605,
./stim/MorphF6_09_orig.jpg,71,,,,,,,,,0,71,71,71,,,,,,,,,,,,,,,-18.134765625,-11.54296875,0,0,1,0.903367042542,,,2015_Sep_18_1934,A,facesParametric,7,59.6754935605,
./stim/MorphF1_08_orig.jpg,72,,,,,,,,,0,72,72,72,,,,,,,,,,,,,,,-18.134765625,-11.54296875,1,0,0,2.36108589172,,,2015_Sep_18_1934,A,facesParametric,7,59.6754935605,
./stim/MorphF4_09_orig.jpg,73,,,,,,,,,0,73,73,73,,,,,,,,,,,,,,,-18.134765625,-11.54296875,0,0,1,1.82569909096,,,2015_Sep_18_1934,A,facesParametric,7,59.6754935605,
./stim/MorphF9_08_orig.jpg,74,,,,,,,,,0,74,74,74,,,,,,,,,,,,,,,-18.134765625,-11.54296875,0,0,1,0.937058925629,,,2015_Sep_18_1934,A,facesParametric,7,59.6754935605,
./stim/MorphF7_05_orig.jpg,75,,,,,,,,,0,75,75,75,,,,,,,,,,,,,,,-18.134765625,-11.54296875,1,0,0,1.33868408203,,,2015_Sep_18_1934,A,facesParametric,7,59.6754935605,
./stim/MorphF9_05_orig.jpg,76,,,,,,,,,0,76,76,76,,,,,,,,,,,,,,,-18.134765625,-11.54296875,1,0,0,4.287525177,,,2015_Sep_18_1934,A,facesParametric,7,59.6754935605,
./stim/MorphM2_05_orig.jpg,77,,,,,,,,,0,77,77,77,,,,,,,,,,,,,,,-18.134765625,-11.54296875,1,0,0,1.05382108688,,,2015_Sep_18_1934,A,facesParametric,7,59.6754935605,
./stim/MorphF9_07_orig.jpg,78,,,,,,,,,0,78,78,78,,,,,,,,,,,,,,,-18.134765625,-11.54296875,1,0,0,1.07112312317,,,2015_Sep_18_1934,A,facesParametric,7,59.6754935605,
./stim/MorphF7_09_orig.jpg,79,,,,,,,,,0,79,79,79,,,,,,,,,,,,,,,-18.134765625,-11.54296875,0,0,1,1.05369901657,,,2015_Sep_18_1934,A,facesParametric,7,59.6754935605,
./stim/MorphM4_09_orig.jpg,80,,,,,,,,,0,80,80,80,,,,,,,,,,,,,,,-18.134765625,-11.54296875,0,0,1,1.20557618141,,,2015_Sep_18_1934,A,facesParametric,7,59.6754935605,
./stim/MorphM5_03_orig.jpg,81,,,,,,,,,0,81,81,81,,,,,,,,,,,,,,,-18.134765625,-11.54296875,1,0,0,2.93282794952,,,2015_Sep_18_1934,A,facesParametric,7,59.6754935605,
./stim/MorphF5_04_orig.jpg,82,,,,,,,,,0,82,82,82,,,,,,,,,,,,,,,-18.134765625,-11.54296875,1,0,0,1.10291385651,,,2015_Sep_18_1934,A,facesParametric,7,59.6754935605,
./stim/MorphF4_00_orig.jpg,83,,,,,,,,,0,83,83,83,,,,,,,,,,,,,,,-18.134765625,-11.54296875,1,0,0,1.17228293419,,,2015_Sep_18_1934,A,facesParametric,7,59.6754935605,
./stim/MorphF10_00_orig.jpg,84,,,,,,,,,0,84,84,84,,,,,,,,,,,,,,,-18.134765625,-11.54296875,1,0,0,2.21078801155,,,2015_Sep_18_1934,A,facesParametric,7,59.6754935605,
./stim/MorphF6_03_orig.jpg,85,,,,,,,,,0,85,85,85,,,,,,,,,,,,,,,-18.134765625,-11.54296875,1,0,0,1.00468707085,,,2015_Sep_18_1934,A,facesParametric,7,59.6754935605,
./stim/MorphM10_03_orig.jpg,86,,,,,,,,,0,86,86,86,,,,,,,,,,,,,,,-18.134765625,-11.54296875,1,0,0,1.25359106064,,,2015_Sep_18_1934,A,facesParametric,7,59.6754935605,
./stim/MorphM9_10_orig.jpg,87,,,,,,,,,0,87,87,87,,,,,,,,,,,,,,,-18.134765625,-11.54296875,0,0,1,1.12184000015,,,2015_Sep_18_1934,A,facesParametric,7,59.6754935605,
./stim/MorphM6_07_orig.jpg,88,,,,,,,,,0,88,88,88,,,,,,,,,,,,,,,-18.134765625,-11.54296875,0,0,1,1.48892593384,,,2015_Sep_18_1934,A,facesParametric,7,59.6754935605,
./stim/MorphF4_03_orig.jpg,89,,,,,,,,,0,89,89,89,,,,,,,,,,,,,,,-18.134765625,-11.54296875,1,0,0,1.79083299637,,,2015_Sep_18_1934,A,facesParametric,7,59.6754935605,
./stim/MorphF8_01_orig.jpg,90,,,,,,,,,0,90,90,90,,,,,,,,,,,,,,,-18.134765625,-11.54296875,1,0,0,1.27168798447,,,2015_Sep_18_1934,A,facesParametric,7,59.6754935605,
./stim/MorphM2_02_orig.jpg,91,,,,,,,,,0,91,91,91,,,,,,,,,,,,,,,-18.134765625,-11.54296875,1,0,0,1.54114699364,,,2015_Sep_18_1934,A,facesParametric,7,59.6754935605,
./stim/MorphF5_10_orig.jpg,92,,,,,,,,,0,92,92,92,,,,,,,,,,,,,,,-18.134765625,-11.54296875,0,0,1,1.82533502579,,,2015_Sep_18_1934,A,facesParametric,7,59.6754935605,
./stim/MorphF6_07_orig.jpg,93,,,,,,,,,0,93,93,93,,,,,,,,,,,,,,,-18.134765625,-11.54296875,1,0,0,1.43990802765,,,2015_Sep_18_1934,A,facesParametric,7,59.6754935605,
./stim/MorphF1_00_orig.jpg,94,,,,,,,,,0,94,94,94,,,,,,,,,,,,,,,-18.134765625,-11.54296875,1,0,0,1.10256505013,,,2015_Sep_18_1934,A,facesParametric,7,59.6754935605,
./stim/MorphF2_01_orig.jpg,95,,,,,,,,,0,95,95,95,,,,,,,,,,,,,,,-18.134765625,-11.54296875,1,0,0,3.36719989777,,,2015_Sep_18_1934,A,facesParametric,7,59.6754935605,
./stim/MorphF3_03_orig.jpg,96,,,,,,,,,0,96,96,96,,,,,,,,,,,,,,,-18.134765625,-11.54296875,1,0,0,5.44533395767,,,2015_Sep_18_1934,A,facesParametric,7,59.6754935605,
./stim/MorphF2_07_orig.jpg,97,,,,,,,,,0,97,97,97,,,,,,,,,,,,,,,-18.134765625,-11.54296875,0,0,1,1.70839905739,,,2015_Sep_18_1934,A,facesParametric,7,59.6754935605,
./stim/MorphF3_09_orig.jpg,98,,,,,,,,,0,98,98,98,,,,,,,,,,,,,,,-18.134765625,-11.54296875,0,0,1,1.53961992264,,,2015_Sep_18_1934,A,facesParametric,7,59.6754935605,
./stim/MorphM4_10_orig.jpg,99,,,,,,,,,0,99,99,99,,,,,,,,,,,,,,,-18.134765625,-11.54296875,0,0,1,0.970191955566,,,2015_Sep_18_1934,A,facesParametric,7,59.6754935605,
./stim/MorphF4_07_orig.jpg,100,,,,,,,,,0,100,100,100,,,,,,,,,,,,,,,-18.134765625,-11.54296875,0,0,1,2.98201298714,,,2015_Sep_18_1934,A,facesParametric,7,59.6754935605,
./stim/MorphM3_05_orig.jpg,101,,,,,,,,,0,101,101,101,,,,,,,,,,,,,,,-18.134765625,-11.54296875,0,0,1,0.752942085266,,,2015_Sep_18_1934,A,facesParametric,7,59.6754935605,
./stim/MorphF6_06_orig.jpg,102,,,,,,,,,0,102,102,102,,,,,,,,,,,,,,,-18.134765625,-11.54296875,0,0,1,1.00458884239,,,2015_Sep_18_1934,A,facesParametric,7,59.6754935605,
./stim/MorphM9_07_orig.jpg,103,,,,,,,,,0,103,103,103,,,,,,,,,,,,,,,-18.134765625,-11.54296875,0,0,1,1.33967709541,,,2015_Sep_18_1934,A,facesParametric,7,59.6754935605,
./stim/MorphF1_05_orig.jpg,104,,,,,,,,,0,104,104,104,,,,,,,,,,,,,,,-18.134765625,-11.54296875,1,0,0,2.11068296432,,,2015_Sep_18_1934,A,facesParametric,7,59.6754935605,
./stim/MorphM7_01_orig.jpg,105,,,,,,,,,0,105,105,105,,,,,,,,,,,,,,,-18.134765625,-11.54296875,1,0,0,1.20445203781,,,2015_Sep_18_1934,A,facesParametric,7,59.6754935605,
./stim/MorphM4_05_orig.jpg,106,,,,,,,,,0,106,106,106,,,,,,,,,,,,,,,-18.134765625,-11.54296875,0,0,1,3.014097929,,,2015_Sep_18_1934,A,facesParametric,7,59.6754935605,
./stim/MorphM1_06_orig.jpg,107,,,,,,,,,0,107,107,107,,,,,,,,,,,,,,,-18.134765625,-11.54296875,1,0,0,1.05466008186,,,2015_Sep_18_1934,A,facesParametric,7,59.6754935605,
./stim/MorphF6_10_orig.jpg,108,,,,,,,,,0,108,108,108,,,,,,,,,,,,,,,-18.134765625,-11.54296875,0,0,1,0.817561149597,,,2015_Sep_18_1934,A,facesParametric,7,59.6754935605,
./stim/MorphF2_09_orig.jpg,109,,,,,,,,,0,109,109,109,,,,,,,,,,,,,,,-18.134765625,-11.54296875,0,0,1,0.786655187607,,,2015_Sep_18_1934,A,facesParametric,7,59.6754935605,
./stim/MorphF3_05_orig.jpg,110,,,,,,,,,0,110,110,110,,,,,,,,,,,,,,,-18.134765625,-11.54296875,1,0,0,2.91492486,,,2015_Sep_18_1934,A,facesParametric,7,59.6754935605,
./stim/MorphF5_08_orig.jpg,111,,,,,,,,,0,111,111,111,,,,,,,,,,,,,,,-18.134765625,-11.54296875,0,0,1,1.82562589645,,,2015_Sep_18_1934,A,facesParametric,7,59.6754935605,
./stim/MorphF8_07_orig.jpg,112,,,,,,,,,0,112,112,112,,,,,,,,,,,,,,,-18.134765625,-11.54296875,0,0,1,0.968773126602,,,2015_Sep_18_1934,A,facesParametric,7,59.6754935605,
./stim/MorphF3_02_orig.jpg,113,,,,,,,,,0,113,113,113,,,,,,,,,,,,,,,-18.134765625,-11.54296875,1,0,0,2.09400010109,,,2015_Sep_18_1934,A,facesParametric,7,59.6754935605,
./stim/MorphF4_04_orig.jpg,114,,,,,,,,,0,114,114,114,,,,,,,,,,,,,,,-18.134765625,-11.54296875,1,0,0,1.13749313354,,,2015_Sep_18_1934,A,facesParametric,7,59.6754935605,
./stim/MorphM4_01_orig.jpg,115,,,,,,,,,0,115,115,115,,,,,,,,,,,,,,,-18.134765625,-11.54296875,1,0,0,0.93538403511,,,2015_Sep_18_1934,A,facesParametric,7,59.6754935605,
./stim/MorphM6_03_orig.jpg,116,,,,,,,,,0,116,116,116,,,,,,,,,,,,,,,-18.134765625,-11.54296875,1,0,0,1.20559310913,,,2015_Sep_18_1934,A,facesParametric,7,59.6754935605,
./stim/MorphM1_08_orig.jpg,117,,,,,,,,,0,117,117,117,,,,,,,,,,,,,,,-18.134765625,-11.54296875,0,0,1,1.70803499222,,,2015_Sep_18_1934,A,facesParametric,7,59.6754935605,
./stim/MorphF3_10_orig.jpg,118,,,,,,,,,0,118,118,118,,,,,,,,,,,,,,,-18.134765625,-11.54296875,0,0,1,0.920120000839,,,2015_Sep_18_1934,A,facesParametric,7,59.6754935605,
./stim/MorphF5_06_orig.jpg,119,,,,,,,,,0,119,119,119,,,,,,,,,,,,,,,-18.134765625,-11.54296875,0,0,1,2.99883103371,,,2015_Sep_18_1934,A,facesParametric,7,59.6754935605,
./stim/MorphF10_01_orig.jpg,120,,,,,,,,,0,120,120,120,,,,,,,,,,,,,,,-18.1640625,-11.54296875,1,0,0,2.83079385757,,,2015_Sep_18_1934,A,facesParametric,7,59.6754935605,
./stim/MorphM7_08_orig.jpg,121,,,,,,,,,0,121,121,121,,,,,,,,,,,,,,,-17.900390625,-11.71875,0,0,1,1.72355699539,,,2015_Sep_18_1934,A,facesParametric,7,59.6754935605,
./stim/MorphF10_04_orig.jpg,122,,,,,,,,,0,122,122,122,,,,,,,,,,,,,,,-17.900390625,-11.71875,0,0,1,2.98267912865,,,2015_Sep_18_1934,A,facesParametric,7,59.6754935605,
./stim/MorphM2_07_orig.jpg,123,,,,,,,,,0,123,123,123,,,,,,,,,,,,,,,-17.900390625,-11.71875,1,0,0,0.969485998154,,,2015_Sep_18_1934,A,facesParametric,7,59.6754935605,
./stim/MorphF8_03_orig.jpg,124,,,,,,,,,0,124,124,124,,,,,,,,,,,,,,,-17.900390625,-11.71875,1,0,0,0.903993844986,,,2015_Sep_18_1934,A,facesParametric,7,59.6754935605,
./stim/MorphM10_09_orig.jpg,125,,,,,,,,,0,125,125,125,,,,,,,,,,,,,,,-17.900390625,-11.71875,0,0,1,0.786318063736,,,2015_Sep_18_1934,A,facesParametric,7,59.6754935605,
./stim/MorphM6_06_orig.jpg,126,,,,,,,,,0,126,126,126,,,,,,,,,,,,,,,-17.900390625,-11.71875,1,0,0,1.37308597565,,,2015_Sep_18_1934,A,facesParametric,7,59.6754935605,
./stim/MorphM2_10_orig.jpg,127,,,,,,,,,0,127,127,127,,,,,,,,,,,,,,,-17.900390625,-11.71875,0,0,1,1.02135181427,,,2015_Sep_18_1934,A,facesParametric,7,59.6754935605,
./stim/MorphM6_04_orig.jpg,128,,,,,,,,,0,128,128,128,,,,,,,,,,,,,,,-17.900390625,-11.71875,1,0,0,0.936248064041,,,2015_Sep_18_1934,A,facesParametric,7,59.6754935605,
./stim/MorphM3_08_orig.jpg,129,,,,,,,,,0,129,129,129,,,,,,,,,,,,,,,-17.900390625,-11.71875,0,0,1,1.59080004692,,,2015_Sep_18_1934,A,facesParametric,7,59.6754935605,
./stim/MorphM10_07_orig.jpg,130,,,,,,,,,0,130,130,130,,,,,,,,,,,,,,,-17.900390625,-11.71875,0,0,1,1.10613298416,,,2015_Sep_18_1934,A,facesParametric,7,59.6754935605,
./stim/MorphF8_05_orig.jpg,131,,,,,,,,,0,131,131,131,,,,,,,,,,,,,,,-17.900390625,-11.71875,0,0,1,1.50626206398,,,2015_Sep_18_1934,A,facesParametric,7,59.6754935605,
./stim/MorphF2_08_orig.jpg,132,,,,,,,,,0,132,132,132,,,,,,,,,,,,,,,-17.900390625,-11.71875,0,0,1,0.851527929306,,,2015_Sep_18_1934,A,facesParametric,7,59.6754935605,
./stim/MorphM1_00_orig.jpg,133,,,,,,,,,0,133,133,133,,,,,,,,,,,,,,,-17.900390625,-11.71875,1,0,0,0.970696926117,,,2015_Sep_18_1934,A,facesParametric,7,59.6754935605,
./stim/MorphM8_03_orig.jpg,134,,,,,,,,,0,134,134,134,,,,,,,,,,,,,,,-17.900390625,-11.71875,1,0,0,1.13914012909,,,2015_Sep_18_1934,A,facesParametric,7,59.6754935605,
./stim/MorphF8_09_orig.jpg,135,,,,,,,,,0,135,135,135,,,,,,,,,,,,,,,-17.900390625,-11.71875,0,0,1,1.05262708664,,,2015_Sep_18_1934,A,facesParametric,7,59.6754935605,
./stim/MorphF9_00_orig.jpg,136,,,,,,,,,0,136,136,136,,,,,,,,,,,,,,,-17.900390625,-11.71875,1,0,0,0.920651912689,,,2015_Sep_18_1934,A,facesParametric,7,59.6754935605,
./stim/MorphM6_05_orig.jpg,137,,,,,,,,,0,137,137,137,,,,,,,,,,,,,,,-17.900390625,-11.71875,1,0,0,1.38976597786,,,2015_Sep_18_1934,A,facesParametric,7,59.6754935605,
./stim/MorphF7_01_orig.jpg,138,,,,,,,,,0,138,138,138,,,,,,,,,,,,,,,-17.900390625,-11.71875,1,0,0,1.02106618881,,,2015_Sep_18_1934,A,facesParametric,7,59.6754935605,
./stim/MorphF1_10_orig.jpg,139,,,,,,,,,0,139,139,139,,,,,,,,,,,,,,,-17.900390625,-11.71875,0,0,1,0.953305006027,,,2015_Sep_18_1934,A,facesParametric,7,59.6754935605,
./stim/MorphF7_06_orig.jpg,140,,,,,,,,,0,140,140,140,,,,,,,,,,,,,,,-17.900390625,-11.71875,1,0,0,0.987444162369,,,2015_Sep_18_1934,A,facesParametric,7,59.6754935605,
./stim/MorphM5_06_orig.jpg,141,,,,,,,,,0,141,141,141,,,,,,,,,,,,,,,-17.900390625,-11.71875,0,0,1,1.54071497917,,,2015_Sep_18_1934,A,facesParametric,7,59.6754935605,
./stim/MorphM8_10_orig.jpg,142,,,,,,,,,0,142,142,142,,,,,,,,,,,,,,,-17.900390625,-11.71875,0,0,1,0.920154094696,,,2015_Sep_18_1934,A,facesParametric,7,59.6754935605,
./stim/MorphM7_05_orig.jpg,143,,,,,,,,,0,143,143,143,,,,,,,,,,,,,,,-17.900390625,-11.71875,0,0,1,1.79180502892,,,2015_Sep_18_1934,A,facesParametric,7,59.6754935605,
./stim/MorphF1_03_orig.jpg,144,,,,,,,,,0,144,144,144,,,,,,,,,,,,,,,-17.900390625,-11.71875,0,0,1,3.46735310555,,,2015_Sep_18_1934,A,facesParametric,7,59.6754935605,
./stim/MorphM2_06_orig.jpg,145,,,,,,,,,0,145,145,145,,,,,,,,,,,,,,,-17.900390625,-11.71875,1,0,0,0.986438989639,,,2015_Sep_18_1934,A,facesParametric,7,59.6754935605,
./stim/MorphM5_02_orig.jpg,146,,,,,,,,,0,146,146,146,,,,,,,,,,,,,,,-17.900390625,-11.71875,0,0,1,1.17187786102,,,2015_Sep_18_1934,A,facesParametric,7,59.6754935605,
./stim/MorphM4_02_orig.jpg,147,,,,,,,,,0,147,147,147,,,,,,,,,,,,,,,-17.900390625,-11.71875,1,0,0,0.920503139496,,,2015_Sep_18_1934,A,facesParametric,7,59.6754935605,
./stim/MorphF10_02_orig.jpg,148,,,,,,,,,0,148,148,148,,,,,,,,,,,,,,,-17.900390625,-11.71875,1,0,0,1.20363497734,,,2015_Sep_18_1934,A,facesParametric,7,59.6754935605,
./stim/MorphF9_04_orig.jpg,149,,,,,,,,,0,149,149,149,,,,,,,,,,,,,,,-17.900390625,-11.71875,1,0,0,1.4402821064,,,2015_Sep_18_1934,A,facesParametric,7,59.6754935605,
./stim/MorphM7_09_orig.jpg,150,,,,,,,,,0,150,150,150,,,,,,,,,,,,,,,-17.900390625,-11.71875,0,0,1,0.868983983994,,,2015_Sep_18_1934,A,facesParametric,7,59.6754935605,
./stim/MorphF3_01_orig.jpg,151,,,,,,,,,0,151,151,151,,,,,,,,,,,,,,,-17.900390625,-11.71875,1,0,0,1.32242703438,,,2015_Sep_18_1934,A,facesParametric,7,59.6754935605,
./stim/MorphM3_10_orig.jpg,152,,,,,,,,,0,152,152,152,,,,,,,,,,,,,,,-17.958984375,-11.71875,0,0,1,0.919450998306,,,2015_Sep_18_1934,A,facesParametric,7,59.6754935605,
./stim/MorphF5_02_orig.jpg,153,,,,,,,,,0,153,153,153,,,,,,,,,,,,,,,-17.958984375,-11.71875,1,0,0,1.2222700119,,,2015_Sep_18_1934,A,facesParametric,7,59.6754935605,
./stim/MorphF6_00_orig.jpg,154,,,,,,,,,0,154,154,154,,,,,,,,,,,,,,,-17.958984375,-11.71875,1,0,0,0.985468864441,,,2015_Sep_18_1934,A,facesParametric,7,59.6754935605,
./stim/MorphM3_01_orig.jpg,155,,,,,,,,,0,155,155,155,,,,,,,,,,,,,,,-17.958984375,-11.71875,0,0,1,0.836935043335,,,2015_Sep_18_1934,A,facesParametric,7,59.6754935605,
./stim/MorphF4_05_orig.jpg,156,,,,,,,,,0,156,156,156,,,,,,,,,,,,,,,-17.958984375,-11.71875,1,0,0,3.16480588913,,,2015_Sep_18_1934,A,facesParametric,7,59.6754935605,
./stim/MorphM2_09_orig.jpg,157,,,,,,,,,0,157,157,157,,,,,,,,,,,,,,,-17.958984375,-11.71875,0,0,1,0.987833976746,,,2015_Sep_18_1934,A,facesParametric,7,59.6754935605,
./stim/MorphF10_07_orig.jpg,158,,,,,,,,,0,158,158,158,,,,,,,,,,,,,,,-17.958984375,-11.71875,0,0,1,0.83572602272,,,2015_Sep_18_1934,A,facesParametric,7,59.6754935605,
./stim/MorphM3_03_orig.jpg,159,,,,,,,,,0,159,159,159,,,,,,,,,,,,,,,-17.958984375,-11.71875,0,0,1,0.803129196167,,,2015_Sep_18_1934,A,facesParametric,7,59.6754935605,
./stim/MorphF7_10_orig.jpg,160,,,,,,,,,0,160,160,160,,,,,,,,,,,,,,,-17.958984375,-11.71875,0,0,1,0.853372097015,,,2015_Sep_18_1934,A,facesParametric,7,59.6754935605,
./stim/MorphM8_05_orig.jpg,161,,,,,,,,,0,161,161,161,,,,,,,,,,,,,,,-17.958984375,-11.71875,0,0,1,3.31704592705,,,2015_Sep_18_1934,A,facesParametric,7,59.6754935605,
./stim/MorphM10_01_orig.jpg,162,,,,,,,,,0,162,162,162,,,,,,,,,,,,,,,-17.958984375,-11.71875,1,0,0,0.954117059708,,,2015_Sep_18_1934,A,facesParametric,7,59.6754935605,
./stim/MorphF9_09_orig.jpg,163,,,,,,,,,0,163,163,163,,,,,,,,,,,,,,,-17.958984375,-11.71875,0,0,1,0.869981050491,,,2015_Sep_18_1934,A,facesParametric,7,59.6754935605,
./stim/MorphF4_01_orig.jpg,164,,,,,,,,,0,164,164,164,,,,,,,,,,,,,,,-17.958984375,-11.71875,1,0,0,1.23907899857,,,2015_Sep_18_1934,A,facesParametric,7,59.6754935605,
./stim/MorphF10_03_orig.jpg,165,,,,,,,,,0,165,165,165,,,,,,,,,,,,,,,-17.958984375,-11.71875,0,0,1,0.836699008942,,,2015_Sep_18_1934,A,facesParametric,7,59.6754935605,
./stim/MorphM8_00_orig.jpg,166,,,,,,,,,0,166,166,166,,,,,,,,,,,,,,,-17.958984375,-11.71875,1,0,0,1.15318584442,,,2015_Sep_18_1934,A,facesParametric,7,59.6754935605,
./stim/MorphF9_02_orig.jpg,167,,,,,,,,,0,167,167,167,,,,,,,,,,,,,,,-17.958984375,-11.71875,1,0,0,1.32294917107,,,2015_Sep_18_1934,A,facesParametric,7,59.6754935605,
./stim/MorphF4_02_orig.jpg,168,,,,,,,,,0,168,168,168,,,,,,,,,,,,,,,-17.958984375,-11.71875,1,0,0,0.837342977524,,,2015_Sep_18_1934,A,facesParametric,7,59.6754935605,
./stim/MorphM10_00_orig.jpg,169,,,,,,,,,0,169,169,169,,,,,,,,,,,,,,,-17.958984375,-11.71875,1,0,0,2.34236812592,,,2015_Sep_18_1934,A,facesParametric,7,59.6754935605,
./stim/MorphM8_08_orig.jpg,170,,,,,,,,,0,170,170,170,,,,,,,,,,,,,,,-17.958984375,-11.71875,0,0,1,0.937497854233,,,2015_Sep_18_1934,A,facesParametric,7,59.6754935605,
./stim/MorphF1_01_orig.jpg,171,,,,,,,,,0,171,171,171,,,,,,,,,,,,,,,-17.958984375,-11.71875,0,0,1,1.35531497002,,,2015_Sep_18_1934,A,facesParametric,7,59.6754935605,
./stim/MorphM6_10_orig.jpg,172,,,,,,,,,0,172,172,172,,,,,,,,,,,,,,,-17.958984375,-11.71875,0,0,1,0.903517007828,,,2015_Sep_18_1934,A,facesParametric,7,59.6754935605,
./stim/MorphM4_04_orig.jpg,173,,,,,,,,,0,173,173,173,,,,,,,,,,,,,,,-17.958984375,-11.71875,0,0,1,2.79840183258,,,2015_Sep_18_1934,A,facesParametric,7,59.6754935605,
./stim/MorphM7_02_orig.jpg,174,,,,,,,,,0,174,174,174,,,,,,,,,,,,,,,-17.958984375,-11.71875,0,0,1,1.08760309219,,,2015_Sep_18_1934,A,facesParametric,7,59.6754935605,
./stim/MorphF7_03_orig.jpg,175,,,,,,,,,0,175,175,175,,,,,,,,,,,,,,,-17.958984375,-11.71875,1,0,0,3.75289797783,,,2015_Sep_18_1934,A,facesParametric,7,59.6754935605,
./stim/MorphM5_07_orig.jpg,176,,,,,,,,,0,176,176,176,,,,,,,,,,,,,,,-17.958984375,-11.71875,0,0,1,1.07118105888,,,2015_Sep_18_1934,A,facesParametric,7,59.6754935605,
./stim/MorphF9_03_orig.jpg,177,,,,,,,,,0,177,177,177,,,,,,,,,,,,,,,-17.958984375,-11.71875,1,0,0,2.21126103401,,,2015_Sep_18_1934,A,facesParametric,7,59.6754935605,
./stim/MorphM4_06_orig.jpg,178,,,,,,,,,0,178,178,178,,,,,,,,,,,,,,,-17.958984375,-11.71875,0,0,1,1.17282891273,,,2015_Sep_18_1934,A,facesParametric,7,59.6754935605,
./stim/MorphF5_03_orig.jpg,179,,,,,,,,,0,179,179,179,,,,,,,,,,,,,,,-17.958984375,-11.71875,1,0,0,2.02426195145,,,2015_Sep_18_1934,A,facesParametric,7,59.6754935605,
./stim/MorphF2_10_orig.jpg,180,,,,,,,,,0,180,180,180,,,,,,,,,,,,,,,-17.958984375,-11.71875,0,0,1,0.83597111702,,,2015_Sep_18_1934,A,facesParametric,7,59.6754935605,
./stim/MorphM4_00_orig.jpg,181,,,,,,,,,0,181,181,181,,,,,,,,,,,,,,,-17.958984375,-11.71875,1,0,0,1.05482196808,,,2015_Sep_18_1934,A,facesParametric,7,59.6754935605,
./stim/MorphF6_02_orig.jpg,182,,,,,,,,,0,182,182,182,,,,,,,,,,,,,,,-17.958984375,-11.71875,1,0,0,1.05451989174,,,2015_Sep_18_1934,A,facesParametric,7,59.6754935605,
./stim/MorphM6_01_orig.jpg,183,,,,,,,,,0,183,183,183,,,,,,,,,,,,,,,-17.958984375,-11.71875,1,0,0,0.834845066071,,,2015_Sep_18_1934,A,facesParametric,7,59.6754935605,
./stim/MorphF1_04_orig.jpg,184,,,,,,,,,0,184,184,184,,,,,,,,,,,,,,,-17.958984375,-11.71875,0,0,1,3.80323910713,,,2015_Sep_18_1934,A,facesParametric,7,59.6754935605,
./stim/MorphF5_01_orig.jpg,185,,,,,,,,,0,185,185,185,,,,,,,,,,,,,,,-17.958984375,-11.71875,1,0,0,0.986374139786,,,2015_Sep_18_1934,A,facesParametric,7,59.6754935605,
./stim/MorphF7_07_orig.jpg,186,,,,,,,,,0,186,186,186,,,,,,,,,,,,,,,-17.958984375,-11.8359375,0,0,1,2.7113969326,,,2015_Sep_18_1934,A,facesParametric,7,59.6754935605,
./stim/MorphM9_03_orig.jpg,187,,,,,,,,,0,187,187,187,,,,,,,,,,,,,,,-17.958984375,-11.8359375,0,0,1,3.68507313728,,,2015_Sep_18_1934,A,facesParametric,7,59.6754935605,
./stim/MorphF5_00_orig.jpg,188,,,,,,,,,0,188,188,188,,,,,,,,,,,,,,,-17.958984375,-11.8359375,1,0,0,0.786895036697,,,2015_Sep_18_1934,A,facesParametric,7,59.6754935605,
./stim/MorphM1_09_orig.jpg,189,,,,,,,,,0,189,189,189,,,,,,,,,,,,,,,-17.958984375,-11.8359375,0,0,1,1.42211699486,,,2015_Sep_18_1934,A,facesParametric,7,59.6754935605,
./stim/MorphF2_04_orig.jpg,190,,,,,,,,,0,190,190,190,,,,,,,,,,,,,,,-17.958984375,-11.8359375,0,0,1,0.76921415329,,,2015_Sep_18_1934,A,facesParametric,7,59.6754935605,
./stim/MorphF10_08_orig.jpg,191,,,,,,,,,0,191,191,191,,,,,,,,,,,,,,,-17.958984375,-11.8359375,0,0,1,0.786384105682,,,2015_Sep_18_1934,A,facesParametric,7,59.6754935605,
./stim/MorphF4_08_orig.jpg,192,,,,,,,,,0,192,192,192,,,,,,,,,,,,,,,-17.958984375,-11.8359375,0,0,1,1.32237100601,,,2015_Sep_18_1934,A,facesParametric,7,59.6754935605,
./stim/MorphM1_05_orig.jpg,193,,,,,,,,,0,193,193,193,,,,,,,,,,,,,,,-17.958984375,-11.8359375,1,0,0,1.90949106216,,,2015_Sep_18_1934,A,facesParametric,7,59.6754935605,
./stim/MorphF10_06_orig.jpg,194,,,,,,,,,0,194,194,194,,,,,,,,,,,,,,,-17.958984375,-11.8359375,0,0,1,0.770118951797,,,2015_Sep_18_1934,A,facesParametric,7,59.6754935605,
./stim/MorphF2_02_orig.jpg,195,,,,,,,,,0,195,195,195,,,,,,,,,,,,,,,-17.958984375,-11.8359375,1,0,0,1.17156004906,,,2015_Sep_18_1934,A,facesParametric,7,59.6754935605,
./stim/MorphF6_08_orig.jpg,196,,,,,,,,,0,196,196,196,,,,,,,,,,,,,,,-17.958984375,-11.8359375,1,0,0,1.35499382019,,,2015_Sep_18_1934,A,facesParametric,7,59.6754935605,
./stim/MorphF8_04_orig.jpg,197,,,,,,,,,0,197,197,197,,,,,,,,,,,,,,,-17.958984375,-11.8359375,1,0,0,0.936940908432,,,2015_Sep_18_1934,A,facesParametric,7,59.6754935605,
./stim/MorphM7_06_orig.jpg,198,,,,,,,,,0,198,198,198,,,,,,,,,,,,,,,-17.958984375,-11.8359375,0,0,1,1.60765981674,,,2015_Sep_18_1934,A,facesParametric,7,59.6754935605,
./stim/MorphF9_10_orig.jpg,199,,,,,,,,,0,199,199,199,,,,,,,,,,,,,,,-17.958984375,-11.8359375,0,0,1,0.90391087532,,,2015_Sep_18_1934,A,facesParametric,7,59.6754935605,
./stim/MorphF5_09_orig.jpg,200,,,,,,,,,0,200,200,200,,,,,,,,,,,,,,,-17.958984375,-11.8359375,0,0,1,0.955022096634,,,2015_Sep_18_1934,A,facesParametric,7,59.6754935605,
./stim/MorphF8_06_orig.jpg,201,,,,,,,,,0,201,201,201,,,,,,,,,,,,,,,-17.958984375,-11.8359375,0,0,1,1.2881269455,,,2015_Sep_18_1934,A,facesParametric,7,59.6754935605,
./stim/MorphF10_09_orig.jpg,202,,,,,,,,,0,202,202,202,,,,,,,,,,,,,,,-17.958984375,-11.8359375,0,0,1,0.88637304306,,,2015_Sep_18_1934,A,facesParametric,7,59.6754935605,
./stim/MorphM5_09_orig.jpg,203,,,,,,,,,0,203,203,203,,,,,,,,,,,,,,,-17.958984375,-11.8359375,0,0,1,0.886263847351,,,2015_Sep_18_1934,A,facesParametric,7,59.6754935605,
./stim/MorphM7_00_orig.jpg,204,,,,,,,,,0,204,204,204,,,,,,,,,,,,,,,-17.958984375,-11.8359375,1,0,0,2.66174697876,,,2015_Sep_18_1934,A,facesParametric,7,59.6754935605,
./stim/MorphM1_10_orig.jpg,205,,,,,,,,,0,205,205,205,,,,,,,,,,,,,,,-17.958984375,-11.8359375,0,0,1,2.14378714561,,,2015_Sep_18_1934,A,facesParametric,7,59.6754935605,
./stim/MorphF5_07_orig.jpg,206,,,,,,,,,0,206,206,206,,,,,,,,,,,,,,,-17.958984375,-11.8359375,0,0,1,1.17208886147,,,2015_Sep_18_1934,A,facesParametric,7,59.6754935605,
./stim/MorphM3_04_orig.jpg,207,,,,,,,,,0,207,207,207,,,,,,,,,,,,,,,-17.958984375,-11.8359375,0,0,1,0.820199012756,,,2015_Sep_18_1934,A,facesParametric,7,59.6754935605,
./stim/MorphF7_00_orig.jpg,208,,,,,,,,,0,208,208,208,,,,,,,,,,,,,,,-17.958984375,-11.8359375,0,0,1,0.717190027237,,,2015_Sep_18_1934,A,facesParametric,7,59.6754935605,
./stim/MorphM9_04_orig.jpg,209,,,,,,,,,0,209,209,209,,,,,,,,,,,,,,,-17.958984375,-11.8359375,1,0,0,5.83051300049,,,2015_Sep_18_1934,A,facesParametric,7,59.6754935605,
./stim/MorphM1_01_orig.jpg,210,,,,,,,,,0,210,210,210,,,,,,,,,,,,,,,-17.958984375,-11.8359375,1,0,0,0.971004009247,,,2015_Sep_18_1934,A,facesParametric,7,59.6754935605,
./stim/MorphM7_07_orig.jpg,211,,,,,,,,,0,211,211,211,,,,,,,,,,,,,,,-17.958984375,-11.8359375,0,0,1,1.4062628746,,,2015_Sep_18_1934,A,facesParametric,7,59.6754935605,
./stim/MorphF1_02_orig.jpg,212,,,,,,,,,0,212,212,212,,,,,,,,,,,,,,,-17.958984375,-11.8359375,1,0,0,3.28385400772,,,2015_Sep_18_1934,A,facesParametric,7,59.6754935605,
./stim/MorphF8_10_orig.jpg,213,,,,,,,,,0,213,213,213,,,,,,,,,,,,,,,-17.958984375,-11.8359375,0,0,1,1.2895488739,,,2015_Sep_18_1934,A,facesParametric,7,59.6754935605,
./stim/MorphM8_01_orig.jpg,214,,,,,,,,,0,214,214,214,,,,,,,,,,,,,,,-17.958984375,-11.8359375,1,0,0,1.43855905533,,,2015_Sep_18_1934,A,facesParametric,7,59.6754935605,
./stim/MorphM9_05_orig.jpg,215,,,,,,,,,0,215,215,215,,,,,,,,,,,,,,,-17.958984375,-11.8359375,1,0,0,2.51277089119,,,2015_Sep_18_1934,A,facesParametric,7,59.6754935605,
./stim/MorphF8_08_orig.jpg,216,,,,,,,,,0,216,216,216,,,,,,,,,,,,,,,-17.958984375,-11.8359375,0,0,1,0.717612981796,,,2015_Sep_18_1934,A,facesParametric,7,59.6754935605,
./stim/MorphF1_06_orig.jpg,217,,,,,,,,,0,217,217,217,,,,,,,,,,,,,,,-17.958984375,-11.8359375,1,0,0,2.7976770401,,,2015_Sep_18_1934,A,facesParametric,7,59.6754935605,
./stim/MorphF4_10_orig.jpg,218,,,,,,,,,0,218,218,218,,,,,,,,,,,,,,,-17.958984375,-11.8359375,0,0,1,0.75129699707,,,2015_Sep_18_1934,A,facesParametric,7,59.6754935605,
./stim/MorphM3_07_orig.jpg,219,,,,,,,,,0,219,219,219,,,,,,,,,,,,,,,-17.958984375,-11.8359375,0,0,1,0.88697385788,,,2015_Sep_18_1934,A,facesParametric,7,59.6754935605,
