img,num,basicLoop.thisRepN,basicLoop.thisTrialN,basicLoop.thisN,basicLoop.thisIndex,trials.thisRepN,trials.thisTrialN,trials.thisN,trials.thisIndex,trials2.thisRepN,trials2.thisTrialN,trials2.thisN,trials2.thisIndex,key_resp_2.keys,key_resp_2.rt,basicRating1.response,basicRating1.rt,basicRating2.response,basicRating2.rt,basicRating3.response,basicRating3.rt,basicRating4.response,basicRating4.rt,key_resp_3.keys,key_resp_3.rt,key_resp_4.keys,key_resp_4.rt,mouseResp.x,mouseResp.y,mouseResp.leftButton,mouseResp.midButton,mouseResp.rightButton,mouseResp.time,key_resp_5.keys,key_resp_5.rt,key_resp_7.keys,key_resp_7.rt,date,group,expName,participant,frameRate,
,,,,,,,,,,,,,,return,93.6012539864,,,,,,,,,,,,,,,,,,,,,,,2015_Sep_16_1913,A,facesParametric,8,59.7300522636,
./basicStim/01F_FE_O.jpg,,0,0,0,2,,,,,,,,,,,None,None,None,None,DIS,6.557,None,None,,,,,,,,,,,,,,,2015_Sep_16_1913,A,facesParametric,8,59.7300522636,
./basicStim/06F_AN_O.jpg,,0,1,1,21,,,,,,,,,,,None,None,FEA,4.38,None,None,None,None,,,,,,,,,,,,,,,2015_Sep_16_1913,A,facesParametric,8,59.7300522636,
./basicStim/34M_SP_O.jpg,,0,2,2,75,,,,,,,,,,,None,None,None,None,SUP,2.835,None,None,,,,,,,,,,,,,,,2015_Sep_16_1913,A,facesParametric,8,59.7300522636,
./basicStim/34M_HA_O.jpg,,0,3,3,73,,,,,,,,,,,HAP,2.771,None,None,None,None,None,None,,,,,,,,,,,,,,,2015_Sep_16_1913,A,facesParametric,8,59.7300522636,
./basicStim/34M_AN_O.jpg,,0,4,4,70,,,,,,,,,,,None,None,ANG,2.114,None,None,None,None,,,,,,,,,,,,,,,2015_Sep_16_1913,A,facesParametric,8,59.7300522636,
./basicStim/28M_NE_C.jpg,,0,5,5,69,,,,,,,,,,,SAD,2.67,None,None,None,None,None,None,,,,,,,,,,,,,,,2015_Sep_16_1913,A,facesParametric,8,59.7300522636,
./basicStim/34M_FE_O.jpg,,0,6,6,72,,,,,,,,,,,None,None,FEA,2.165,None,None,None,None,,,,,,,,,,,,,,,2015_Sep_16_1913,A,facesParametric,8,59.7300522636,
./basicStim/23M_FE_O.jpg,,0,7,7,51,,,,,,,,,,,None,None,FEA,0.91,None,None,None,None,,,,,,,,,,,,,,,2015_Sep_16_1913,A,facesParametric,8,59.7300522636,
./basicStim/36M_SA_C.jpg,,0,8,8,81,,,,,,,,,,,SAD,1.814,None,None,None,None,None,None,,,,,,,,,,,,,,,2015_Sep_16_1913,A,facesParametric,8,59.7300522636,
./basicStim/07F_FE_O.jpg,,0,9,9,30,,,,,,,,,,,None,None,FEA,3.088,None,None,None,None,,,,,,,,,,,,,,,2015_Sep_16_1913,A,facesParametric,8,59.7300522636,
./basicStim/07F_AN_O.jpg,,0,10,10,28,,,,,,,,,,,None,None,ANG,1.263,None,None,None,None,,,,,,,,,,,,,,,2015_Sep_16_1913,A,facesParametric,8,59.7300522636,
./basicStim/01F_AN_O.jpg,,0,11,11,0,,,,,,,,,,,None,None,ANG,0.692,None,None,None,None,,,,,,,,,,,,,,,2015_Sep_16_1913,A,facesParametric,8,59.7300522636,
./basicStim/03F_NE_C.jpg,,0,12,12,20,,,,,,,,,,,None,None,None,None,None,None,NTR,1.569,,,,,,,,,,,,,,,2015_Sep_16_1913,A,facesParametric,8,59.7300522636,
./basicStim/06F_NE_C.jpg,,0,13,13,27,,,,,,,,,,,None,None,None,None,None,None,NTR,0.816,,,,,,,,,,,,,,,2015_Sep_16_1913,A,facesParametric,8,59.7300522636,
./basicStim/07F_SA_C.jpg,,0,14,14,32,,,,,,,,,,,SAD,1.146,None,None,None,None,None,None,,,,,,,,,,,,,,,2015_Sep_16_1913,A,facesParametric,8,59.7300522636,
./basicStim/21M_FE_O.jpg,,0,15,15,44,,,,,,,,,,,None,None,FEA,2.028,None,None,None,None,,,,,,,,,,,,,,,2015_Sep_16_1913,A,facesParametric,8,59.7300522636,
./basicStim/06F_SP_O.jpg,,0,16,16,26,,,,,,,,,,,None,None,FEA,1.061,None,None,None,None,,,,,,,,,,,,,,,2015_Sep_16_1913,A,facesParametric,8,59.7300522636,
./basicStim/06F_DI_O.jpg,,0,17,17,22,,,,,,,,,,,None,None,None,None,DIS,1.359,None,None,,,,,,,,,,,,,,,2015_Sep_16_1913,A,facesParametric,8,59.7300522636,
./basicStim/07F_SP_O.jpg,,0,18,18,33,,,,,,,,,,,None,None,FEA,1.443,None,None,None,None,,,,,,,,,,,,,,,2015_Sep_16_1913,A,facesParametric,8,59.7300522636,
./basicStim/21M_NE_C.jpg,,0,19,19,48,,,,,,,,,,,None,None,ANG,2.656,None,None,None,None,,,,,,,,,,,,,,,2015_Sep_16_1913,A,facesParametric,8,59.7300522636,
./basicStim/01F_HA_O.jpg,,0,20,20,3,,,,,,,,,,,HAP,1.818,None,None,None,None,None,None,,,,,,,,,,,,,,,2015_Sep_16_1913,A,facesParametric,8,59.7300522636,
./basicStim/02F_FE_O.jpg,,0,21,21,9,,,,,,,,,,,None,None,FEA,1.126,None,None,None,None,,,,,,,,,,,,,,,2015_Sep_16_1913,A,facesParametric,8,59.7300522636,
./basicStim/21M_DI_O.jpg,,0,22,22,43,,,,,,,,,,,None,None,None,None,DIS,1.279,None,None,,,,,,,,,,,,,,,2015_Sep_16_1913,A,facesParametric,8,59.7300522636,
./basicStim/06F_SA_C.jpg,,0,23,23,25,,,,,,,,,,,SAD,1.885,None,None,None,None,None,None,,,,,,,,,,,,,,,2015_Sep_16_1913,A,facesParametric,8,59.7300522636,
./basicStim/03F_HA_O.jpg,,0,24,24,17,,,,,,,,,,,HAP,1.353,None,None,None,None,None,None,,,,,,,,,,,,,,,2015_Sep_16_1913,A,facesParametric,8,59.7300522636,
./basicStim/09F_AN_O.jpg,,0,25,25,35,,,,,,,,,,,None,None,ANG,3.07,None,None,None,None,,,,,,,,,,,,,,,2015_Sep_16_1913,A,facesParametric,8,59.7300522636,
./basicStim/09F_NE_C.jpg,,0,26,26,41,,,,,,,,,,,None,None,None,None,None,None,NTR,2.486,,,,,,,,,,,,,,,2015_Sep_16_1913,A,facesParametric,8,59.7300522636,
./basicStim/02F_AN_O.jpg,,0,27,27,7,,,,,,,,,,,None,None,ANG,4.108,None,None,None,None,,,,,,,,,,,,,,,2015_Sep_16_1913,A,facesParametric,8,59.7300522636,
./basicStim/34M_DI_O.jpg,,0,28,28,71,,,,,,,,,,,None,None,None,None,DIS,1.226,None,None,,,,,,,,,,,,,,,2015_Sep_16_1913,A,facesParametric,8,59.7300522636,
./basicStim/02F_SP_O.jpg,,0,29,29,12,,,,,,,,,,,None,None,None,None,SUP,1.644,None,None,,,,,,,,,,,,,,,2015_Sep_16_1913,A,facesParametric,8,59.7300522636,
./basicStim/09F_SP_O.jpg,,0,30,30,40,,,,,,,,,,,None,None,None,None,SUP,9.026,None,None,,,,,,,,,,,,,,,2015_Sep_16_1913,A,facesParametric,8,59.7300522636,
./basicStim/09F_DI_O.jpg,,0,31,31,36,,,,,,,,,,,None,None,None,None,DIS,1.342,None,None,,,,,,,,,,,,,,,2015_Sep_16_1913,A,facesParametric,8,59.7300522636,
./basicStim/02F_NE_C.jpg,,0,32,32,13,,,,,,,,,,,SAD,1.848,None,None,None,None,None,None,,,,,,,,,,,,,,,2015_Sep_16_1913,A,facesParametric,8,59.7300522636,
./basicStim/36M_FE_O.jpg,,0,33,33,79,,,,,,,,,,,None,None,FEA,2.016,None,None,None,None,,,,,,,,,,,,,,,2015_Sep_16_1913,A,facesParametric,8,59.7300522636,
./basicStim/23M_DI_O.jpg,,0,34,34,50,,,,,,,,,,,SAD,4.013,None,None,None,None,None,None,,,,,,,,,,,,,,,2015_Sep_16_1913,A,facesParametric,8,59.7300522636,
./basicStim/23M_NE_C.jpg,,0,35,35,55,,,,,,,,,,,None,None,None,None,None,None,NTR,1.837,,,,,,,,,,,,,,,2015_Sep_16_1913,A,facesParametric,8,59.7300522636,
./basicStim/09F_SA_C.jpg,,0,36,36,39,,,,,,,,,,,SAD,2.048,None,None,None,None,None,None,,,,,,,,,,,,,,,2015_Sep_16_1913,A,facesParametric,8,59.7300522636,
./basicStim/03F_AN_O.jpg,,0,37,37,14,,,,,,,,,,,None,None,ANG,1.061,None,None,None,None,,,,,,,,,,,,,,,2015_Sep_16_1913,A,facesParametric,8,59.7300522636,
./basicStim/28M_FE_O.jpg,,0,38,38,65,,,,,,,,,,,None,None,FEA,1.649,None,None,None,None,,,,,,,,,,,,,,,2015_Sep_16_1913,A,facesParametric,8,59.7300522636,
./basicStim/24M_SA_C.jpg,,0,39,39,60,,,,,,,,,,,SAD,1.279,None,None,None,None,None,None,,,,,,,,,,,,,,,2015_Sep_16_1913,A,facesParametric,8,59.7300522636,
./basicStim/03F_FE_O.jpg,,0,40,40,16,,,,,,,,,,,None,None,FEA,0.98,None,None,None,None,,,,,,,,,,,,,,,2015_Sep_16_1913,A,facesParametric,8,59.7300522636,
./basicStim/07F_DI_O.jpg,,0,41,41,29,,,,,,,,,,,None,None,None,None,DIS,1.273,None,None,,,,,,,,,,,,,,,2015_Sep_16_1913,A,facesParametric,8,59.7300522636,
./basicStim/36M_HA_O.jpg,,0,42,42,80,,,,,,,,,,,HAP,1.366,None,None,None,None,None,None,,,,,,,,,,,,,,,2015_Sep_16_1913,A,facesParametric,8,59.7300522636,
./basicStim/23M_SP_O.jpg,,0,43,43,54,,,,,,,,,,,None,None,None,None,SUP,2.22,None,None,,,,,,,,,,,,,,,2015_Sep_16_1913,A,facesParametric,8,59.7300522636,
./basicStim/02F_DI_O.jpg,,0,44,44,8,,,,,,,,,,,None,None,None,None,DIS,4.855,None,None,,,,,,,,,,,,,,,2015_Sep_16_1913,A,facesParametric,8,59.7300522636,
./basicStim/23M_AN_O.jpg,,0,45,45,49,,,,,,,,,,,None,None,ANG,0.894,None,None,None,None,,,,,,,,,,,,,,,2015_Sep_16_1913,A,facesParametric,8,59.7300522636,
./basicStim/01F_SA_C.jpg,,0,46,46,4,,,,,,,,,,,SAD,1.817,None,None,None,None,None,None,,,,,,,,,,,,,,,2015_Sep_16_1913,A,facesParametric,8,59.7300522636,
./basicStim/23M_HA_O.jpg,,0,47,47,52,,,,,,,,,,,HAP,1.531,None,None,None,None,None,None,,,,,,,,,,,,,,,2015_Sep_16_1913,A,facesParametric,8,59.7300522636,
./basicStim/23M_SA_C.jpg,,0,48,48,53,,,,,,,,,,,SAD,3.358,None,None,None,None,None,None,,,,,,,,,,,,,,,2015_Sep_16_1913,A,facesParametric,8,59.7300522636,
./basicStim/24M_HA_O.jpg,,0,49,49,59,,,,,,,,,,,HAP,1.211,None,None,None,None,None,None,,,,,,,,,,,,,,,2015_Sep_16_1913,A,facesParametric,8,59.7300522636,
./basicStim/24M_FE_O.jpg,,0,50,50,58,,,,,,,,,,,None,None,FEA,2.002,None,None,None,None,,,,,,,,,,,,,,,2015_Sep_16_1913,A,facesParametric,8,59.7300522636,
./basicStim/21M_SP_O.jpg,,0,51,51,47,,,,,,,,,,,None,None,None,None,SUP,1.179,None,None,,,,,,,,,,,,,,,2015_Sep_16_1913,A,facesParametric,8,59.7300522636,
./basicStim/09F_HA_O.jpg,,0,52,52,38,,,,,,,,,,,HAP,2.052,None,None,None,None,None,None,,,,,,,,,,,,,,,2015_Sep_16_1913,A,facesParametric,8,59.7300522636,
./basicStim/34M_SA_C.jpg,,0,53,53,74,,,,,,,,,,,SAD,1.167,None,None,None,None,None,None,,,,,,,,,,,,,,,2015_Sep_16_1913,A,facesParametric,8,59.7300522636,
./basicStim/24M_DI_O.jpg,,0,54,54,57,,,,,,,,,,,None,None,FEA,3.221,None,None,None,None,,,,,,,,,,,,,,,2015_Sep_16_1913,A,facesParametric,8,59.7300522636,
./basicStim/28M_DI_O.jpg,,0,55,55,64,,,,,,,,,,,None,None,None,None,DIS,1.677,None,None,,,,,,,,,,,,,,,2015_Sep_16_1913,A,facesParametric,8,59.7300522636,
./basicStim/02F_HA_O.jpg,,0,56,56,10,,,,,,,,,,,HAP,1.067,None,None,None,None,None,None,,,,,,,,,,,,,,,2015_Sep_16_1913,A,facesParametric,8,59.7300522636,
./basicStim/28M_HA_O.jpg,,0,57,57,66,,,,,,,,,,,HAP,1.064,None,None,None,None,None,None,,,,,,,,,,,,,,,2015_Sep_16_1913,A,facesParametric,8,59.7300522636,
./basicStim/03F_SP_O.jpg,,0,58,58,19,,,,,,,,,,,None,None,None,None,SUP,2.771,None,None,,,,,,,,,,,,,,,2015_Sep_16_1913,A,facesParametric,8,59.7300522636,
./basicStim/34M_NE_C.jpg,,0,59,59,76,,,,,,,,,,,None,None,None,None,None,None,NTR,1.763,,,,,,,,,,,,,,,2015_Sep_16_1913,A,facesParametric,8,59.7300522636,
./basicStim/21M_SA_C.jpg,,0,60,60,46,,,,,,,,,,,SAD,2.755,None,None,None,None,None,None,,,,,,,,,,,,,,,2015_Sep_16_1913,A,facesParametric,8,59.7300522636,
./basicStim/36M_DI_O.jpg,,0,61,61,78,,,,,,,,,,,None,None,None,None,DIS,1.396,None,None,,,,,,,,,,,,,,,2015_Sep_16_1913,A,facesParametric,8,59.7300522636,
./basicStim/01F_DI_O.jpg,,0,62,62,1,,,,,,,,,,,None,None,ANG,3.287,None,None,None,None,,,,,,,,,,,,,,,2015_Sep_16_1913,A,facesParametric,8,59.7300522636,
./basicStim/01F_NE_C.jpg,,0,63,63,6,,,,,,,,,,,HAP,1.413,None,None,None,None,None,None,,,,,,,,,,,,,,,2015_Sep_16_1913,A,facesParametric,8,59.7300522636,
./basicStim/07F_HA_O.jpg,,0,64,64,31,,,,,,,,,,,HAP,4.182,None,None,None,None,None,None,,,,,,,,,,,,,,,2015_Sep_16_1913,A,facesParametric,8,59.7300522636,
./basicStim/21M_AN_O.jpg,,0,65,65,42,,,,,,,,,,,None,None,ANG,1.294,None,None,None,None,,,,,,,,,,,,,,,2015_Sep_16_1913,A,facesParametric,8,59.7300522636,
./basicStim/03F_SA_C.jpg,,0,66,66,18,,,,,,,,,,,SAD,1.463,None,None,None,None,None,None,,,,,,,,,,,,,,,2015_Sep_16_1913,A,facesParametric,8,59.7300522636,
./basicStim/36M_AN_O.jpg,,0,67,67,77,,,,,,,,,,,None,None,ANG,1.531,None,None,None,None,,,,,,,,,,,,,,,2015_Sep_16_1913,A,facesParametric,8,59.7300522636,
./basicStim/24M_SP_O.jpg,,0,68,68,61,,,,,,,,,,,None,None,None,None,SUP,5.889,None,None,,,,,,,,,,,,,,,2015_Sep_16_1913,A,facesParametric,8,59.7300522636,
./basicStim/28M_SP_O.jpg,,0,69,69,68,,,,,,,,,,,None,None,None,None,SUP,1.732,None,None,,,,,,,,,,,,,,,2015_Sep_16_1913,A,facesParametric,8,59.7300522636,
./basicStim/06F_HA_O.jpg,,0,70,70,24,,,,,,,,,,,HAP,1.722,None,None,None,None,None,None,,,,,,,,,,,,,,,2015_Sep_16_1913,A,facesParametric,8,59.7300522636,
./basicStim/01F_SP_O.jpg,,0,71,71,5,,,,,,,,,,,None,None,None,None,SUP,1.045,None,None,,,,,,,,,,,,,,,2015_Sep_16_1913,A,facesParametric,8,59.7300522636,
./basicStim/36M_SP_O.jpg,,0,72,72,82,,,,,,,,,,,None,None,None,None,SUP,2.569,None,None,,,,,,,,,,,,,,,2015_Sep_16_1913,A,facesParametric,8,59.7300522636,
./basicStim/28M_AN_O.jpg,,0,73,73,63,,,,,,,,,,,None,None,ANG,2.463,None,None,None,None,,,,,,,,,,,,,,,2015_Sep_16_1913,A,facesParametric,8,59.7300522636,
./basicStim/03F_DI_O.jpg,,0,74,74,15,,,,,,,,,,,None,None,None,None,DIS,1.195,None,None,,,,,,,,,,,,,,,2015_Sep_16_1913,A,facesParametric,8,59.7300522636,
./basicStim/21M_HA_O.jpg,,0,75,75,45,,,,,,,,,,,HAP,1.696,None,None,None,None,None,None,,,,,,,,,,,,,,,2015_Sep_16_1913,A,facesParametric,8,59.7300522636,
./basicStim/07F_NE_C.jpg,,0,76,76,34,,,,,,,,,,,None,None,None,None,None,None,NTR,2.116,,,,,,,,,,,,,,,2015_Sep_16_1913,A,facesParametric,8,59.7300522636,
./basicStim/09F_FE_O.jpg,,0,77,77,37,,,,,,,,,,,None,None,FEA,1.899,None,None,None,None,,,,,,,,,,,,,,,2015_Sep_16_1913,A,facesParametric,8,59.7300522636,
./basicStim/24M_AN_O.jpg,,0,78,78,56,,,,,,,,,,,None,None,ANG,0.757,None,None,None,None,,,,,,,,,,,,,,,2015_Sep_16_1913,A,facesParametric,8,59.7300522636,
./basicStim/06F_FE_O.jpg,,0,79,79,23,,,,,,,,,,,None,None,FEA,1.787,None,None,None,None,,,,,,,,,,,,,,,2015_Sep_16_1913,A,facesParametric,8,59.7300522636,
./basicStim/02F_SA_C.jpg,,0,80,80,11,,,,,,,,,,,SAD,1.112,None,None,None,None,None,None,,,,,,,,,,,,,,,2015_Sep_16_1913,A,facesParametric,8,59.7300522636,
./basicStim/36M_NE_C.jpg,,0,81,81,83,,,,,,,,,,,None,None,None,None,None,None,NTR,1.173,,,,,,,,,,,,,,,2015_Sep_16_1913,A,facesParametric,8,59.7300522636,
./basicStim/28M_SA_C.jpg,,0,82,82,67,,,,,,,,,,,None,None,None,None,None,None,NTR,6.382,,,,,,,,,,,,,,,2015_Sep_16_1913,A,facesParametric,8,59.7300522636,
./basicStim/24M_NE_C.jpg,,0,83,83,62,,,,,,,,,,,None,None,None,None,None,None,NTR,1.829,,,,,,,,,,,,,,,2015_Sep_16_1913,A,facesParametric,8,59.7300522636,
,,,,,,,,,,,,,,,,,,,,,,,,return,20.6160421371,,,,,,,,,,,,,2015_Sep_16_1913,A,facesParametric,8,59.7300522636,
,,,,,,,,,,,,,,return,4.0051009655,,,,,,,,,,,,,,,,,,,,,,,2015_Sep_16_1913,A,facesParametric,8,59.7300522636,
,,,,,,,,,,,,,,,,,,,,,,,,return,15.7538571358,,,,,,,,,,,,,2015_Sep_16_1913,A,facesParametric,8,59.7300522636,
,,,,,,,,,,,,,,,,,,,,,,,,,,return,2.07820820808,,,,,,,,,,,2015_Sep_16_1913,A,facesParametric,8,59.7300522636,
./stim/MorphM5_06_orig.jpg,0,,,,,0,0,0,0,,,,,,,,,,,,,,,,,,,-20.390625,10.01953125,1,0,0,6.51734900475,,,,,2015_Sep_16_1913,A,facesParametric,8,59.7300522636,
./stim/MorphF7_00_orig.jpg,1,,,,,0,1,1,1,,,,,,,,,,,,,,,,,,,-20.244140625,9.43359375,0,0,1,0.953679084778,,,,,2015_Sep_16_1913,A,facesParametric,8,59.7300522636,
./stim/MorphF5_03_orig.jpg,2,,,,,0,2,2,2,,,,,,,,,,,,,,,,,,,-20.0390625,9.169921875,0,0,1,2.51053404808,,,,,2015_Sep_16_1913,A,facesParametric,8,59.7300522636,
./stim/MorphF2_08_orig.jpg,3,,,,,0,3,3,3,,,,,,,,,,,,,,,,,,,-20.15625,8.056640625,1,0,0,1.0879650116,,,,,2015_Sep_16_1913,A,facesParametric,8,59.7300522636,
./stim/MorphM10_07_orig.jpg,4,,,,,0,4,4,4,,,,,,,,,,,,,,,,,,,-20.09765625,8.056640625,1,0,0,0.818952083588,,,,,2015_Sep_16_1913,A,facesParametric,8,59.7300522636,
./stim/MorphF9_08_orig.jpg,5,,,,,0,5,5,5,,,,,,,,,,,,,,,,,,,-20.0390625,8.02734375,1,0,0,2.34520506859,,,,,2015_Sep_16_1913,A,facesParametric,8,59.7300522636,
./stim/MorphF3_04_orig.jpg,6,,,,,0,6,6,6,,,,,,,,,,,,,,,,,,,-20.0390625,8.02734375,0,0,1,0.902333021164,,,,,2015_Sep_16_1913,A,facesParametric,8,59.7300522636,
./stim/MorphF1_01_orig.jpg,7,,,,,0,7,7,7,,,,,,,,,,,,,,,,,,,-20.0390625,8.0859375,0,0,1,0.717306137085,,,,,2015_Sep_16_1913,A,facesParametric,8,59.7300522636,
./stim/MorphM5_08_orig.jpg,8,,,,,0,8,8,8,,,,,,,,,,,,,,,,,,,-20.009765625,7.91015625,1,0,0,1.13779902458,,,,,2015_Sep_16_1913,A,facesParametric,8,59.7300522636,
./stim/MorphM4_04_orig.jpg,9,,,,,0,9,9,9,,,,,,,,,,,,,,,,,,,-20.009765625,8.0859375,0,0,1,1.13923597336,,,,,2015_Sep_16_1913,A,facesParametric,8,59.7300522636,
./stim/MorphF6_01_orig.jpg,10,,,,,0,10,10,10,,,,,,,,,,,,,,,,,,,-20.009765625,8.115234375,0,0,1,1.05180287361,,,,,2015_Sep_16_1913,A,facesParametric,8,59.7300522636,
./stim/MorphF2_06_orig.jpg,11,,,,,0,11,11,11,,,,,,,,,,,,,,,,,,,-19.921875,8.14453125,0,0,1,1.05297517776,,,,,2015_Sep_16_1913,A,facesParametric,8,59.7300522636,
./stim/MorphF6_08_orig.jpg,12,,,,,0,12,12,12,,,,,,,,,,,,,,,,,,,-19.921875,8.14453125,1,0,0,1.18740200996,,,,,2015_Sep_16_1913,A,facesParametric,8,59.7300522636,
./stim/MorphF8_08_orig.jpg,13,,,,,0,13,13,13,,,,,,,,,,,,,,,,,,,-19.921875,8.14453125,0,0,1,2.74839186668,,,,,2015_Sep_16_1913,A,facesParametric,8,59.7300522636,
./stim/MorphF4_03_orig.jpg,14,,,,,0,14,14,14,,,,,,,,,,,,,,,,,,,-19.921875,8.173828125,0,0,1,0.65084195137,,,,,2015_Sep_16_1913,A,facesParametric,8,59.7300522636,
./stim/MorphF6_03_orig.jpg,15,,,,,0,15,15,15,,,,,,,,,,,,,,,,,,,-19.951171875,8.203125,0,0,1,0.683133125305,,,,,2015_Sep_16_1913,A,facesParametric,8,59.7300522636,
./stim/MorphF9_06_orig.jpg,16,,,,,0,16,16,16,,,,,,,,,,,,,,,,,,,-19.921875,8.232421875,0,0,1,1.69067597389,,,,,2015_Sep_16_1913,A,facesParametric,8,59.7300522636,
./stim/MorphF10_07_orig.jpg,17,,,,,0,17,17,17,,,,,,,,,,,,,,,,,,,-19.921875,8.203125,0,0,1,3.61657595634,,,,,2015_Sep_16_1913,A,facesParametric,8,59.7300522636,
./stim/MorphM9_03_orig.jpg,18,,,,,0,18,18,18,,,,,,,,,,,,,,,,,,,-19.98046875,8.115234375,0,0,1,1.27065396309,,,,,2015_Sep_16_1913,A,facesParametric,8,59.7300522636,
./stim/MorphF4_08_orig.jpg,19,,,,,0,19,19,19,,,,,,,,,,,,,,,,,,,-20.0390625,8.115234375,1,0,0,1.40709900856,,,,,2015_Sep_16_1913,A,facesParametric,8,59.7300522636,
./stim/MorphF5_06_orig.jpg,20,,,,,0,20,20,20,,,,,,,,,,,,,,,,,,,-20.009765625,8.173828125,0,0,1,2.7133769989,,,,,2015_Sep_16_1913,A,facesParametric,8,59.7300522636,
./stim/MorphM7_01_orig.jpg,21,,,,,0,21,21,21,,,,,,,,,,,,,,,,,,,-19.951171875,8.115234375,1,0,0,1.08749389648,,,,,2015_Sep_16_1913,A,facesParametric,8,59.7300522636,
./stim/MorphF3_03_orig.jpg,22,,,,,0,22,22,22,,,,,,,,,,,,,,,,,,,-19.951171875,8.14453125,0,0,1,0.804368972778,,,,,2015_Sep_16_1913,A,facesParametric,8,59.7300522636,
./stim/MorphM3_05_orig.jpg,23,,,,,0,23,23,23,,,,,,,,,,,,,,,,,,,-20.009765625,8.0859375,1,0,0,1.9924929142,,,,,2015_Sep_16_1913,A,facesParametric,8,59.7300522636,
./stim/MorphM4_01_orig.jpg,24,,,,,0,24,24,24,,,,,,,,,,,,,,,,,,,-20.009765625,8.115234375,0,0,1,1.05464196205,,,,,2015_Sep_16_1913,A,facesParametric,8,59.7300522636,
./stim/MorphF6_02_orig.jpg,25,,,,,0,25,25,25,,,,,,,,,,,,,,,,,,,-20.009765625,8.115234375,0,0,1,0.836665153503,,,,,2015_Sep_16_1913,A,facesParametric,8,59.7300522636,
./stim/MorphF7_03_orig.jpg,26,,,,,0,26,26,26,,,,,,,,,,,,,,,,,,,-20.0390625,8.14453125,0,0,1,0.685597896576,,,,,2015_Sep_16_1913,A,facesParametric,8,59.7300522636,
./stim/MorphF2_02_orig.jpg,27,,,,,0,27,27,27,,,,,,,,,,,,,,,,,,,-19.921875,8.173828125,0,0,1,2.47878408432,,,,,2015_Sep_16_1913,A,facesParametric,8,59.7300522636,
./stim/MorphM9_00_orig.jpg,28,,,,,0,28,28,28,,,,,,,,,,,,,,,,,,,-19.892578125,8.14453125,0,0,1,1.85939502716,,,,,2015_Sep_16_1913,A,facesParametric,8,59.7300522636,
./stim/MorphF7_05_orig.jpg,29,,,,,0,29,29,29,,,,,,,,,,,,,,,,,,,-19.775390625,8.173828125,0,0,1,2.83108592033,,,,,2015_Sep_16_1913,A,facesParametric,8,59.7300522636,
./stim/MorphF8_10_orig.jpg,30,,,,,0,30,30,30,,,,,,,,,,,,,,,,,,,-19.658203125,8.3203125,1,0,0,1.20553803444,,,,,2015_Sep_16_1913,A,facesParametric,8,59.7300522636,
./stim/MorphM6_08_orig.jpg,31,,,,,0,31,31,31,,,,,,,,,,,,,,,,,,,-19.658203125,8.3203125,0,0,1,7.80873203278,,,,,2015_Sep_16_1913,A,facesParametric,8,59.7300522636,
./stim/MorphM1_09_orig.jpg,32,,,,,0,32,32,32,,,,,,,,,,,,,,,,,,,-19.6875,8.291015625,1,0,0,1.15410208702,,,,,2015_Sep_16_1913,A,facesParametric,8,59.7300522636,
./stim/MorphF9_01_orig.jpg,33,,,,,0,33,33,33,,,,,,,,,,,,,,,,,,,-19.6875,8.37890625,0,0,1,3.46798396111,,,,,2015_Sep_16_1913,A,facesParametric,8,59.7300522636,
./stim/MorphM1_03_orig.jpg,34,,,,,0,34,34,34,,,,,,,,,,,,,,,,,,,-19.74609375,8.232421875,0,0,1,3.50098085403,,,,,2015_Sep_16_1913,A,facesParametric,8,59.7300522636,
./stim/MorphM8_07_orig.jpg,35,,,,,0,35,35,35,,,,,,,,,,,,,,,,,,,-19.8046875,8.37890625,1,0,0,5.62832808495,,,,,2015_Sep_16_1913,A,facesParametric,8,59.7300522636,
./stim/MorphF8_03_orig.jpg,36,,,,,0,36,36,36,,,,,,,,,,,,,,,,,,,-19.8046875,8.37890625,0,0,1,3.68480420113,,,,,2015_Sep_16_1913,A,facesParametric,8,59.7300522636,
./stim/MorphM6_10_orig.jpg,37,,,,,0,37,37,37,,,,,,,,,,,,,,,,,,,-19.74609375,8.232421875,1,0,0,6.7864382267,,,,,2015_Sep_16_1913,A,facesParametric,8,59.7300522636,
./stim/MorphM4_07_orig.jpg,38,,,,,0,38,38,38,,,,,,,,,,,,,,,,,,,-19.6875,8.115234375,1,0,0,1.18874502182,,,,,2015_Sep_16_1913,A,facesParametric,8,59.7300522636,
./stim/MorphF3_09_orig.jpg,39,,,,,0,39,39,39,,,,,,,,,,,,,,,,,,,-19.6875,8.14453125,0,0,1,1.44000196457,,,,,2015_Sep_16_1913,A,facesParametric,8,59.7300522636,
./stim/MorphM10_04_orig.jpg,40,,,,,0,40,40,40,,,,,,,,,,,,,,,,,,,-19.6875,8.173828125,0,0,1,1.13717198372,,,,,2015_Sep_16_1913,A,facesParametric,8,59.7300522636,
./stim/MorphM7_07_orig.jpg,41,,,,,0,41,41,41,,,,,,,,,,,,,,,,,,,-19.6875,8.173828125,1,0,0,1.87694787979,,,,,2015_Sep_16_1913,A,facesParametric,8,59.7300522636,
./stim/MorphM8_00_orig.jpg,42,,,,,0,42,42,42,,,,,,,,,,,,,,,,,,,-19.62890625,8.232421875,0,0,1,3.16615581512,,,,,2015_Sep_16_1913,A,facesParametric,8,59.7300522636,
./stim/MorphF9_05_orig.jpg,43,,,,,0,43,43,43,,,,,,,,,,,,,,,,,,,-19.599609375,8.173828125,0,0,1,0.954112052917,,,,,2015_Sep_16_1913,A,facesParametric,8,59.7300522636,
./stim/MorphM2_04_orig.jpg,44,,,,,0,44,44,44,,,,,,,,,,,,,,,,,,,-19.599609375,8.115234375,0,0,1,0.853266000748,,,,,2015_Sep_16_1913,A,facesParametric,8,59.7300522636,
./stim/MorphF5_01_orig.jpg,45,,,,,0,45,45,45,,,,,,,,,,,,,,,,,,,-19.5703125,8.232421875,0,0,1,2.49470210075,,,,,2015_Sep_16_1913,A,facesParametric,8,59.7300522636,
./stim/MorphF1_03_orig.jpg,46,,,,,0,46,46,46,,,,,,,,,,,,,,,,,,,-19.5703125,8.232421875,0,0,1,1.80855703354,,,,,2015_Sep_16_1913,A,facesParametric,8,59.7300522636,
./stim/MorphM9_08_orig.jpg,47,,,,,0,47,47,47,,,,,,,,,,,,,,,,,,,-19.51171875,8.26171875,0,0,1,4.94308114052,,,,,2015_Sep_16_1913,A,facesParametric,8,59.7300522636,
./stim/MorphM4_08_orig.jpg,48,,,,,0,48,48,48,,,,,,,,,,,,,,,,,,,-19.541015625,8.232421875,1,0,0,0.919767141342,,,,,2015_Sep_16_1913,A,facesParametric,8,59.7300522636,
./stim/MorphM8_08_orig.jpg,49,,,,,0,49,49,49,,,,,,,,,,,,,,,,,,,-19.541015625,8.203125,1,0,0,1.00440216064,,,,,2015_Sep_16_1913,A,facesParametric,8,59.7300522636,
./stim/MorphF10_03_orig.jpg,50,,,,,0,50,50,50,,,,,,,,,,,,,,,,,,,-19.5703125,8.173828125,0,0,1,1.67460203171,,,,,2015_Sep_16_1913,A,facesParametric,8,59.7300522636,
./stim/MorphM5_07_orig.jpg,51,,,,,0,51,51,51,,,,,,,,,,,,,,,,,,,-19.62890625,8.173828125,1,0,0,2.12746310234,,,,,2015_Sep_16_1913,A,facesParametric,8,59.7300522636,
./stim/MorphM4_05_orig.jpg,52,,,,,0,52,52,52,,,,,,,,,,,,,,,,,,,-19.62890625,8.203125,1,0,0,1.02041697502,,,,,2015_Sep_16_1913,A,facesParametric,8,59.7300522636,
./stim/MorphM2_05_orig.jpg,53,,,,,0,53,53,53,,,,,,,,,,,,,,,,,,,-19.658203125,8.26171875,0,0,1,1.25572705269,,,,,2015_Sep_16_1913,A,facesParametric,8,59.7300522636,
./stim/MorphM5_02_orig.jpg,54,,,,,0,54,54,54,,,,,,,,,,,,,,,,,,,-19.6875,8.173828125,1,0,0,0.937494039536,,,,,2015_Sep_16_1913,A,facesParametric,8,59.7300522636,
./stim/MorphM6_00_orig.jpg,55,,,,,0,55,55,55,,,,,,,,,,,,,,,,,,,-19.6875,8.203125,0,0,1,1.28943395615,,,,,2015_Sep_16_1913,A,facesParametric,8,59.7300522636,
./stim/MorphM3_07_orig.jpg,56,,,,,0,56,56,56,,,,,,,,,,,,,,,,,,,-19.6875,8.203125,1,0,0,1.25388979912,,,,,2015_Sep_16_1913,A,facesParametric,8,59.7300522636,
./stim/MorphF3_05_orig.jpg,57,,,,,0,57,57,57,,,,,,,,,,,,,,,,,,,-19.716796875,8.173828125,0,0,1,1.05429291725,,,,,2015_Sep_16_1913,A,facesParametric,8,59.7300522636,
./stim/MorphM3_06_orig.jpg,58,,,,,0,58,58,58,,,,,,,,,,,,,,,,,,,-19.716796875,8.14453125,1,0,0,0.75129199028,,,,,2015_Sep_16_1913,A,facesParametric,8,59.7300522636,
./stim/MorphF10_06_orig.jpg,59,,,,,0,59,59,59,,,,,,,,,,,,,,,,,,,-19.658203125,8.14453125,0,0,1,1.38981890678,,,,,2015_Sep_16_1913,A,facesParametric,8,59.7300522636,
./stim/MorphF1_10_orig.jpg,60,,,,,0,60,60,60,,,,,,,,,,,,,,,,,,,-19.62890625,8.056640625,1,0,0,3.3507809639,,,,,2015_Sep_16_1913,A,facesParametric,8,59.7300522636,
./stim/MorphM4_09_orig.jpg,61,,,,,0,61,61,61,,,,,,,,,,,,,,,,,,,-19.62890625,8.056640625,1,0,0,0.854001998901,,,,,2015_Sep_16_1913,A,facesParametric,8,59.7300522636,
./stim/MorphF5_07_orig.jpg,62,,,,,0,62,62,62,,,,,,,,,,,,,,,,,,,-19.62890625,8.056640625,0,0,1,1.11905217171,,,,,2015_Sep_16_1913,A,facesParametric,8,59.7300522636,
./stim/MorphM10_02_orig.jpg,63,,,,,0,63,63,63,,,,,,,,,,,,,,,,,,,-19.5703125,8.0859375,0,0,1,1.27155900002,,,,,2015_Sep_16_1913,A,facesParametric,8,59.7300522636,
./stim/MorphF1_02_orig.jpg,64,,,,,0,64,64,64,,,,,,,,,,,,,,,,,,,-19.541015625,8.115234375,0,0,1,0.719465970993,,,,,2015_Sep_16_1913,A,facesParametric,8,59.7300522636,
./stim/MorphM9_02_orig.jpg,65,,,,,0,65,65,65,,,,,,,,,,,,,,,,,,,-19.541015625,8.14453125,0,0,1,1.67492699623,,,,,2015_Sep_16_1913,A,facesParametric,8,59.7300522636,
./stim/MorphF4_01_orig.jpg,66,,,,,0,66,66,66,,,,,,,,,,,,,,,,,,,-19.541015625,8.14453125,0,0,1,0.535624027252,,,,,2015_Sep_16_1913,A,facesParametric,8,59.7300522636,
./stim/MorphM6_03_orig.jpg,67,,,,,0,67,67,67,,,,,,,,,,,,,,,,,,,-19.51171875,8.203125,0,0,1,0.836061000824,,,,,2015_Sep_16_1913,A,facesParametric,8,59.7300522636,
./stim/MorphM4_06_orig.jpg,68,,,,,0,68,68,68,,,,,,,,,,,,,,,,,,,-19.482421875,8.173828125,1,0,0,0.885257959366,,,,,2015_Sep_16_1913,A,facesParametric,8,59.7300522636,
./stim/MorphF6_05_orig.jpg,69,,,,,0,69,69,69,,,,,,,,,,,,,,,,,,,-19.453125,8.173828125,0,0,1,1.10370206833,,,,,2015_Sep_16_1913,A,facesParametric,8,59.7300522636,
./stim/MorphF5_04_orig.jpg,70,,,,,0,70,70,70,,,,,,,,,,,,,,,,,,,-19.39453125,8.056640625,0,0,1,1.43949103355,,,,,2015_Sep_16_1913,A,facesParametric,8,59.7300522636,
./stim/MorphM3_10_orig.jpg,71,,,,,0,71,71,71,,,,,,,,,,,,,,,,,,,-19.423828125,8.056640625,1,0,0,0.919658184052,,,,,2015_Sep_16_1913,A,facesParametric,8,59.7300522636,
./stim/MorphF10_04_orig.jpg,72,,,,,0,72,72,72,,,,,,,,,,,,,,,,,,,-19.453125,7.998046875,0,0,1,3.43461894989,,,,,2015_Sep_16_1913,A,facesParametric,8,59.7300522636,
./stim/MorphF6_00_orig.jpg,73,,,,,0,73,73,73,,,,,,,,,,,,,,,,,,,-19.482421875,7.939453125,0,0,1,0.819861888885,,,,,2015_Sep_16_1913,A,facesParametric,8,59.7300522636,
./stim/MorphM8_04_orig.jpg,74,,,,,0,74,74,74,,,,,,,,,,,,,,,,,,,-19.423828125,7.998046875,0,0,1,2.22766685486,,,,,2015_Sep_16_1913,A,facesParametric,8,59.7300522636,
./stim/MorphF1_09_orig.jpg,75,,,,,0,75,75,75,,,,,,,,,,,,,,,,,,,-19.423828125,7.96875,0,0,1,2.27735185623,,,,,2015_Sep_16_1913,A,facesParametric,8,59.7300522636,
./stim/MorphM7_09_orig.jpg,76,,,,,0,76,76,76,,,,,,,,,,,,,,,,,,,-19.453125,8.0859375,1,0,0,0.703038215637,,,,,2015_Sep_16_1913,A,facesParametric,8,59.7300522636,
./stim/MorphM8_10_orig.jpg,77,,,,,0,77,77,77,,,,,,,,,,,,,,,,,,,-19.453125,8.0859375,1,0,0,2.26120305061,,,,,2015_Sep_16_1913,A,facesParametric,8,59.7300522636,
./stim/MorphF5_09_orig.jpg,78,,,,,0,78,78,78,,,,,,,,,,,,,,,,,,,-19.453125,8.0859375,1,0,0,1.35582900047,,,,,2015_Sep_16_1913,A,facesParametric,8,59.7300522636,
./stim/MorphM5_05_orig.jpg,79,,,,,0,79,79,79,,,,,,,,,,,,,,,,,,,-19.453125,8.0859375,1,0,0,1.2729640007,,,,,2015_Sep_16_1913,A,facesParametric,8,59.7300522636,
./stim/MorphM10_01_orig.jpg,80,,,,,0,80,80,80,,,,,,,,,,,,,,,,,,,-19.453125,8.0859375,0,0,1,0.736777067184,,,,,2015_Sep_16_1913,A,facesParametric,8,59.7300522636,
./stim/MorphF1_04_orig.jpg,81,,,,,0,81,81,81,,,,,,,,,,,,,,,,,,,-19.482421875,8.02734375,0,0,1,0.987147808075,,,,,2015_Sep_16_1913,A,facesParametric,8,59.7300522636,
./stim/MorphM7_05_orig.jpg,82,,,,,0,82,82,82,,,,,,,,,,,,,,,,,,,-19.482421875,8.02734375,1,0,0,0.869478940964,,,,,2015_Sep_16_1913,A,facesParametric,8,59.7300522636,
./stim/MorphM9_04_orig.jpg,83,,,,,0,83,83,83,,,,,,,,,,,,,,,,,,,-19.482421875,8.02734375,0,0,1,1.17206096649,,,,,2015_Sep_16_1913,A,facesParametric,8,59.7300522636,
./stim/MorphM6_06_orig.jpg,84,,,,,0,84,84,84,,,,,,,,,,,,,,,,,,,-19.482421875,8.02734375,0,0,1,0.819522857666,,,,,2015_Sep_16_1913,A,facesParametric,8,59.7300522636,
./stim/MorphM9_09_orig.jpg,85,,,,,0,85,85,85,,,,,,,,,,,,,,,,,,,-19.482421875,8.02734375,1,0,0,0.937381982803,,,,,2015_Sep_16_1913,A,facesParametric,8,59.7300522636,
./stim/MorphF5_05_orig.jpg,86,,,,,0,86,86,86,,,,,,,,,,,,,,,,,,,-19.51171875,8.056640625,0,0,1,2.61344504356,,,,,2015_Sep_16_1913,A,facesParametric,8,59.7300522636,
./stim/MorphF8_01_orig.jpg,87,,,,,0,87,87,87,,,,,,,,,,,,,,,,,,,-19.453125,8.232421875,0,0,1,2.93110203743,,,,,2015_Sep_16_1913,A,facesParametric,8,59.7300522636,
./stim/MorphM3_03_orig.jpg,88,,,,,0,88,88,88,,,,,,,,,,,,,,,,,,,-19.453125,8.232421875,1,0,0,1.10447907448,,,,,2015_Sep_16_1913,A,facesParametric,8,59.7300522636,
./stim/MorphF4_06_orig.jpg,89,,,,,0,89,89,89,,,,,,,,,,,,,,,,,,,-19.453125,8.232421875,0,0,1,0.73611497879,,,,,2015_Sep_16_1913,A,facesParametric,8,59.7300522636,
./stim/MorphF6_07_orig.jpg,90,,,,,0,90,90,90,,,,,,,,,,,,,,,,,,,-19.482421875,8.173828125,0,0,1,0.770159006119,,,,,2015_Sep_16_1913,A,facesParametric,8,59.7300522636,
./stim/MorphF7_07_orig.jpg,91,,,,,0,91,91,91,,,,,,,,,,,,,,,,,,,-19.482421875,8.173828125,0,0,1,3.4843621254,,,,,2015_Sep_16_1913,A,facesParametric,8,59.7300522636,
./stim/MorphF8_07_orig.jpg,92,,,,,0,92,92,92,,,,,,,,,,,,,,,,,,,-19.51171875,8.14453125,0,0,1,0.635787963867,,,,,2015_Sep_16_1913,A,facesParametric,8,59.7300522636,
./stim/MorphM9_01_orig.jpg,93,,,,,0,93,93,93,,,,,,,,,,,,,,,,,,,-19.5703125,8.0859375,0,0,1,1.68953800201,,,,,2015_Sep_16_1913,A,facesParametric,8,59.7300522636,
./stim/MorphF1_08_orig.jpg,94,,,,,0,94,94,94,,,,,,,,,,,,,,,,,,,-19.5703125,8.0859375,0,0,1,0.820156097412,,,,,2015_Sep_16_1913,A,facesParametric,8,59.7300522636,
./stim/MorphF4_04_orig.jpg,95,,,,,0,95,95,95,,,,,,,,,,,,,,,,,,,-19.599609375,8.056640625,0,0,1,0.702773094177,,,,,2015_Sep_16_1913,A,facesParametric,8,59.7300522636,
./stim/MorphM6_02_orig.jpg,96,,,,,0,96,96,96,,,,,,,,,,,,,,,,,,,-19.599609375,8.056640625,0,0,1,4.22235107422,,,,,2015_Sep_16_1913,A,facesParametric,8,59.7300522636,
./stim/MorphM5_10_orig.jpg,97,,,,,0,97,97,97,,,,,,,,,,,,,,,,,,,-19.541015625,8.056640625,1,0,0,0.902895927429,,,,,2015_Sep_16_1913,A,facesParametric,8,59.7300522636,
./stim/MorphF3_06_orig.jpg,98,,,,,0,98,98,98,,,,,,,,,,,,,,,,,,,-19.541015625,8.056640625,0,0,1,1.05435299873,,,,,2015_Sep_16_1913,A,facesParametric,8,59.7300522636,
./stim/MorphF10_01_orig.jpg,99,,,,,0,99,99,99,,,,,,,,,,,,,,,,,,,-19.51171875,8.02734375,0,0,1,2.66360092163,,,,,2015_Sep_16_1913,A,facesParametric,8,59.7300522636,
./stim/MorphM4_02_orig.jpg,100,,,,,0,100,100,100,,,,,,,,,,,,,,,,,,,-19.453125,7.998046875,1,0,0,5.44605517387,,,,,2015_Sep_16_1913,A,facesParametric,8,59.7300522636,
./stim/MorphM1_07_orig.jpg,101,,,,,0,101,101,101,,,,,,,,,,,,,,,,,,,-19.453125,7.998046875,1,0,0,0.71870303154,,,,,2015_Sep_16_1913,A,facesParametric,8,59.7300522636,
./stim/MorphM4_00_orig.jpg,102,,,,,0,102,102,102,,,,,,,,,,,,,,,,,,,-19.453125,7.998046875,1,0,0,0.869934082031,,,,,2015_Sep_16_1913,A,facesParametric,8,59.7300522636,
./stim/MorphF6_09_orig.jpg,103,,,,,0,103,103,103,,,,,,,,,,,,,,,,,,,-19.453125,7.998046875,0,0,1,0.58522105217,,,,,2015_Sep_16_1913,A,facesParametric,8,59.7300522636,
./stim/MorphM7_08_orig.jpg,104,,,,,0,104,104,104,,,,,,,,,,,,,,,,,,,-19.423828125,7.96875,1,0,0,0.752830028534,,,,,2015_Sep_16_1913,A,facesParametric,8,59.7300522636,
./stim/MorphF3_02_orig.jpg,105,,,,,0,105,105,105,,,,,,,,,,,,,,,,,,,-19.423828125,7.96875,0,0,1,0.786399841309,,,,,2015_Sep_16_1913,A,facesParametric,8,59.7300522636,
./stim/MorphM2_06_orig.jpg,106,,,,,0,106,106,106,,,,,,,,,,,,,,,,,,,-19.423828125,7.96875,0,0,1,0.903986930847,,,,,2015_Sep_16_1913,A,facesParametric,8,59.7300522636,
./stim/MorphF6_04_orig.jpg,107,,,,,0,107,107,107,,,,,,,,,,,,,,,,,,,-19.453125,7.939453125,0,0,1,0.684576034546,,,,,2015_Sep_16_1913,A,facesParametric,8,59.7300522636,
./stim/MorphF7_04_orig.jpg,108,,,,,0,108,108,108,,,,,,,,,,,,,,,,,,,-19.453125,7.939453125,0,0,1,0.585211038589,,,,,2015_Sep_16_1913,A,facesParametric,8,59.7300522636,
./stim/MorphM1_02_orig.jpg,109,,,,,0,109,109,109,,,,,,,,,,,,,,,,,,,-19.453125,7.939453125,0,0,1,1.62452101707,,,,,2015_Sep_16_1913,A,facesParametric,8,59.7300522636,
./stim/MorphM5_03_orig.jpg,110,,,,,0,110,110,110,,,,,,,,,,,,,,,,,,,-19.453125,7.939453125,1,0,0,0.870588064194,,,,,2015_Sep_16_1913,A,facesParametric,8,59.7300522636,
./stim/MorphF6_10_orig.jpg,111,,,,,0,111,111,111,,,,,,,,,,,,,,,,,,,-19.423828125,7.998046875,0,0,1,1.74181413651,,,,,2015_Sep_16_1913,A,facesParametric,8,59.7300522636,
./stim/MorphF2_01_orig.jpg,112,,,,,0,112,112,112,,,,,,,,,,,,,,,,,,,-19.130859375,8.02734375,0,0,1,0.602045059204,,,,,2015_Sep_16_1913,A,facesParametric,8,59.7300522636,
./stim/MorphM6_09_orig.jpg,113,,,,,0,113,113,113,,,,,,,,,,,,,,,,,,,-18.80859375,7.939453125,0,0,1,6.70252299309,,,,,2015_Sep_16_1913,A,facesParametric,8,59.7300522636,
./stim/MorphF7_08_orig.jpg,114,,,,,0,114,114,114,,,,,,,,,,,,,,,,,,,-18.80859375,7.939453125,0,0,1,0.551450967789,,,,,2015_Sep_16_1913,A,facesParametric,8,59.7300522636,
./stim/MorphF1_07_orig.jpg,115,,,,,0,115,115,115,,,,,,,,,,,,,,,,,,,-18.80859375,7.939453125,0,0,1,1.12193083763,,,,,2015_Sep_16_1913,A,facesParametric,8,59.7300522636,
./stim/MorphM5_09_orig.jpg,116,,,,,0,116,116,116,,,,,,,,,,,,,,,,,,,-18.80859375,7.939453125,1,0,0,0.804149150848,,,,,2015_Sep_16_1913,A,facesParametric,8,59.7300522636,
./stim/MorphF9_02_orig.jpg,117,,,,,0,117,117,117,,,,,,,,,,,,,,,,,,,-18.80859375,7.91015625,0,0,1,2.83068084717,,,,,2015_Sep_16_1913,A,facesParametric,8,59.7300522636,
./stim/MorphM9_10_orig.jpg,118,,,,,0,118,118,118,,,,,,,,,,,,,,,,,,,-18.75,7.8515625,1,0,0,5.64594507217,,,,,2015_Sep_16_1913,A,facesParametric,8,59.7300522636,
./stim/MorphF8_09_orig.jpg,119,,,,,0,119,119,119,,,,,,,,,,,,,,,,,,,-18.75,7.8515625,0,0,1,0.585397005081,,,,,2015_Sep_16_1913,A,facesParametric,8,59.7300522636,
./stim/MorphM10_09_orig.jpg,120,,,,,0,120,120,120,,,,,,,,,,,,,,,,,,,-18.75,7.8515625,1,0,0,1.03633999825,,,,,2015_Sep_16_1913,A,facesParametric,8,59.7300522636,
./stim/MorphM3_09_orig.jpg,121,,,,,0,121,121,121,,,,,,,,,,,,,,,,,,,-18.75,7.8515625,1,0,0,0.668216943741,,,,,2015_Sep_16_1913,A,facesParametric,8,59.7300522636,
./stim/MorphM10_06_orig.jpg,122,,,,,0,122,122,122,,,,,,,,,,,,,,,,,,,-18.75,7.8515625,1,0,0,0.63528418541,,,,,2015_Sep_16_1913,A,facesParametric,8,59.7300522636,
./stim/MorphM8_02_orig.jpg,123,,,,,0,123,123,123,,,,,,,,,,,,,,,,,,,-18.75,7.8515625,0,0,1,3.0326359272,,,,,2015_Sep_16_1913,A,facesParametric,8,59.7300522636,
./stim/MorphF10_08_orig.jpg,124,,,,,0,124,124,124,,,,,,,,,,,,,,,,,,,-18.75,7.8515625,1,0,0,1.25363397598,,,,,2015_Sep_16_1913,A,facesParametric,8,59.7300522636,
./stim/MorphM2_08_orig.jpg,125,,,,,0,125,125,125,,,,,,,,,,,,,,,,,,,-18.75,7.8515625,0,0,1,1.54091215134,,,,,2015_Sep_16_1913,A,facesParametric,8,59.7300522636,
./stim/MorphF3_10_orig.jpg,126,,,,,0,126,126,126,,,,,,,,,,,,,,,,,,,-18.75,7.8515625,0,0,1,0.718391895294,,,,,2015_Sep_16_1913,A,facesParametric,8,59.7300522636,
./stim/MorphF4_10_orig.jpg,127,,,,,0,127,127,127,,,,,,,,,,,,,,,,,,,-18.75,7.8515625,0,0,1,0.668734073639,,,,,2015_Sep_16_1913,A,facesParametric,8,59.7300522636,
./stim/MorphM7_00_orig.jpg,128,,,,,0,128,128,128,,,,,,,,,,,,,,,,,,,-18.69140625,7.822265625,0,0,1,2.21067595482,,,,,2015_Sep_16_1913,A,facesParametric,8,59.7300522636,
./stim/MorphF9_04_orig.jpg,129,,,,,0,129,129,129,,,,,,,,,,,,,,,,,,,-18.6328125,7.822265625,0,0,1,0.803495883942,,,,,2015_Sep_16_1913,A,facesParametric,8,59.7300522636,
./stim/MorphF3_00_orig.jpg,130,,,,,0,130,130,130,,,,,,,,,,,,,,,,,,,-18.6328125,7.822265625,0,0,1,0.702740907669,,,,,2015_Sep_16_1913,A,facesParametric,8,59.7300522636,
./stim/MorphF6_06_orig.jpg,131,,,,,0,131,131,131,,,,,,,,,,,,,,,,,,,-18.6328125,7.822265625,0,0,1,0.585237979889,,,,,2015_Sep_16_1913,A,facesParametric,8,59.7300522636,
./stim/MorphF9_09_orig.jpg,132,,,,,0,132,132,132,,,,,,,,,,,,,,,,,,,-18.6328125,7.822265625,0,0,1,0.552239179611,,,,,2015_Sep_16_1913,A,facesParametric,8,59.7300522636,
./stim/MorphM1_01_orig.jpg,133,,,,,0,133,133,133,,,,,,,,,,,,,,,,,,,-18.6328125,7.822265625,0,0,1,2.59693813324,,,,,2015_Sep_16_1913,A,facesParametric,8,59.7300522636,
./stim/MorphF1_05_orig.jpg,134,,,,,0,134,134,134,,,,,,,,,,,,,,,,,,,-18.6328125,7.822265625,0,0,1,0.800621032715,,,,,2015_Sep_16_1913,A,facesParametric,8,59.7300522636,
./stim/MorphM4_10_orig.jpg,135,,,,,0,135,135,135,,,,,,,,,,,,,,,,,,,-18.6328125,7.822265625,1,0,0,2.57986903191,,,,,2015_Sep_16_1913,A,facesParametric,8,59.7300522636,
./stim/MorphF10_10_orig.jpg,136,,,,,0,136,136,136,,,,,,,,,,,,,,,,,,,-18.6328125,7.822265625,0,0,1,0.735921144485,,,,,2015_Sep_16_1913,A,facesParametric,8,59.7300522636,
./stim/MorphM1_05_orig.jpg,137,,,,,0,137,137,137,,,,,,,,,,,,,,,,,,,-18.6328125,7.822265625,0,0,1,1.52357602119,,,,,2015_Sep_16_1913,A,facesParametric,8,59.7300522636,
./stim/MorphM2_02_orig.jpg,138,,,,,0,138,138,138,,,,,,,,,,,,,,,,,,,-18.6328125,7.822265625,0,0,1,0.952224969864,,,,,2015_Sep_16_1913,A,facesParametric,8,59.7300522636,
./stim/MorphF2_03_orig.jpg,139,,,,,0,139,139,139,,,,,,,,,,,,,,,,,,,-18.6328125,7.822265625,0,0,1,0.634824037552,,,,,2015_Sep_16_1913,A,facesParametric,8,59.7300522636,
./stim/MorphM2_10_orig.jpg,140,,,,,0,140,140,140,,,,,,,,,,,,,,,,,,,-18.6328125,7.822265625,0,0,1,1.15285396576,,,,,2015_Sep_16_1913,A,facesParametric,8,59.7300522636,
./stim/MorphM1_06_orig.jpg,141,,,,,0,141,141,141,,,,,,,,,,,,,,,,,,,-18.6328125,7.822265625,0,0,1,2.999158144,,,,,2015_Sep_16_1913,A,facesParametric,8,59.7300522636,
./stim/MorphM3_04_orig.jpg,142,,,,,0,142,142,142,,,,,,,,,,,,,,,,,,,-18.57421875,7.734375,1,0,0,0.85330414772,,,,,2015_Sep_16_1913,A,facesParametric,8,59.7300522636,
./stim/MorphM1_04_orig.jpg,143,,,,,0,143,143,143,,,,,,,,,,,,,,,,,,,-18.57421875,7.734375,0,0,1,0.718023061752,,,,,2015_Sep_16_1913,A,facesParametric,8,59.7300522636,
./stim/MorphF1_00_orig.jpg,144,,,,,0,144,144,144,,,,,,,,,,,,,,,,,,,-18.57421875,7.734375,0,0,1,0.750719070435,,,,,2015_Sep_16_1913,A,facesParametric,8,59.7300522636,
./stim/MorphF2_00_orig.jpg,145,,,,,0,145,145,145,,,,,,,,,,,,,,,,,,,-18.544921875,7.67578125,0,0,1,3.68565797806,,,,,2015_Sep_16_1913,A,facesParametric,8,59.7300522636,
./stim/MorphM9_06_orig.jpg,146,,,,,0,146,146,146,,,,,,,,,,,,,,,,,,,-18.544921875,7.67578125,0,0,1,1.28924608231,,,,,2015_Sep_16_1913,A,facesParametric,8,59.7300522636,
./stim/MorphM2_01_orig.jpg,147,,,,,0,147,147,147,,,,,,,,,,,,,,,,,,,-18.544921875,7.67578125,0,0,1,0.802181005478,,,,,2015_Sep_16_1913,A,facesParametric,8,59.7300522636,
./stim/MorphF10_02_orig.jpg,148,,,,,0,148,148,148,,,,,,,,,,,,,,,,,,,-18.544921875,7.67578125,0,0,1,0.532444000244,,,,,2015_Sep_16_1913,A,facesParametric,8,59.7300522636,
./stim/MorphF7_01_orig.jpg,149,,,,,0,149,149,149,,,,,,,,,,,,,,,,,,,-18.544921875,7.67578125,0,0,1,0.585546016693,,,,,2015_Sep_16_1913,A,facesParametric,8,59.7300522636,
./stim/MorphF5_10_orig.jpg,150,,,,,0,150,150,150,,,,,,,,,,,,,,,,,,,-18.515625,7.67578125,1,0,0,3.1656768322,,,,,2015_Sep_16_1913,A,facesParametric,8,59.7300522636,
./stim/MorphM2_00_orig.jpg,151,,,,,0,151,151,151,,,,,,,,,,,,,,,,,,,-18.515625,7.646484375,0,0,1,1.2891690731,,,,,2015_Sep_16_1913,A,facesParametric,8,59.7300522636,
./stim/MorphF4_02_orig.jpg,152,,,,,0,152,152,152,,,,,,,,,,,,,,,,,,,-18.544921875,7.6171875,0,0,1,0.668180942535,,,,,2015_Sep_16_1913,A,facesParametric,8,59.7300522636,
./stim/MorphF2_10_orig.jpg,153,,,,,0,153,153,153,,,,,,,,,,,,,,,,,,,-18.544921875,7.6171875,1,0,0,1.38962388039,,,,,2015_Sep_16_1913,A,facesParametric,8,59.7300522636,
./stim/MorphM10_03_orig.jpg,154,,,,,0,154,154,154,,,,,,,,,,,,,,,,,,,-18.486328125,7.55859375,0,0,1,7.07137393951,,,,,2015_Sep_16_1913,A,facesParametric,8,59.7300522636,
./stim/MorphM7_02_orig.jpg,155,,,,,0,155,155,155,,,,,,,,,,,,,,,,,,,-18.515625,7.6171875,1,0,0,4.45687389374,,,,,2015_Sep_16_1913,A,facesParametric,8,59.7300522636,
./stim/MorphF8_04_orig.jpg,156,,,,,0,156,156,156,,,,,,,,,,,,,,,,,,,-18.515625,7.6171875,0,0,1,0.651911020279,,,,,2015_Sep_16_1913,A,facesParametric,8,59.7300522636,
./stim/MorphF5_00_orig.jpg,157,,,,,0,157,157,157,,,,,,,,,,,,,,,,,,,-18.515625,7.646484375,0,0,1,1.12164497375,,,,,2015_Sep_16_1913,A,facesParametric,8,59.7300522636,
./stim/MorphF7_10_orig.jpg,158,,,,,0,158,158,158,,,,,,,,,,,,,,,,,,,-18.515625,7.67578125,1,0,0,1.40623807907,,,,,2015_Sep_16_1913,A,facesParametric,8,59.7300522636,
./stim/MorphM3_00_orig.jpg,159,,,,,0,159,159,159,,,,,,,,,,,,,,,,,,,-18.515625,7.67578125,1,0,0,1.42363595963,,,,,2015_Sep_16_1913,A,facesParametric,8,59.7300522636,
./stim/MorphF2_04_orig.jpg,160,,,,,0,160,160,160,,,,,,,,,,,,,,,,,,,-18.515625,7.734375,0,0,1,1.4400780201,,,,,2015_Sep_16_1913,A,facesParametric,8,59.7300522636,
./stim/MorphF10_05_orig.jpg,161,,,,,0,161,161,161,,,,,,,,,,,,,,,,,,,-18.515625,7.734375,0,0,1,0.768332004547,,,,,2015_Sep_16_1913,A,facesParametric,8,59.7300522636,
./stim/MorphF7_06_orig.jpg,162,,,,,0,162,162,162,,,,,,,,,,,,,,,,,,,-18.515625,7.734375,0,0,1,0.534914970398,,,,,2015_Sep_16_1913,A,facesParametric,8,59.7300522636,
./stim/MorphF5_02_orig.jpg,163,,,,,0,163,163,163,,,,,,,,,,,,,,,,,,,-18.515625,7.734375,0,0,1,1.38945102692,,,,,2015_Sep_16_1913,A,facesParametric,8,59.7300522636,
./stim/MorphM6_07_orig.jpg,164,,,,,0,164,164,164,,,,,,,,,,,,,,,,,,,-18.427734375,7.646484375,0,0,1,1.20579814911,,,,,2015_Sep_16_1913,A,facesParametric,8,59.7300522636,
./stim/MorphF8_00_orig.jpg,165,,,,,0,165,165,165,,,,,,,,,,,,,,,,,,,-18.3984375,7.6171875,0,0,1,1.96018505096,,,,,2015_Sep_16_1913,A,facesParametric,8,59.7300522636,
./stim/MorphF7_02_orig.jpg,166,,,,,0,166,166,166,,,,,,,,,,,,,,,,,,,-18.28125,7.529296875,0,0,1,0.702788829803,,,,,2015_Sep_16_1913,A,facesParametric,8,59.7300522636,
./stim/MorphM8_01_orig.jpg,167,,,,,0,167,167,167,,,,,,,,,,,,,,,,,,,-18.251953125,7.529296875,0,0,1,1.40688490868,,,,,2015_Sep_16_1913,A,facesParametric,8,59.7300522636,
./stim/MorphM1_08_orig.jpg,168,,,,,0,168,168,168,,,,,,,,,,,,,,,,,,,-18.251953125,7.529296875,0,0,1,1.82538700104,,,,,2015_Sep_16_1913,A,facesParametric,8,59.7300522636,
./stim/MorphF2_09_orig.jpg,169,,,,,0,169,169,169,,,,,,,,,,,,,,,,,,,-18.193359375,7.470703125,1,0,0,0.969825029373,,,,,2015_Sep_16_1913,A,facesParametric,8,59.7300522636,
./stim/MorphM1_10_orig.jpg,170,,,,,0,170,170,170,,,,,,,,,,,,,,,,,,,-18.193359375,7.470703125,1,0,0,1.01971411705,,,,,2015_Sep_16_1913,A,facesParametric,8,59.7300522636,
./stim/MorphF4_00_orig.jpg,171,,,,,0,171,171,171,,,,,,,,,,,,,,,,,,,-18.193359375,7.44140625,0,0,1,0.853379964828,,,,,2015_Sep_16_1913,A,facesParametric,8,59.7300522636,
./stim/MorphM7_06_orig.jpg,172,,,,,0,172,172,172,,,,,,,,,,,,,,,,,,,-18.193359375,7.32421875,1,0,0,1.12104988098,,,,,2015_Sep_16_1913,A,facesParametric,8,59.7300522636,
./stim/MorphF2_05_orig.jpg,173,,,,,0,173,173,173,,,,,,,,,,,,,,,,,,,-18.1640625,7.353515625,0,0,1,0.770052909851,,,,,2015_Sep_16_1913,A,facesParametric,8,59.7300522636,
./stim/MorphF3_01_orig.jpg,174,,,,,0,174,174,174,,,,,,,,,,,,,,,,,,,-18.1640625,7.353515625,0,0,1,0.920933961868,,,,,2015_Sep_16_1913,A,facesParametric,8,59.7300522636,
./stim/MorphM3_08_orig.jpg,175,,,,,0,175,175,175,,,,,,,,,,,,,,,,,,,-18.193359375,7.3828125,1,0,0,0.870771884918,,,,,2015_Sep_16_1913,A,facesParametric,8,59.7300522636,
./stim/MorphM2_03_orig.jpg,176,,,,,0,176,176,176,,,,,,,,,,,,,,,,,,,-18.193359375,7.3828125,0,0,1,0.719546079636,,,,,2015_Sep_16_1913,A,facesParametric,8,59.7300522636,
./stim/MorphF9_10_orig.jpg,177,,,,,0,177,177,177,,,,,,,,,,,,,,,,,,,-18.193359375,7.353515625,0,0,1,1.12207102776,,,,,2015_Sep_16_1913,A,facesParametric,8,59.7300522636,
./stim/MorphM8_09_orig.jpg,178,,,,,0,178,178,178,,,,,,,,,,,,,,,,,,,-18.193359375,7.353515625,0,0,1,0.770606994629,,,,,2015_Sep_16_1913,A,facesParametric,8,59.7300522636,
./stim/MorphF9_00_orig.jpg,179,,,,,0,179,179,179,,,,,,,,,,,,,,,,,,,-18.193359375,7.353515625,0,0,1,0.903683900833,,,,,2015_Sep_16_1913,A,facesParametric,8,59.7300522636,
./stim/MorphM10_00_orig.jpg,180,,,,,0,180,180,180,,,,,,,,,,,,,,,,,,,-18.251953125,7.294921875,0,0,1,1.03848314285,,,,,2015_Sep_16_1913,A,facesParametric,8,59.7300522636,
./stim/MorphF8_06_orig.jpg,181,,,,,0,181,181,181,,,,,,,,,,,,,,,,,,,-18.22265625,7.32421875,0,0,1,0.56901216507,,,,,2015_Sep_16_1913,A,facesParametric,8,59.7300522636,
./stim/MorphM7_04_orig.jpg,182,,,,,0,182,182,182,,,,,,,,,,,,,,,,,,,-18.22265625,7.32421875,1,0,0,0.853752851486,,,,,2015_Sep_16_1913,A,facesParametric,8,59.7300522636,
./stim/MorphM2_09_orig.jpg,183,,,,,0,183,183,183,,,,,,,,,,,,,,,,,,,-18.22265625,7.32421875,0,0,1,0.584457159042,,,,,2015_Sep_16_1913,A,facesParametric,8,59.7300522636,
./stim/MorphM8_06_orig.jpg,184,,,,,0,184,184,184,,,,,,,,,,,,,,,,,,,-18.193359375,7.294921875,0,0,1,2.17747187614,,,,,2015_Sep_16_1913,A,facesParametric,8,59.7300522636,
./stim/MorphF10_00_orig.jpg,185,,,,,0,185,185,185,,,,,,,,,,,,,,,,,,,-18.193359375,7.294921875,0,0,1,1.02122092247,,,,,2015_Sep_16_1913,A,facesParametric,8,59.7300522636,
./stim/MorphM10_05_orig.jpg,186,,,,,0,186,186,186,,,,,,,,,,,,,,,,,,,-18.22265625,7.265625,1,0,0,0.937353849411,,,,,2015_Sep_16_1913,A,facesParametric,8,59.7300522636,
./stim/MorphF5_08_orig.jpg,187,,,,,0,187,187,187,,,,,,,,,,,,,,,,,,,-18.22265625,7.265625,0,0,1,0.585424184799,,,,,2015_Sep_16_1913,A,facesParametric,8,59.7300522636,
./stim/MorphF3_08_orig.jpg,188,,,,,0,188,188,188,,,,,,,,,,,,,,,,,,,-18.251953125,7.20703125,0,0,1,1.85686898232,,,,,2015_Sep_16_1913,A,facesParametric,8,59.7300522636,
./stim/MorphM9_05_orig.jpg,189,,,,,0,189,189,189,,,,,,,,,,,,,,,,,,,-17.724609375,7.060546875,0,0,1,1.89251685143,,,,,2015_Sep_16_1913,A,facesParametric,8,59.7300522636,
./stim/MorphM5_01_orig.jpg,190,,,,,0,190,190,190,,,,,,,,,,,,,,,,,,,-17.607421875,6.9140625,1,0,0,0.920327186584,,,,,2015_Sep_16_1913,A,facesParametric,8,59.7300522636,
./stim/MorphF8_05_orig.jpg,191,,,,,0,191,191,191,,,,,,,,,,,,,,,,,,,-17.578125,6.943359375,0,0,1,2.17507314682,,,,,2015_Sep_16_1913,A,facesParametric,8,59.7300522636,
./stim/MorphM6_01_orig.jpg,192,,,,,0,192,192,192,,,,,,,,,,,,,,,,,,,-17.578125,6.943359375,0,0,1,0.887329101562,,,,,2015_Sep_16_1913,A,facesParametric,8,59.7300522636,
./stim/MorphM5_04_orig.jpg,193,,,,,0,193,193,193,,,,,,,,,,,,,,,,,,,-17.578125,6.943359375,1,0,0,0.937649011612,,,,,2015_Sep_16_1913,A,facesParametric,8,59.7300522636,
./stim/MorphF4_05_orig.jpg,194,,,,,0,194,194,194,,,,,,,,,,,,,,,,,,,-17.607421875,6.943359375,0,0,1,0.752975940704,,,,,2015_Sep_16_1913,A,facesParametric,8,59.7300522636,
./stim/MorphM10_08_orig.jpg,195,,,,,0,195,195,195,,,,,,,,,,,,,,,,,,,-17.63671875,6.9140625,1,0,0,0.784562110901,,,,,2015_Sep_16_1913,A,facesParametric,8,59.7300522636,
./stim/MorphM8_03_orig.jpg,196,,,,,0,196,196,196,,,,,,,,,,,,,,,,,,,-17.63671875,6.9140625,0,0,1,0.784507036209,,,,,2015_Sep_16_1913,A,facesParametric,8,59.7300522636,
./stim/MorphM5_00_orig.jpg,197,,,,,0,197,197,197,,,,,,,,,,,,,,,,,,,-17.63671875,6.9140625,1,0,0,0.919258832932,,,,,2015_Sep_16_1913,A,facesParametric,8,59.7300522636,
./stim/MorphM7_03_orig.jpg,198,,,,,0,198,198,198,,,,,,,,,,,,,,,,,,,-17.63671875,6.943359375,1,0,0,4.32244706154,,,,,2015_Sep_16_1913,A,facesParametric,8,59.7300522636,
./stim/MorphF9_07_orig.jpg,199,,,,,0,199,199,199,,,,,,,,,,,,,,,,,,,-17.63671875,6.943359375,0,0,1,0.687547922134,,,,,2015_Sep_16_1913,A,facesParametric,8,59.7300522636,
./stim/MorphM8_05_orig.jpg,200,,,,,0,200,200,200,,,,,,,,,,,,,,,,,,,-17.63671875,6.943359375,0,0,1,0.852725982666,,,,,2015_Sep_16_1913,A,facesParametric,8,59.7300522636,
./stim/MorphM3_02_orig.jpg,201,,,,,0,201,201,201,,,,,,,,,,,,,,,,,,,-17.666015625,6.943359375,1,0,0,2.26074385643,,,,,2015_Sep_16_1913,A,facesParametric,8,59.7300522636,
./stim/MorphF8_02_orig.jpg,202,,,,,0,202,202,202,,,,,,,,,,,,,,,,,,,-17.666015625,6.943359375,0,0,1,1.27277302742,,,,,2015_Sep_16_1913,A,facesParametric,8,59.7300522636,
./stim/MorphM6_05_orig.jpg,203,,,,,0,203,203,203,,,,,,,,,,,,,,,,,,,-17.6953125,6.943359375,0,0,1,0.8205909729,,,,,2015_Sep_16_1913,A,facesParametric,8,59.7300522636,
./stim/MorphM4_03_orig.jpg,204,,,,,0,204,204,204,,,,,,,,,,,,,,,,,,,-17.75390625,6.9140625,0,0,1,2.71376109123,,,,,2015_Sep_16_1913,A,facesParametric,8,59.7300522636,
./stim/MorphF2_07_orig.jpg,205,,,,,0,205,205,205,,,,,,,,,,,,,,,,,,,-17.75390625,6.9140625,1,0,0,1.70867109299,,,,,2015_Sep_16_1913,A,facesParametric,8,59.7300522636,
./stim/MorphM7_10_orig.jpg,206,,,,,0,206,206,206,,,,,,,,,,,,,,,,,,,-17.75390625,6.9140625,1,0,0,0.903925180435,,,,,2015_Sep_16_1913,A,facesParametric,8,59.7300522636,
./stim/MorphF4_09_orig.jpg,207,,,,,0,207,207,207,,,,,,,,,,,,,,,,,,,-17.75390625,6.9140625,1,0,0,1.13816308975,,,,,2015_Sep_16_1913,A,facesParametric,8,59.7300522636,
./stim/MorphM1_00_orig.jpg,208,,,,,0,208,208,208,,,,,,,,,,,,,,,,,,,-17.75390625,6.9140625,0,0,1,2.36172986031,,,,,2015_Sep_16_1913,A,facesParametric,8,59.7300522636,
./stim/MorphF7_09_orig.jpg,209,,,,,0,209,209,209,,,,,,,,,,,,,,,,,,,-17.783203125,6.884765625,1,0,0,2.16075086594,,,,,2015_Sep_16_1913,A,facesParametric,8,59.7300522636,
./stim/MorphF3_07_orig.jpg,210,,,,,0,210,210,210,,,,,,,,,,,,,,,,,,,-17.783203125,6.884765625,0,0,1,0.635344028473,,,,,2015_Sep_16_1913,A,facesParametric,8,59.7300522636,
./stim/MorphM2_07_orig.jpg,211,,,,,0,211,211,211,,,,,,,,,,,,,,,,,,,-17.841796875,6.826171875,0,0,1,0.750947952271,,,,,2015_Sep_16_1913,A,facesParametric,8,59.7300522636,
./stim/MorphF10_09_orig.jpg,212,,,,,0,212,212,212,,,,,,,,,,,,,,,,,,,-17.841796875,6.826171875,1,0,0,1.18931221962,,,,,2015_Sep_16_1913,A,facesParametric,8,59.7300522636,
./stim/MorphM10_10_orig.jpg,213,,,,,0,213,213,213,,,,,,,,,,,,,,,,,,,-17.841796875,6.826171875,1,0,0,0.700695037842,,,,,2015_Sep_16_1913,A,facesParametric,8,59.7300522636,
./stim/MorphF4_07_orig.jpg,214,,,,,0,214,214,214,,,,,,,,,,,,,,,,,,,-17.783203125,6.85546875,0,0,1,0.75087594986,,,,,2015_Sep_16_1913,A,facesParametric,8,59.7300522636,
./stim/MorphM6_04_orig.jpg,215,,,,,0,215,215,215,,,,,,,,,,,,,,,,,,,-17.783203125,6.85546875,0,0,1,1.1718480587,,,,,2015_Sep_16_1913,A,facesParametric,8,59.7300522636,
./stim/MorphF1_06_orig.jpg,216,,,,,0,216,216,216,,,,,,,,,,,,,,,,,,,-17.783203125,6.796875,0,0,1,1.12063312531,,,,,2015_Sep_16_1913,A,facesParametric,8,59.7300522636,
./stim/MorphM3_01_orig.jpg,217,,,,,0,217,217,217,,,,,,,,,,,,,,,,,,,-17.75390625,6.826171875,0,0,1,2.47929811478,,,,,2015_Sep_16_1913,A,facesParametric,8,59.7300522636,
./stim/MorphF9_03_orig.jpg,218,,,,,0,218,218,218,,,,,,,,,,,,,,,,,,,-17.75390625,6.826171875,0,0,1,0.6854159832,,,,,2015_Sep_16_1913,A,facesParametric,8,59.7300522636,
./stim/MorphM9_07_orig.jpg,219,,,,,0,219,219,219,,,,,,,,,,,,,,,,,,,-17.724609375,6.85546875,1,0,0,1.85933494568,,,,,2015_Sep_16_1913,A,facesParametric,8,59.7300522636,
,,,,,,,,,,,,,,,,,,,,,,,,,,,,,,,,,,return,28.1562950611,,,2015_Sep_16_1913,A,facesParametric,8,59.7300522636,
./stim/MorphF1_06_orig.jpg,0,,,,,,,,,0,0,0,0,,,,,,,,,,,,,,,-9.31640625,12.48046875,0,0,1,3.4474170208,,,,,2015_Sep_16_1913,A,facesParametric,8,59.7300522636,
./stim/MorphF7_08_orig.jpg,1,,,,,,,,,0,1,1,1,,,,,,,,,,,,,,,-9.287109375,12.421875,0,0,1,1.73908185959,,,,,2015_Sep_16_1913,A,facesParametric,8,59.7300522636,
./stim/MorphF1_08_orig.jpg,2,,,,,,,,,0,2,2,2,,,,,,,,,,,,,,,-9.287109375,12.392578125,0,0,1,0.653017044067,,,,,2015_Sep_16_1913,A,facesParametric,8,59.7300522636,
./stim/MorphM3_01_orig.jpg,3,,,,,,,,,0,3,3,3,,,,,,,,,,,,,,,-9.287109375,12.3046875,0,0,1,2.91456794739,,,,,2015_Sep_16_1913,A,facesParametric,8,59.7300522636,
./stim/MorphM4_04_orig.jpg,4,,,,,,,,,0,4,4,4,,,,,,,,,,,,,,,-9.287109375,12.275390625,0,0,1,1.2219350338,,,,,2015_Sep_16_1913,A,facesParametric,8,59.7300522636,
./stim/MorphM10_01_orig.jpg,5,,,,,,,,,0,5,5,5,,,,,,,,,,,,,,,-9.287109375,12.275390625,0,0,1,0.734253883362,,,,,2015_Sep_16_1913,A,facesParametric,8,59.7300522636,
./stim/MorphM2_01_orig.jpg,6,,,,,,,,,0,6,6,6,,,,,,,,,,,,,,,-9.31640625,12.216796875,0,0,1,0.685886144638,,,,,2015_Sep_16_1913,A,facesParametric,8,59.7300522636,
./stim/MorphF9_06_orig.jpg,7,,,,,,,,,0,7,7,7,,,,,,,,,,,,,,,-9.345703125,12.158203125,0,0,1,0.752701997757,,,,,2015_Sep_16_1913,A,facesParametric,8,59.7300522636,
./stim/MorphM10_09_orig.jpg,8,,,,,,,,,0,8,8,8,,,,,,,,,,,,,,,-9.345703125,12.158203125,1,0,0,0.719914913177,,,,,2015_Sep_16_1913,A,facesParametric,8,59.7300522636,
./stim/MorphM6_03_orig.jpg,9,,,,,,,,,0,9,9,9,,,,,,,,,,,,,,,-9.31640625,12.1875,0,0,1,0.751755952835,,,,,2015_Sep_16_1913,A,facesParametric,8,59.7300522636,
./stim/MorphF2_07_orig.jpg,10,,,,,,,,,0,10,10,10,,,,,,,,,,,,,,,-9.2578125,12.216796875,1,0,0,0.870050907135,,,,,2015_Sep_16_1913,A,facesParametric,8,59.7300522636,
./stim/MorphM9_03_orig.jpg,11,,,,,,,,,0,11,11,11,,,,,,,,,,,,,,,-9.228515625,12.24609375,0,0,1,4.6744852066,,,,,2015_Sep_16_1913,A,facesParametric,8,59.7300522636,
./stim/MorphM7_02_orig.jpg,12,,,,,,,,,0,12,12,12,,,,,,,,,,,,,,,-9.228515625,12.24609375,1,0,0,2.11050581932,,,,,2015_Sep_16_1913,A,facesParametric,8,59.7300522636,
./stim/MorphF8_06_orig.jpg,13,,,,,,,,,0,13,13,13,,,,,,,,,,,,,,,-9.228515625,12.216796875,0,0,1,3.88762402534,,,,,2015_Sep_16_1913,A,facesParametric,8,59.7300522636,
./stim/MorphM5_05_orig.jpg,14,,,,,,,,,0,14,14,14,,,,,,,,,,,,,,,-9.287109375,12.158203125,1,0,0,0.8195540905,,,,,2015_Sep_16_1913,A,facesParametric,8,59.7300522636,
./stim/MorphM10_04_orig.jpg,15,,,,,,,,,0,15,15,15,,,,,,,,,,,,,,,-9.287109375,12.158203125,1,0,0,4.28664708138,,,,,2015_Sep_16_1913,A,facesParametric,8,59.7300522636,
./stim/MorphM7_10_orig.jpg,16,,,,,,,,,0,16,16,16,,,,,,,,,,,,,,,-9.287109375,12.158203125,1,0,0,0.769900083542,,,,,2015_Sep_16_1913,A,facesParametric,8,59.7300522636,
./stim/MorphF1_07_orig.jpg,17,,,,,,,,,0,17,17,17,,,,,,,,,,,,,,,-9.287109375,12.158203125,0,0,1,0.684404850006,,,,,2015_Sep_16_1913,A,facesParametric,8,59.7300522636,
./stim/MorphM9_10_orig.jpg,18,,,,,,,,,0,18,18,18,,,,,,,,,,,,,,,-9.287109375,12.158203125,1,0,0,1.1055188179,,,,,2015_Sep_16_1913,A,facesParametric,8,59.7300522636,
./stim/MorphM3_09_orig.jpg,19,,,,,,,,,0,19,19,19,,,,,,,,,,,,,,,-9.287109375,12.158203125,1,0,0,0.886928796768,,,,,2015_Sep_16_1913,A,facesParametric,8,59.7300522636,
./stim/MorphF5_05_orig.jpg,20,,,,,,,,,0,20,20,20,,,,,,,,,,,,,,,-9.287109375,12.158203125,0,0,1,1.45658588409,,,,,2015_Sep_16_1913,A,facesParametric,8,59.7300522636,
./stim/MorphF4_10_orig.jpg,21,,,,,,,,,0,21,21,21,,,,,,,,,,,,,,,-9.287109375,12.158203125,1,0,0,1.18810009956,,,,,2015_Sep_16_1913,A,facesParametric,8,59.7300522636,
./stim/MorphF5_03_orig.jpg,22,,,,,,,,,0,22,22,22,,,,,,,,,,,,,,,-9.287109375,12.158203125,0,0,1,0.854087114334,,,,,2015_Sep_16_1913,A,facesParametric,8,59.7300522636,
./stim/MorphM1_06_orig.jpg,23,,,,,,,,,0,23,23,23,,,,,,,,,,,,,,,-9.287109375,12.158203125,0,0,1,1.99265599251,,,,,2015_Sep_16_1913,A,facesParametric,8,59.7300522636,
./stim/MorphF10_03_orig.jpg,24,,,,,,,,,0,24,24,24,,,,,,,,,,,,,,,-9.287109375,12.12890625,0,0,1,1.54105901718,,,,,2015_Sep_16_1913,A,facesParametric,8,59.7300522636,
./stim/MorphF8_08_orig.jpg,25,,,,,,,,,0,25,25,25,,,,,,,,,,,,,,,-9.31640625,12.099609375,1,0,0,1.13774108887,,,,,2015_Sep_16_1913,A,facesParametric,8,59.7300522636,
./stim/MorphM8_10_orig.jpg,26,,,,,,,,,0,26,26,26,,,,,,,,,,,,,,,-9.31640625,12.099609375,1,0,0,1.0704331398,,,,,2015_Sep_16_1913,A,facesParametric,8,59.7300522636,
./stim/MorphM4_02_orig.jpg,27,,,,,,,,,0,27,27,27,,,,,,,,,,,,,,,-9.31640625,12.099609375,0,0,1,3.48459386826,,,,,2015_Sep_16_1913,A,facesParametric,8,59.7300522636,
./stim/MorphM5_07_orig.jpg,28,,,,,,,,,0,28,28,28,,,,,,,,,,,,,,,-9.31640625,12.099609375,1,0,0,0.736005067825,,,,,2015_Sep_16_1913,A,facesParametric,8,59.7300522636,
./stim/MorphF10_07_orig.jpg,29,,,,,,,,,0,29,29,29,,,,,,,,,,,,,,,-9.31640625,12.099609375,1,0,0,1.92477107048,,,,,2015_Sep_16_1913,A,facesParametric,8,59.7300522636,
./stim/MorphF6_05_orig.jpg,30,,,,,,,,,0,30,30,30,,,,,,,,,,,,,,,-9.31640625,12.099609375,0,0,1,0.903136014938,,,,,2015_Sep_16_1913,A,facesParametric,8,59.7300522636,
./stim/MorphM1_07_orig.jpg,31,,,,,,,,,0,31,31,31,,,,,,,,,,,,,,,-9.31640625,12.099609375,1,0,0,2.83105182648,,,,,2015_Sep_16_1913,A,facesParametric,8,59.7300522636,
./stim/MorphF5_07_orig.jpg,32,,,,,,,,,0,32,32,32,,,,,,,,,,,,,,,-9.31640625,12.099609375,1,0,0,1.25585508347,,,,,2015_Sep_16_1913,A,facesParametric,8,59.7300522636,
./stim/MorphF2_06_orig.jpg,33,,,,,,,,,0,33,33,33,,,,,,,,,,,,,,,-9.31640625,12.099609375,1,0,0,0.90367102623,,,,,2015_Sep_16_1913,A,facesParametric,8,59.7300522636,
./stim/MorphF6_06_orig.jpg,34,,,,,,,,,0,34,34,34,,,,,,,,,,,,,,,-9.31640625,12.099609375,1,0,0,1.15524101257,,,,,2015_Sep_16_1913,A,facesParametric,8,59.7300522636,
./stim/MorphF9_02_orig.jpg,35,,,,,,,,,0,35,35,35,,,,,,,,,,,,,,,-9.31640625,12.099609375,0,0,1,1.15485191345,,,,,2015_Sep_16_1913,A,facesParametric,8,59.7300522636,
./stim/MorphM9_01_orig.jpg,36,,,,,,,,,0,36,36,36,,,,,,,,,,,,,,,-9.31640625,12.099609375,0,0,1,0.80216884613,,,,,2015_Sep_16_1913,A,facesParametric,8,59.7300522636,
./stim/MorphF7_07_orig.jpg,37,,,,,,,,,0,37,37,37,,,,,,,,,,,,,,,-9.31640625,12.099609375,0,0,1,0.567229986191,,,,,2015_Sep_16_1913,A,facesParametric,8,59.7300522636,
./stim/MorphF5_09_orig.jpg,38,,,,,,,,,0,38,38,38,,,,,,,,,,,,,,,-9.31640625,12.099609375,1,0,0,0.819754123688,,,,,2015_Sep_16_1913,A,facesParametric,8,59.7300522636,
./stim/MorphM5_10_orig.jpg,39,,,,,,,,,0,39,39,39,,,,,,,,,,,,,,,-9.287109375,12.12890625,1,0,0,0.719152927399,,,,,2015_Sep_16_1913,A,facesParametric,8,59.7300522636,
./stim/MorphM8_03_orig.jpg,40,,,,,,,,,0,40,40,40,,,,,,,,,,,,,,,-9.287109375,12.12890625,0,0,1,0.985876083374,,,,,2015_Sep_16_1913,A,facesParametric,8,59.7300522636,
./stim/MorphM5_04_orig.jpg,41,,,,,,,,,0,41,41,41,,,,,,,,,,,,,,,-9.2578125,12.12890625,1,0,0,0.753194093704,,,,,2015_Sep_16_1913,A,facesParametric,8,59.7300522636,
./stim/MorphF6_08_orig.jpg,42,,,,,,,,,0,42,42,42,,,,,,,,,,,,,,,-9.228515625,12.099609375,0,0,1,2.83128094673,,,,,2015_Sep_16_1913,A,facesParametric,8,59.7300522636,
./stim/MorphF9_03_orig.jpg,43,,,,,,,,,0,43,43,43,,,,,,,,,,,,,,,-9.228515625,12.0703125,0,0,1,2.31137800217,,,,,2015_Sep_16_1913,A,facesParametric,8,59.7300522636,
./stim/MorphM1_03_orig.jpg,44,,,,,,,,,0,44,44,44,,,,,,,,,,,,,,,-9.228515625,12.0703125,0,0,1,0.885520935059,,,,,2015_Sep_16_1913,A,facesParametric,8,59.7300522636,
./stim/MorphM2_02_orig.jpg,45,,,,,,,,,0,45,45,45,,,,,,,,,,,,,,,-9.228515625,12.0703125,0,0,1,0.75146818161,,,,,2015_Sep_16_1913,A,facesParametric,8,59.7300522636,
./stim/MorphF5_06_orig.jpg,46,,,,,,,,,0,46,46,46,,,,,,,,,,,,,,,-9.228515625,12.0703125,1,0,0,1.28900003433,,,,,2015_Sep_16_1913,A,facesParametric,8,59.7300522636,
./stim/MorphM1_09_orig.jpg,47,,,,,,,,,0,47,47,47,,,,,,,,,,,,,,,-9.228515625,12.0703125,1,0,0,2.16066503525,,,,,2015_Sep_16_1913,A,facesParametric,8,59.7300522636,
./stim/MorphM9_08_orig.jpg,48,,,,,,,,,0,48,48,48,,,,,,,,,,,,,,,-9.228515625,12.0703125,0,0,1,1.28934001923,,,,,2015_Sep_16_1913,A,facesParametric,8,59.7300522636,
./stim/MorphF6_00_orig.jpg,49,,,,,,,,,0,49,49,49,,,,,,,,,,,,,,,-9.228515625,12.0703125,0,0,1,1.28973507881,,,,,2015_Sep_16_1913,A,facesParametric,8,59.7300522636,
./stim/MorphF7_03_orig.jpg,50,,,,,,,,,0,50,50,50,,,,,,,,,,,,,,,-9.228515625,12.0703125,0,0,1,0.517418861389,,,,,2015_Sep_16_1913,A,facesParametric,8,59.7300522636,
./stim/MorphM6_07_orig.jpg,51,,,,,,,,,0,51,51,51,,,,,,,,,,,,,,,-9.19921875,12.041015625,1,0,0,2.8154900074,,,,,2015_Sep_16_1913,A,facesParametric,8,59.7300522636,
./stim/MorphF4_09_orig.jpg,52,,,,,,,,,0,52,52,52,,,,,,,,,,,,,,,-9.19921875,12.041015625,1,0,0,0.816659927368,,,,,2015_Sep_16_1913,A,facesParametric,8,59.7300522636,
./stim/MorphF3_04_orig.jpg,53,,,,,,,,,0,53,53,53,,,,,,,,,,,,,,,-9.19921875,12.041015625,0,0,1,0.702931880951,,,,,2015_Sep_16_1913,A,facesParametric,8,59.7300522636,
./stim/MorphM10_03_orig.jpg,54,,,,,,,,,0,54,54,54,,,,,,,,,,,,,,,-9.19921875,12.041015625,0,0,1,1.63877511024,,,,,2015_Sep_16_1913,A,facesParametric,8,59.7300522636,
./stim/MorphF10_09_orig.jpg,55,,,,,,,,,0,55,55,55,,,,,,,,,,,,,,,-9.19921875,12.041015625,1,0,0,3.50160217285,,,,,2015_Sep_16_1913,A,facesParametric,8,59.7300522636,
./stim/MorphF8_10_orig.jpg,56,,,,,,,,,0,56,56,56,,,,,,,,,,,,,,,-9.19921875,12.041015625,1,0,0,0.736384868622,,,,,2015_Sep_16_1913,A,facesParametric,8,59.7300522636,
./stim/MorphM10_05_orig.jpg,57,,,,,,,,,0,57,57,57,,,,,,,,,,,,,,,-9.19921875,12.041015625,1,0,0,0.85281586647,,,,,2015_Sep_16_1913,A,facesParametric,8,59.7300522636,
./stim/MorphM1_02_orig.jpg,58,,,,,,,,,0,58,58,58,,,,,,,,,,,,,,,-9.19921875,12.041015625,0,0,1,0.870231151581,,,,,2015_Sep_16_1913,A,facesParametric,8,59.7300522636,
./stim/MorphM10_00_orig.jpg,59,,,,,,,,,0,59,59,59,,,,,,,,,,,,,,,-9.19921875,12.041015625,0,0,1,0.886959075928,,,,,2015_Sep_16_1913,A,facesParametric,8,59.7300522636,
./stim/MorphM4_05_orig.jpg,60,,,,,,,,,0,60,60,60,,,,,,,,,,,,,,,-9.19921875,12.041015625,0,0,1,0.870155096054,,,,,2015_Sep_16_1913,A,facesParametric,8,59.7300522636,
./stim/MorphM1_10_orig.jpg,61,,,,,,,,,0,61,61,61,,,,,,,,,,,,,,,-9.19921875,12.041015625,1,0,0,2.11074113846,,,,,2015_Sep_16_1913,A,facesParametric,8,59.7300522636,
./stim/MorphF3_03_orig.jpg,62,,,,,,,,,0,62,62,62,,,,,,,,,,,,,,,-9.19921875,12.041015625,0,0,1,0.770606994629,,,,,2015_Sep_16_1913,A,facesParametric,8,59.7300522636,
./stim/MorphF6_03_orig.jpg,63,,,,,,,,,0,63,63,63,,,,,,,,,,,,,,,-9.19921875,12.041015625,0,0,1,0.833406925201,,,,,2015_Sep_16_1913,A,facesParametric,8,59.7300522636,
./stim/MorphF8_09_orig.jpg,64,,,,,,,,,0,64,64,64,,,,,,,,,,,,,,,-9.19921875,12.041015625,1,0,0,1.05496811867,,,,,2015_Sep_16_1913,A,facesParametric,8,59.7300522636,
./stim/MorphM8_08_orig.jpg,65,,,,,,,,,0,65,65,65,,,,,,,,,,,,,,,-9.19921875,12.041015625,0,0,1,0.736083984375,,,,,2015_Sep_16_1913,A,facesParametric,8,59.7300522636,
./stim/MorphM3_04_orig.jpg,66,,,,,,,,,0,66,66,66,,,,,,,,,,,,,,,-9.19921875,12.041015625,1,0,0,0.820115804672,,,,,2015_Sep_16_1913,A,facesParametric,8,59.7300522636,
./stim/MorphF3_06_orig.jpg,67,,,,,,,,,0,67,67,67,,,,,,,,,,,,,,,-9.19921875,12.041015625,0,0,1,0.566776037216,,,,,2015_Sep_16_1913,A,facesParametric,8,59.7300522636,
./stim/MorphF9_04_orig.jpg,68,,,,,,,,,0,68,68,68,,,,,,,,,,,,,,,-9.19921875,12.041015625,0,0,1,1.07093405724,,,,,2015_Sep_16_1913,A,facesParametric,8,59.7300522636,
./stim/MorphM9_00_orig.jpg,69,,,,,,,,,0,69,69,69,,,,,,,,,,,,,,,-9.19921875,12.041015625,0,0,1,1.17181897163,,,,,2015_Sep_16_1913,A,facesParametric,8,59.7300522636,
./stim/MorphM2_10_orig.jpg,70,,,,,,,,,0,70,70,70,,,,,,,,,,,,,,,-9.19921875,12.041015625,0,0,1,0.869014024734,,,,,2015_Sep_16_1913,A,facesParametric,8,59.7300522636,
./stim/MorphF1_10_orig.jpg,71,,,,,,,,,0,71,71,71,,,,,,,,,,,,,,,-9.169921875,12.041015625,0,0,1,0.718705177307,,,,,2015_Sep_16_1913,A,facesParametric,8,59.7300522636,
./stim/MorphF2_01_orig.jpg,72,,,,,,,,,0,72,72,72,,,,,,,,,,,,,,,-9.169921875,12.041015625,0,0,1,1.01897001266,,,,,2015_Sep_16_1913,A,facesParametric,8,59.7300522636,
./stim/MorphF5_08_orig.jpg,73,,,,,,,,,0,73,73,73,,,,,,,,,,,,,,,-9.169921875,12.041015625,1,0,0,0.786803007126,,,,,2015_Sep_16_1913,A,facesParametric,8,59.7300522636,
./stim/MorphF9_08_orig.jpg,74,,,,,,,,,0,74,74,74,,,,,,,,,,,,,,,-9.169921875,12.041015625,1,0,0,1.07114887238,,,,,2015_Sep_16_1913,A,facesParametric,8,59.7300522636,
./stim/MorphM3_00_orig.jpg,75,,,,,,,,,0,75,75,75,,,,,,,,,,,,,,,-9.140625,12.041015625,0,0,1,1.27234196663,,,,,2015_Sep_16_1913,A,facesParametric,8,59.7300522636,
./stim/MorphF10_02_orig.jpg,76,,,,,,,,,0,76,76,76,,,,,,,,,,,,,,,-9.140625,12.041015625,0,0,1,1.05380988121,,,,,2015_Sep_16_1913,A,facesParametric,8,59.7300522636,
./stim/MorphF7_01_orig.jpg,77,,,,,,,,,0,77,77,77,,,,,,,,,,,,,,,-9.111328125,12.01171875,0,0,1,0.717354059219,,,,,2015_Sep_16_1913,A,facesParametric,8,59.7300522636,
./stim/MorphF4_02_orig.jpg,78,,,,,,,,,0,78,78,78,,,,,,,,,,,,,,,-9.111328125,12.01171875,0,0,1,0.719137907028,,,,,2015_Sep_16_1913,A,facesParametric,8,59.7300522636,
./stim/MorphF8_02_orig.jpg,79,,,,,,,,,0,79,79,79,,,,,,,,,,,,,,,-9.111328125,12.01171875,0,0,1,0.669292926788,,,,,2015_Sep_16_1913,A,facesParametric,8,59.7300522636,
./stim/MorphM4_01_orig.jpg,80,,,,,,,,,0,80,80,80,,,,,,,,,,,,,,,-9.111328125,12.01171875,0,0,1,0.784380912781,,,,,2015_Sep_16_1913,A,facesParametric,8,59.7300522636,
./stim/MorphM6_00_orig.jpg,81,,,,,,,,,0,81,81,81,,,,,,,,,,,,,,,-9.111328125,11.982421875,0,0,1,0.785065174103,,,,,2015_Sep_16_1913,A,facesParametric,8,59.7300522636,
./stim/MorphF1_04_orig.jpg,82,,,,,,,,,0,82,82,82,,,,,,,,,,,,,,,-9.111328125,11.982421875,0,0,1,0.685405015945,,,,,2015_Sep_16_1913,A,facesParametric,8,59.7300522636,
./stim/MorphM8_07_orig.jpg,83,,,,,,,,,0,83,83,83,,,,,,,,,,,,,,,-9.111328125,11.953125,0,0,1,0.71878194809,,,,,2015_Sep_16_1913,A,facesParametric,8,59.7300522636,
./stim/MorphM2_04_orig.jpg,84,,,,,,,,,0,84,84,84,,,,,,,,,,,,,,,-9.08203125,11.89453125,0,0,1,0.887279033661,,,,,2015_Sep_16_1913,A,facesParametric,8,59.7300522636,
./stim/MorphM3_05_orig.jpg,85,,,,,,,,,0,85,85,85,,,,,,,,,,,,,,,-9.08203125,11.89453125,0,0,1,0.917801141739,,,,,2015_Sep_16_1913,A,facesParametric,8,59.7300522636,
./stim/MorphM6_08_orig.jpg,86,,,,,,,,,0,86,86,86,,,,,,,,,,,,,,,-9.08203125,11.89453125,0,0,1,0.837799072266,,,,,2015_Sep_16_1913,A,facesParametric,8,59.7300522636,
./stim/MorphF7_00_orig.jpg,87,,,,,,,,,0,87,87,87,,,,,,,,,,,,,,,-9.052734375,11.8359375,0,0,1,0.666326999664,,,,,2015_Sep_16_1913,A,facesParametric,8,59.7300522636,
./stim/MorphF4_04_orig.jpg,88,,,,,,,,,0,88,88,88,,,,,,,,,,,,,,,-9.052734375,11.8359375,0,0,1,0.702568769455,,,,,2015_Sep_16_1913,A,facesParametric,8,59.7300522636,
./stim/MorphF6_01_orig.jpg,89,,,,,,,,,0,89,89,89,,,,,,,,,,,,,,,-9.0234375,11.865234375,0,0,1,0.718737840652,,,,,2015_Sep_16_1913,A,facesParametric,8,59.7300522636,
./stim/MorphF4_08_orig.jpg,90,,,,,,,,,0,90,90,90,,,,,,,,,,,,,,,-9.052734375,11.953125,1,0,0,6.9206199646,,,,,2015_Sep_16_1913,A,facesParametric,8,59.7300522636,
./stim/MorphM4_09_orig.jpg,91,,,,,,,,,0,91,91,91,,,,,,,,,,,,,,,-9.052734375,11.953125,1,0,0,1.37073493004,,,,,2015_Sep_16_1913,A,facesParametric,8,59.7300522636,
./stim/MorphM7_07_orig.jpg,92,,,,,,,,,0,92,92,92,,,,,,,,,,,,,,,-9.052734375,11.953125,1,0,0,2.07689189911,,,,,2015_Sep_16_1913,A,facesParametric,8,59.7300522636,
./stim/MorphF9_01_orig.jpg,93,,,,,,,,,0,93,93,93,,,,,,,,,,,,,,,-9.052734375,11.982421875,0,0,1,0.767788887024,,,,,2015_Sep_16_1913,A,facesParametric,8,59.7300522636,
./stim/MorphM8_05_orig.jpg,94,,,,,,,,,0,94,94,94,,,,,,,,,,,,,,,-9.08203125,12.01171875,0,0,1,1.00363707542,,,,,2015_Sep_16_1913,A,facesParametric,8,59.7300522636,
./stim/MorphM4_08_orig.jpg,95,,,,,,,,,0,95,95,95,,,,,,,,,,,,,,,-9.111328125,12.041015625,0,0,1,1.00427508354,,,,,2015_Sep_16_1913,A,facesParametric,8,59.7300522636,
./stim/MorphM6_04_orig.jpg,96,,,,,,,,,0,96,96,96,,,,,,,,,,,,,,,-9.111328125,12.041015625,0,0,1,0.936771869659,,,,,2015_Sep_16_1913,A,facesParametric,8,59.7300522636,
./stim/MorphF8_00_orig.jpg,97,,,,,,,,,0,97,97,97,,,,,,,,,,,,,,,-9.140625,12.01171875,0,0,1,1.25616598129,,,,,2015_Sep_16_1913,A,facesParametric,8,59.7300522636,
./stim/MorphF4_00_orig.jpg,98,,,,,,,,,0,98,98,98,,,,,,,,,,,,,,,-9.140625,12.01171875,0,0,1,1.10461211205,,,,,2015_Sep_16_1913,A,facesParametric,8,59.7300522636,
./stim/MorphM2_07_orig.jpg,99,,,,,,,,,0,99,99,99,,,,,,,,,,,,,,,-9.140625,11.982421875,1,0,0,1.77341508865,,,,,2015_Sep_16_1913,A,facesParametric,8,59.7300522636,
./stim/MorphF6_10_orig.jpg,100,,,,,,,,,0,100,100,100,,,,,,,,,,,,,,,-9.140625,11.982421875,0,0,1,1.17228603363,,,,,2015_Sep_16_1913,A,facesParametric,8,59.7300522636,
./stim/MorphM1_05_orig.jpg,101,,,,,,,,,0,101,101,101,,,,,,,,,,,,,,,-9.140625,11.982421875,0,0,1,0.71929192543,,,,,2015_Sep_16_1913,A,facesParametric,8,59.7300522636,
./stim/MorphF1_02_orig.jpg,102,,,,,,,,,0,102,102,102,,,,,,,,,,,,,,,-9.140625,11.982421875,0,0,1,0.601722002029,,,,,2015_Sep_16_1913,A,facesParametric,8,59.7300522636,
./stim/MorphF4_01_orig.jpg,103,,,,,,,,,0,103,103,103,,,,,,,,,,,,,,,-9.169921875,12.01171875,0,0,1,0.80374789238,,,,,2015_Sep_16_1913,A,facesParametric,8,59.7300522636,
./stim/MorphM10_08_orig.jpg,104,,,,,,,,,0,104,104,104,,,,,,,,,,,,,,,-9.19921875,12.01171875,0,0,1,0.702307939529,,,,,2015_Sep_16_1913,A,facesParametric,8,59.7300522636,
./stim/MorphM1_00_orig.jpg,105,,,,,,,,,0,105,105,105,,,,,,,,,,,,,,,-9.19921875,12.01171875,0,0,1,0.636147022247,,,,,2015_Sep_16_1913,A,facesParametric,8,59.7300522636,
./stim/MorphF3_00_orig.jpg,106,,,,,,,,,0,106,106,106,,,,,,,,,,,,,,,-9.19921875,12.01171875,0,0,1,0.551589012146,,,,,2015_Sep_16_1913,A,facesParametric,8,59.7300522636,
./stim/MorphF10_06_orig.jpg,107,,,,,,,,,0,107,107,107,,,,,,,,,,,,,,,-9.19921875,12.01171875,0,0,1,0.617489099503,,,,,2015_Sep_16_1913,A,facesParametric,8,59.7300522636,
./stim/MorphF3_10_orig.jpg,108,,,,,,,,,0,108,108,108,,,,,,,,,,,,,,,-9.19921875,12.01171875,0,0,1,0.968707799911,,,,,2015_Sep_16_1913,A,facesParametric,8,59.7300522636,
./stim/MorphF7_10_orig.jpg,109,,,,,,,,,0,109,109,109,,,,,,,,,,,,,,,-9.19921875,12.01171875,1,0,0,4.30367898941,,,,,2015_Sep_16_1913,A,facesParametric,8,59.7300522636,
./stim/MorphF9_07_orig.jpg,110,,,,,,,,,0,110,110,110,,,,,,,,,,,,,,,-9.19921875,12.01171875,0,0,1,0.584039926529,,,,,2015_Sep_16_1913,A,facesParametric,8,59.7300522636,
./stim/MorphM6_02_orig.jpg,111,,,,,,,,,0,111,111,111,,,,,,,,,,,,,,,-9.19921875,11.982421875,0,0,1,0.71945309639,,,,,2015_Sep_16_1913,A,facesParametric,8,59.7300522636,
./stim/MorphM9_04_orig.jpg,112,,,,,,,,,0,112,112,112,,,,,,,,,,,,,,,-9.19921875,11.953125,0,0,1,0.819833993912,,,,,2015_Sep_16_1913,A,facesParametric,8,59.7300522636,
./stim/MorphM6_05_orig.jpg,113,,,,,,,,,0,113,113,113,,,,,,,,,,,,,,,-9.19921875,11.953125,0,0,1,0.684088945389,,,,,2015_Sep_16_1913,A,facesParametric,8,59.7300522636,
./stim/MorphF6_04_orig.jpg,114,,,,,,,,,0,114,114,114,,,,,,,,,,,,,,,-9.140625,11.865234375,0,0,1,0.802589178085,,,,,2015_Sep_16_1913,A,facesParametric,8,59.7300522636,
./stim/MorphM5_06_orig.jpg,115,,,,,,,,,0,115,115,115,,,,,,,,,,,,,,,-9.140625,11.865234375,1,0,0,0.736584186554,,,,,2015_Sep_16_1913,A,facesParametric,8,59.7300522636,
./stim/MorphM4_10_orig.jpg,116,,,,,,,,,0,116,116,116,,,,,,,,,,,,,,,-9.140625,11.865234375,0,0,1,0.953794956207,,,,,2015_Sep_16_1913,A,facesParametric,8,59.7300522636,
./stim/MorphF3_08_orig.jpg,117,,,,,,,,,0,117,117,117,,,,,,,,,,,,,,,-9.140625,11.865234375,0,0,1,1.03815793991,,,,,2015_Sep_16_1913,A,facesParametric,8,59.7300522636,
./stim/MorphF9_05_orig.jpg,118,,,,,,,,,0,118,118,118,,,,,,,,,,,,,,,-9.169921875,11.8359375,0,0,1,0.985818147659,,,,,2015_Sep_16_1913,A,facesParametric,8,59.7300522636,
./stim/MorphM7_09_orig.jpg,119,,,,,,,,,0,119,119,119,,,,,,,,,,,,,,,-9.140625,11.806640625,1,0,0,0.920614004135,,,,,2015_Sep_16_1913,A,facesParametric,8,59.7300522636,
./stim/MorphF1_09_orig.jpg,120,,,,,,,,,0,120,120,120,,,,,,,,,,,,,,,-9.140625,11.806640625,0,0,1,0.702430963516,,,,,2015_Sep_16_1913,A,facesParametric,8,59.7300522636,
./stim/MorphM6_09_orig.jpg,121,,,,,,,,,0,121,121,121,,,,,,,,,,,,,,,-9.140625,11.806640625,0,0,1,1.60858798027,,,,,2015_Sep_16_1913,A,facesParametric,8,59.7300522636,
./stim/MorphF4_06_orig.jpg,122,,,,,,,,,0,122,122,122,,,,,,,,,,,,,,,-9.140625,11.806640625,0,0,1,0.532029867172,,,,,2015_Sep_16_1913,A,facesParametric,8,59.7300522636,
./stim/MorphF7_06_orig.jpg,123,,,,,,,,,0,123,123,123,,,,,,,,,,,,,,,-9.111328125,11.77734375,0,0,1,2.19364094734,,,,,2015_Sep_16_1913,A,facesParametric,8,59.7300522636,
./stim/MorphM5_02_orig.jpg,124,,,,,,,,,0,124,124,124,,,,,,,,,,,,,,,-9.111328125,11.77734375,1,0,0,0.736553907394,,,,,2015_Sep_16_1913,A,facesParametric,8,59.7300522636,
./stim/MorphF10_05_orig.jpg,125,,,,,,,,,0,125,125,125,,,,,,,,,,,,,,,-9.111328125,11.77734375,0,0,1,2.0412709713,,,,,2015_Sep_16_1913,A,facesParametric,8,59.7300522636,
./stim/MorphF7_05_orig.jpg,126,,,,,,,,,0,126,126,126,,,,,,,,,,,,,,,-9.08203125,11.748046875,0,0,1,1.08812713623,,,,,2015_Sep_16_1913,A,facesParametric,8,59.7300522636,
./stim/MorphF1_03_orig.jpg,127,,,,,,,,,0,127,127,127,,,,,,,,,,,,,,,-9.08203125,11.748046875,0,0,1,0.736319065094,,,,,2015_Sep_16_1913,A,facesParametric,8,59.7300522636,
./stim/MorphF3_07_orig.jpg,128,,,,,,,,,0,128,128,128,,,,,,,,,,,,,,,-9.08203125,11.748046875,0,0,1,0.566546916962,,,,,2015_Sep_16_1913,A,facesParametric,8,59.7300522636,
./stim/MorphF4_05_orig.jpg,129,,,,,,,,,0,129,129,129,,,,,,,,,,,,,,,-9.052734375,11.71875,0,0,1,0.602614879608,,,,,2015_Sep_16_1913,A,facesParametric,8,59.7300522636,
./stim/MorphF6_07_orig.jpg,130,,,,,,,,,0,130,130,130,,,,,,,,,,,,,,,-9.052734375,11.689453125,0,0,1,0.568562984467,,,,,2015_Sep_16_1913,A,facesParametric,8,59.7300522636,
./stim/MorphF3_02_orig.jpg,131,,,,,,,,,0,131,131,131,,,,,,,,,,,,,,,-9.08203125,11.66015625,0,0,1,0.551421165466,,,,,2015_Sep_16_1913,A,facesParametric,8,59.7300522636,
./stim/MorphF1_00_orig.jpg,132,,,,,,,,,0,132,132,132,,,,,,,,,,,,,,,-9.052734375,11.630859375,0,0,1,0.516916036606,,,,,2015_Sep_16_1913,A,facesParametric,8,59.7300522636,
./stim/MorphF4_03_orig.jpg,133,,,,,,,,,0,133,133,133,,,,,,,,,,,,,,,-9.052734375,11.630859375,0,0,1,0.517123937607,,,,,2015_Sep_16_1913,A,facesParametric,8,59.7300522636,
./stim/MorphM2_03_orig.jpg,134,,,,,,,,,0,134,134,134,,,,,,,,,,,,,,,-9.052734375,11.630859375,0,0,1,0.685124874115,,,,,2015_Sep_16_1913,A,facesParametric,8,59.7300522636,
./stim/MorphF10_10_orig.jpg,135,,,,,,,,,0,135,135,135,,,,,,,,,,,,,,,-9.052734375,11.630859375,1,0,0,2.00972509384,,,,,2015_Sep_16_1913,A,facesParametric,8,59.7300522636,
./stim/MorphM2_09_orig.jpg,136,,,,,,,,,0,136,136,136,,,,,,,,,,,,,,,-9.052734375,11.630859375,1,0,0,1.12209105492,,,,,2015_Sep_16_1913,A,facesParametric,8,59.7300522636,
./stim/MorphM6_01_orig.jpg,137,,,,,,,,,0,137,137,137,,,,,,,,,,,,,,,-9.052734375,11.630859375,0,0,1,0.767309904099,,,,,2015_Sep_16_1913,A,facesParametric,8,59.7300522636,
./stim/MorphF9_09_orig.jpg,138,,,,,,,,,0,138,138,138,,,,,,,,,,,,,,,-9.052734375,11.630859375,0,0,1,0.718248128891,,,,,2015_Sep_16_1913,A,facesParametric,8,59.7300522636,
./stim/MorphM5_03_orig.jpg,139,,,,,,,,,0,139,139,139,,,,,,,,,,,,,,,-9.0234375,11.6015625,1,0,0,0.753019809723,,,,,2015_Sep_16_1913,A,facesParametric,8,59.7300522636,
./stim/MorphF10_00_orig.jpg,140,,,,,,,,,0,140,140,140,,,,,,,,,,,,,,,-9.0234375,11.6015625,0,0,1,0.651890039444,,,,,2015_Sep_16_1913,A,facesParametric,8,59.7300522636,
./stim/MorphF2_02_orig.jpg,141,,,,,,,,,0,141,141,141,,,,,,,,,,,,,,,-9.052734375,11.572265625,0,0,1,0.818511009216,,,,,2015_Sep_16_1913,A,facesParametric,8,59.7300522636,
./stim/MorphM3_06_orig.jpg,142,,,,,,,,,0,142,142,142,,,,,,,,,,,,,,,-9.052734375,11.572265625,1,0,0,0.786782979965,,,,,2015_Sep_16_1913,A,facesParametric,8,59.7300522636,
./stim/MorphF7_04_orig.jpg,143,,,,,,,,,0,143,143,143,,,,,,,,,,,,,,,-9.052734375,11.572265625,0,0,1,0.585266113281,,,,,2015_Sep_16_1913,A,facesParametric,8,59.7300522636,
./stim/MorphF5_01_orig.jpg,144,,,,,,,,,0,144,144,144,,,,,,,,,,,,,,,-9.052734375,11.572265625,0,0,1,1.23904895782,,,,,2015_Sep_16_1913,A,facesParametric,8,59.7300522636,
./stim/MorphF7_09_orig.jpg,145,,,,,,,,,0,145,145,145,,,,,,,,,,,,,,,-9.0234375,11.6015625,0,0,1,0.851589918137,,,,,2015_Sep_16_1913,A,facesParametric,8,59.7300522636,
./stim/MorphM3_10_orig.jpg,146,,,,,,,,,0,146,146,146,,,,,,,,,,,,,,,-9.052734375,11.630859375,1,0,0,1.02117800713,,,,,2015_Sep_16_1913,A,facesParametric,8,59.7300522636,
./stim/MorphM9_02_orig.jpg,147,,,,,,,,,0,147,147,147,,,,,,,,,,,,,,,-9.052734375,11.630859375,0,0,1,0.834315061569,,,,,2015_Sep_16_1913,A,facesParametric,8,59.7300522636,
./stim/MorphF9_10_orig.jpg,148,,,,,,,,,0,148,148,148,,,,,,,,,,,,,,,-9.052734375,11.630859375,1,0,0,0.987955093384,,,,,2015_Sep_16_1913,A,facesParametric,8,59.7300522636,
./stim/MorphM5_00_orig.jpg,149,,,,,,,,,0,149,149,149,,,,,,,,,,,,,,,-9.08203125,11.6015625,1,0,0,0.903419971466,,,,,2015_Sep_16_1913,A,facesParametric,8,59.7300522636,
./stim/MorphF2_00_orig.jpg,150,,,,,,,,,0,150,150,150,,,,,,,,,,,,,,,-9.08203125,11.6015625,0,0,1,0.633400917053,,,,,2015_Sep_16_1913,A,facesParametric,8,59.7300522636,
./stim/MorphM6_06_orig.jpg,151,,,,,,,,,0,151,151,151,,,,,,,,,,,,,,,-9.08203125,11.572265625,0,0,1,0.585324048996,,,,,2015_Sep_16_1913,A,facesParametric,8,59.7300522636,
./stim/MorphM7_06_orig.jpg,152,,,,,,,,,0,152,152,152,,,,,,,,,,,,,,,-9.08203125,11.572265625,1,0,0,1.65641593933,,,,,2015_Sep_16_1913,A,facesParametric,8,59.7300522636,
./stim/MorphF2_10_orig.jpg,153,,,,,,,,,0,153,153,153,,,,,,,,,,,,,,,-9.08203125,11.54296875,1,0,0,0.736376047134,,,,,2015_Sep_16_1913,A,facesParametric,8,59.7300522636,
./stim/MorphF10_08_orig.jpg,154,,,,,,,,,0,154,154,154,,,,,,,,,,,,,,,-9.08203125,11.54296875,1,0,0,1.73967409134,,,,,2015_Sep_16_1913,A,facesParametric,8,59.7300522636,
./stim/MorphF3_01_orig.jpg,155,,,,,,,,,0,155,155,155,,,,,,,,,,,,,,,-9.08203125,11.54296875,0,0,1,0.668147087097,,,,,2015_Sep_16_1913,A,facesParametric,8,59.7300522636,
./stim/MorphM9_06_orig.jpg,156,,,,,,,,,0,156,156,156,,,,,,,,,,,,,,,-9.111328125,11.484375,0,0,1,1.17265892029,,,,,2015_Sep_16_1913,A,facesParametric,8,59.7300522636,
./stim/MorphF10_01_orig.jpg,157,,,,,,,,,0,157,157,157,,,,,,,,,,,,,,,-9.111328125,11.484375,0,0,1,0.818012952805,,,,,2015_Sep_16_1913,A,facesParametric,8,59.7300522636,
./stim/MorphM2_05_orig.jpg,158,,,,,,,,,0,158,158,158,,,,,,,,,,,,,,,-9.140625,11.455078125,0,0,1,0.700680017471,,,,,2015_Sep_16_1913,A,facesParametric,8,59.7300522636,
./stim/MorphM4_03_orig.jpg,159,,,,,,,,,0,159,159,159,,,,,,,,,,,,,,,-9.140625,11.455078125,0,0,1,1.40511584282,,,,,2015_Sep_16_1913,A,facesParametric,8,59.7300522636,
./stim/MorphF7_02_orig.jpg,160,,,,,,,,,0,160,160,160,,,,,,,,,,,,,,,-9.169921875,11.455078125,0,0,1,1.40553998947,,,,,2015_Sep_16_1913,A,facesParametric,8,59.7300522636,
./stim/MorphM8_01_orig.jpg,161,,,,,,,,,0,161,161,161,,,,,,,,,,,,,,,-9.169921875,11.455078125,0,0,1,0.751461029053,,,,,2015_Sep_16_1913,A,facesParametric,8,59.7300522636,
./stim/MorphF5_04_orig.jpg,162,,,,,,,,,0,162,162,162,,,,,,,,,,,,,,,-9.19921875,11.42578125,0,0,1,0.786732196808,,,,,2015_Sep_16_1913,A,facesParametric,8,59.7300522636,
./stim/MorphM1_01_orig.jpg,163,,,,,,,,,0,163,163,163,,,,,,,,,,,,,,,-9.19921875,11.42578125,0,0,1,0.735980033875,,,,,2015_Sep_16_1913,A,facesParametric,8,59.7300522636,
./stim/MorphM9_07_orig.jpg,164,,,,,,,,,0,164,164,164,,,,,,,,,,,,,,,-9.19921875,11.42578125,1,0,0,3.92100405693,,,,,2015_Sep_16_1913,A,facesParametric,8,59.7300522636,
./stim/MorphM10_07_orig.jpg,165,,,,,,,,,0,165,165,165,,,,,,,,,,,,,,,-9.19921875,11.42578125,1,0,0,0.635286092758,,,,,2015_Sep_16_1913,A,facesParametric,8,59.7300522636,
./stim/MorphM8_00_orig.jpg,166,,,,,,,,,0,166,166,166,,,,,,,,,,,,,,,-9.228515625,11.3671875,0,0,1,0.769998073578,,,,,2015_Sep_16_1913,A,facesParametric,8,59.7300522636,
./stim/MorphF2_08_orig.jpg,167,,,,,,,,,0,167,167,167,,,,,,,,,,,,,,,-9.287109375,11.337890625,1,0,0,0.718930959702,,,,,2015_Sep_16_1913,A,facesParametric,8,59.7300522636,
./stim/MorphM8_09_orig.jpg,168,,,,,,,,,0,168,168,168,,,,,,,,,,,,,,,-9.2578125,11.30859375,1,0,0,1.20561504364,,,,,2015_Sep_16_1913,A,facesParametric,8,59.7300522636,
./stim/MorphF1_01_orig.jpg,169,,,,,,,,,0,169,169,169,,,,,,,,,,,,,,,-9.2578125,11.337890625,0,0,1,0.58313202858,,,,,2015_Sep_16_1913,A,facesParametric,8,59.7300522636,
./stim/MorphM5_08_orig.jpg,170,,,,,,,,,0,170,170,170,,,,,,,,,,,,,,,-9.2578125,11.3671875,1,0,0,0.786350011826,,,,,2015_Sep_16_1913,A,facesParametric,8,59.7300522636,
./stim/MorphM2_06_orig.jpg,171,,,,,,,,,0,171,171,171,,,,,,,,,,,,,,,-9.2578125,11.3671875,0,0,1,0.719502925873,,,,,2015_Sep_16_1913,A,facesParametric,8,59.7300522636,
./stim/MorphM6_10_orig.jpg,172,,,,,,,,,0,172,172,172,,,,,,,,,,,,,,,-9.228515625,11.396484375,1,0,0,1.75843405724,,,,,2015_Sep_16_1913,A,facesParametric,8,59.7300522636,
./stim/MorphF10_04_orig.jpg,173,,,,,,,,,0,173,173,173,,,,,,,,,,,,,,,-9.19921875,11.42578125,0,0,1,2.47963309288,,,,,2015_Sep_16_1913,A,facesParametric,8,59.7300522636,
./stim/MorphM7_00_orig.jpg,174,,,,,,,,,0,174,174,174,,,,,,,,,,,,,,,-9.19921875,11.42578125,0,0,1,1.92581105232,,,,,2015_Sep_16_1913,A,facesParametric,8,59.7300522636,
./stim/MorphF8_05_orig.jpg,175,,,,,,,,,0,175,175,175,,,,,,,,,,,,,,,-9.19921875,11.42578125,0,0,1,3.4846739769,,,,,2015_Sep_16_1913,A,facesParametric,8,59.7300522636,
./stim/MorphF2_04_orig.jpg,176,,,,,,,,,0,176,176,176,,,,,,,,,,,,,,,-9.169921875,11.455078125,0,0,1,0.568608045578,,,,,2015_Sep_16_1913,A,facesParametric,8,59.7300522636,
./stim/MorphM7_03_orig.jpg,177,,,,,,,,,0,177,177,177,,,,,,,,,,,,,,,-9.169921875,11.455078125,0,0,1,0.719556808472,,,,,2015_Sep_16_1913,A,facesParametric,8,59.7300522636,
./stim/MorphM4_00_orig.jpg,178,,,,,,,,,0,178,178,178,,,,,,,,,,,,,,,-9.140625,11.42578125,0,0,1,0.685495853424,,,,,2015_Sep_16_1913,A,facesParametric,8,59.7300522636,
./stim/MorphM10_06_orig.jpg,179,,,,,,,,,0,179,179,179,,,,,,,,,,,,,,,-9.140625,11.42578125,1,0,0,0.819895029068,,,,,2015_Sep_16_1913,A,facesParametric,8,59.7300522636,
./stim/MorphF8_07_orig.jpg,180,,,,,,,,,0,180,180,180,,,,,,,,,,,,,,,-9.140625,11.42578125,1,0,0,1.02051687241,,,,,2015_Sep_16_1913,A,facesParametric,8,59.7300522636,
./stim/MorphM5_01_orig.jpg,181,,,,,,,,,0,181,181,181,,,,,,,,,,,,,,,-9.111328125,11.396484375,1,0,0,0.753128051758,,,,,2015_Sep_16_1913,A,facesParametric,8,59.7300522636,
./stim/MorphM7_05_orig.jpg,182,,,,,,,,,0,182,182,182,,,,,,,,,,,,,,,-9.111328125,11.396484375,1,0,0,1.57241106033,,,,,2015_Sep_16_1913,A,facesParametric,8,59.7300522636,
./stim/MorphF5_10_orig.jpg,183,,,,,,,,,0,183,183,183,,,,,,,,,,,,,,,-9.111328125,11.396484375,1,0,0,0.751755952835,,,,,2015_Sep_16_1913,A,facesParametric,8,59.7300522636,
./stim/MorphM1_08_orig.jpg,184,,,,,,,,,0,184,184,184,,,,,,,,,,,,,,,-9.111328125,11.396484375,1,0,0,1.99309706688,,,,,2015_Sep_16_1913,A,facesParametric,8,59.7300522636,
./stim/MorphF8_04_orig.jpg,185,,,,,,,,,0,185,185,185,,,,,,,,,,,,,,,-9.111328125,11.396484375,0,0,1,1.23687410355,,,,,2015_Sep_16_1913,A,facesParametric,8,59.7300522636,
./stim/MorphF9_00_orig.jpg,186,,,,,,,,,0,186,186,186,,,,,,,,,,,,,,,-9.08203125,11.3671875,0,0,1,0.785634040833,,,,,2015_Sep_16_1913,A,facesParametric,8,59.7300522636,
./stim/MorphM3_02_orig.jpg,187,,,,,,,,,0,187,187,187,,,,,,,,,,,,,,,-9.08203125,11.3671875,1,0,0,1.73970293999,,,,,2015_Sep_16_1913,A,facesParametric,8,59.7300522636,
./stim/MorphF2_03_orig.jpg,188,,,,,,,,,0,188,188,188,,,,,,,,,,,,,,,-9.08203125,11.3671875,1,0,0,0.685954093933,,,,,2015_Sep_16_1913,A,facesParametric,8,59.7300522636,
./stim/MorphM4_06_orig.jpg,189,,,,,,,,,0,189,189,189,,,,,,,,,,,,,,,-9.08203125,11.3671875,0,0,1,0.71967792511,,,,,2015_Sep_16_1913,A,facesParametric,8,59.7300522636,
./stim/MorphM8_04_orig.jpg,190,,,,,,,,,0,190,190,190,,,,,,,,,,,,,,,-9.08203125,11.337890625,0,0,1,0.836695194244,,,,,2015_Sep_16_1913,A,facesParametric,8,59.7300522636,
./stim/MorphF3_09_orig.jpg,191,,,,,,,,,0,191,191,191,,,,,,,,,,,,,,,-9.08203125,11.337890625,0,0,1,1.03749990463,,,,,2015_Sep_16_1913,A,facesParametric,8,59.7300522636,
./stim/MorphF2_05_orig.jpg,192,,,,,,,,,0,192,192,192,,,,,,,,,,,,,,,-9.08203125,11.337890625,1,0,0,1.17158603668,,,,,2015_Sep_16_1913,A,facesParametric,8,59.7300522636,
./stim/MorphF3_05_orig.jpg,193,,,,,,,,,0,193,193,193,,,,,,,,,,,,,,,-9.08203125,11.337890625,0,0,1,0.736037969589,,,,,2015_Sep_16_1913,A,facesParametric,8,59.7300522636,
./stim/MorphF5_00_orig.jpg,194,,,,,,,,,0,194,194,194,,,,,,,,,,,,,,,-9.08203125,11.337890625,0,0,1,0.920150995255,,,,,2015_Sep_16_1913,A,facesParametric,8,59.7300522636,
./stim/MorphM3_08_orig.jpg,195,,,,,,,,,0,195,195,195,,,,,,,,,,,,,,,-9.08203125,11.337890625,1,0,0,1.05297899246,,,,,2015_Sep_16_1913,A,facesParametric,8,59.7300522636,
./stim/MorphM4_07_orig.jpg,196,,,,,,,,,0,196,196,196,,,,,,,,,,,,,,,-9.08203125,11.337890625,0,0,1,0.668054103851,,,,,2015_Sep_16_1913,A,facesParametric,8,59.7300522636,
./stim/MorphF8_01_orig.jpg,197,,,,,,,,,0,197,197,197,,,,,,,,,,,,,,,-9.052734375,11.337890625,0,0,1,2.06052589417,,,,,2015_Sep_16_1913,A,facesParametric,8,59.7300522636,
./stim/MorphF6_02_orig.jpg,198,,,,,,,,,0,198,198,198,,,,,,,,,,,,,,,-8.994140625,11.396484375,0,0,1,1.06961917877,,,,,2015_Sep_16_1913,A,facesParametric,8,59.7300522636,
./stim/MorphM7_04_orig.jpg,199,,,,,,,,,0,199,199,199,,,,,,,,,,,,,,,-8.96484375,11.396484375,1,0,0,2.41032981873,,,,,2015_Sep_16_1913,A,facesParametric,8,59.7300522636,
./stim/MorphM9_09_orig.jpg,200,,,,,,,,,0,200,200,200,,,,,,,,,,,,,,,-8.935546875,11.42578125,1,0,0,0.819895029068,,,,,2015_Sep_16_1913,A,facesParametric,8,59.7300522636,
./stim/MorphM3_03_orig.jpg,201,,,,,,,,,0,201,201,201,,,,,,,,,,,,,,,-8.935546875,11.42578125,1,0,0,0.970668077469,,,,,2015_Sep_16_1913,A,facesParametric,8,59.7300522636,
./stim/MorphM7_08_orig.jpg,202,,,,,,,,,0,202,202,202,,,,,,,,,,,,,,,-8.935546875,11.42578125,1,0,0,1.44051408768,,,,,2015_Sep_16_1913,A,facesParametric,8,59.7300522636,
./stim/MorphM2_08_orig.jpg,203,,,,,,,,,0,203,203,203,,,,,,,,,,,,,,,-8.935546875,11.42578125,0,0,1,0.802317142487,,,,,2015_Sep_16_1913,A,facesParametric,8,59.7300522636,
./stim/MorphF1_05_orig.jpg,204,,,,,,,,,0,204,204,204,,,,,,,,,,,,,,,-8.935546875,11.42578125,0,0,1,0.769709825516,,,,,2015_Sep_16_1913,A,facesParametric,8,59.7300522636,
./stim/MorphM8_06_orig.jpg,205,,,,,,,,,0,205,205,205,,,,,,,,,,,,,,,-8.96484375,11.455078125,0,0,1,0.61776304245,,,,,2015_Sep_16_1913,A,facesParametric,8,59.7300522636,
./stim/MorphF6_09_orig.jpg,206,,,,,,,,,0,206,206,206,,,,,,,,,,,,,,,-8.994140625,11.42578125,0,0,1,0.750953912735,,,,,2015_Sep_16_1913,A,facesParametric,8,59.7300522636,
./stim/MorphM1_04_orig.jpg,207,,,,,,,,,0,207,207,207,,,,,,,,,,,,,,,-8.96484375,11.396484375,0,0,1,0.686113119125,,,,,2015_Sep_16_1913,A,facesParametric,8,59.7300522636,
./stim/MorphM3_07_orig.jpg,208,,,,,,,,,0,208,208,208,,,,,,,,,,,,,,,-8.96484375,11.396484375,1,0,0,0.88715004921,,,,,2015_Sep_16_1913,A,facesParametric,8,59.7300522636,
./stim/MorphF2_09_orig.jpg,209,,,,,,,,,0,209,209,209,,,,,,,,,,,,,,,-8.96484375,11.42578125,1,0,0,0.71897482872,,,,,2015_Sep_16_1913,A,facesParametric,8,59.7300522636,
./stim/MorphF4_07_orig.jpg,210,,,,,,,,,0,210,210,210,,,,,,,,,,,,,,,-8.935546875,11.484375,1,0,0,0.836724996567,,,,,2015_Sep_16_1913,A,facesParametric,8,59.7300522636,
./stim/MorphM7_01_orig.jpg,211,,,,,,,,,0,211,211,211,,,,,,,,,,,,,,,-8.935546875,11.484375,0,0,1,1.38825297356,,,,,2015_Sep_16_1913,A,facesParametric,8,59.7300522636,
./stim/MorphF8_03_orig.jpg,212,,,,,,,,,0,212,212,212,,,,,,,,,,,,,,,-8.994140625,11.484375,0,0,1,1.03679203987,,,,,2015_Sep_16_1913,A,facesParametric,8,59.7300522636,
./stim/MorphM8_02_orig.jpg,213,,,,,,,,,0,213,213,213,,,,,,,,,,,,,,,-9.0234375,11.455078125,0,0,1,0.904196023941,,,,,2015_Sep_16_1913,A,facesParametric,8,59.7300522636,
./stim/MorphM10_02_orig.jpg,214,,,,,,,,,0,214,214,214,,,,,,,,,,,,,,,-9.0234375,11.455078125,0,0,1,1.42213511467,,,,,2015_Sep_16_1913,A,facesParametric,8,59.7300522636,
./stim/MorphM5_09_orig.jpg,215,,,,,,,,,0,215,215,215,,,,,,,,,,,,,,,-9.0234375,11.455078125,1,0,0,0.868793010712,,,,,2015_Sep_16_1913,A,facesParametric,8,59.7300522636,
./stim/MorphF5_02_orig.jpg,216,,,,,,,,,0,216,216,216,,,,,,,,,,,,,,,-9.0234375,11.455078125,0,0,1,1.30586004257,,,,,2015_Sep_16_1913,A,facesParametric,8,59.7300522636,
./stim/MorphM10_10_orig.jpg,217,,,,,,,,,0,217,217,217,,,,,,,,,,,,,,,-9.0234375,11.455078125,1,0,0,0.91911315918,,,,,2015_Sep_16_1913,A,facesParametric,8,59.7300522636,
./stim/MorphM2_00_orig.jpg,218,,,,,,,,,0,218,218,218,,,,,,,,,,,,,,,-9.0234375,11.455078125,0,0,1,0.870324134827,,,,,2015_Sep_16_1913,A,facesParametric,8,59.7300522636,
./stim/MorphM9_05_orig.jpg,219,,,,,,,,,0,219,219,219,,,,,,,,,,,,,,,-9.08203125,11.396484375,0,0,1,1.03595113754,,,,,2015_Sep_16_1913,A,facesParametric,8,59.7300522636,
,,,,,,,,,,,,,,,,,,,,,,,,,,,,,,,,,,,,return,4.99004292488,2015_Sep_16_1913,A,facesParametric,8,59.7300522636,
