img,num,basicLoop.thisRepN,basicLoop.thisTrialN,basicLoop.thisN,basicLoop.thisIndex,trials.thisRepN,trials.thisTrialN,trials.thisN,trials.thisIndex,trials2.thisRepN,trials2.thisTrialN,trials2.thisN,trials2.thisIndex,key_resp_2.keys,key_resp_2.rt,basicRating1.response,basicRating1.rt,basicRating2.response,basicRating2.rt,basicRating3.response,basicRating3.rt,basicRating4.response,basicRating4.rt,key_resp_3.keys,key_resp_3.rt,key_resp_4.keys,key_resp_4.rt,mouseResp.x,mouseResp.y,mouseResp.leftButton,mouseResp.midButton,mouseResp.rightButton,mouseResp.time,key_resp_5.keys,key_resp_5.rt,key_resp_7.keys,key_resp_7.rt,date,group,expName,participant,frameRate,
,,,,,,,,,,,,,,return,88.9068851471,,,,,,,,,,,,,,,,,,,,,,,2015_Sep_20_1229,A,facesParametric,9,59.6826264144,
./basicStim/06F_NE_C.jpg,,0,0,0,27,,,,,,,,,,,SAD,4.698,None,None,None,None,None,None,,,,,,,,,,,,,,,2015_Sep_20_1229,A,facesParametric,9,59.6826264144,
./basicStim/23M_AN_O.jpg,,0,1,1,49,,,,,,,,,,,None,None,ANG,2.945,None,None,None,None,,,,,,,,,,,,,,,2015_Sep_20_1229,A,facesParametric,9,59.6826264144,
./basicStim/06F_FE_O.jpg,,0,2,2,23,,,,,,,,,,,None,None,None,None,SUP,2.616,None,None,,,,,,,,,,,,,,,2015_Sep_20_1229,A,facesParametric,9,59.6826264144,
./basicStim/28M_HA_O.jpg,,0,3,3,66,,,,,,,,,,,HAP,1.651,None,None,None,None,None,None,,,,,,,,,,,,,,,2015_Sep_20_1229,A,facesParametric,9,59.6826264144,
./basicStim/02F_DI_O.jpg,,0,4,4,8,,,,,,,,,,,None,None,None,None,DIS,1.781,None,None,,,,,,,,,,,,,,,2015_Sep_20_1229,A,facesParametric,9,59.6826264144,
./basicStim/36M_DI_O.jpg,,0,5,5,78,,,,,,,,,,,None,None,None,None,None,None,NTR,2.699,,,,,,,,,,,,,,,2015_Sep_20_1229,A,facesParametric,9,59.6826264144,
./basicStim/09F_AN_O.jpg,,0,6,6,35,,,,,,,,,,,None,None,ANG,2.219,None,None,None,None,,,,,,,,,,,,,,,2015_Sep_20_1229,A,facesParametric,9,59.6826264144,
./basicStim/07F_DI_O.jpg,,0,7,7,29,,,,,,,,,,,None,None,None,None,DIS,2.967,None,None,,,,,,,,,,,,,,,2015_Sep_20_1229,A,facesParametric,9,59.6826264144,
./basicStim/28M_SA_C.jpg,,0,8,8,67,,,,,,,,,,,None,None,None,None,SUP,1.865,None,None,,,,,,,,,,,,,,,2015_Sep_20_1229,A,facesParametric,9,59.6826264144,
./basicStim/09F_SP_O.jpg,,0,9,9,40,,,,,,,,,,,None,None,None,None,SUP,1.785,None,None,,,,,,,,,,,,,,,2015_Sep_20_1229,A,facesParametric,9,59.6826264144,
./basicStim/02F_FE_O.jpg,,0,10,10,9,,,,,,,,,,,None,None,None,None,SUP,1.788,None,None,,,,,,,,,,,,,,,2015_Sep_20_1229,A,facesParametric,9,59.6826264144,
./basicStim/23M_SA_C.jpg,,0,11,11,53,,,,,,,,,,,SAD,2.353,None,None,None,None,None,None,,,,,,,,,,,,,,,2015_Sep_20_1229,A,facesParametric,9,59.6826264144,
./basicStim/07F_FE_O.jpg,,0,12,12,30,,,,,,,,,,,None,None,FEA,3.04,None,None,None,None,,,,,,,,,,,,,,,2015_Sep_20_1229,A,facesParametric,9,59.6826264144,
./basicStim/03F_NE_C.jpg,,0,13,13,20,,,,,,,,,,,None,None,None,None,None,None,NTR,1.58,,,,,,,,,,,,,,,2015_Sep_20_1229,A,facesParametric,9,59.6826264144,
./basicStim/34M_HA_O.jpg,,0,14,14,73,,,,,,,,,,,HAP,1.649,None,None,None,None,None,None,,,,,,,,,,,,,,,2015_Sep_20_1229,A,facesParametric,9,59.6826264144,
./basicStim/36M_SP_O.jpg,,0,15,15,82,,,,,,,,,,,None,None,None,None,SUP,1.73,None,None,,,,,,,,,,,,,,,2015_Sep_20_1229,A,facesParametric,9,59.6826264144,
./basicStim/01F_FE_O.jpg,,0,16,16,2,,,,,,,,,,,None,None,FEA,3.478,None,None,None,None,,,,,,,,,,,,,,,2015_Sep_20_1229,A,facesParametric,9,59.6826264144,
./basicStim/02F_SA_C.jpg,,0,17,17,11,,,,,,,,,,,SAD,1.713,None,None,None,None,None,None,,,,,,,,,,,,,,,2015_Sep_20_1229,A,facesParametric,9,59.6826264144,
./basicStim/28M_NE_C.jpg,,0,18,18,69,,,,,,,,,,,None,None,None,None,None,None,NTR,1.681,,,,,,,,,,,,,,,2015_Sep_20_1229,A,facesParametric,9,59.6826264144,
./basicStim/01F_DI_O.jpg,,0,19,19,1,,,,,,,,,,,None,None,None,None,DIS,3.765,None,None,,,,,,,,,,,,,,,2015_Sep_20_1229,A,facesParametric,9,59.6826264144,
./basicStim/24M_DI_O.jpg,,0,20,20,57,,,,,,,,,,,SAD,1.914,None,None,None,None,None,None,,,,,,,,,,,,,,,2015_Sep_20_1229,A,facesParametric,9,59.6826264144,
./basicStim/06F_DI_O.jpg,,0,21,21,22,,,,,,,,,,,None,None,None,None,DIS,1.83,None,None,,,,,,,,,,,,,,,2015_Sep_20_1229,A,facesParametric,9,59.6826264144,
./basicStim/34M_NE_C.jpg,,0,22,22,76,,,,,,,,,,,None,None,None,None,None,None,NTR,1.662,,,,,,,,,,,,,,,2015_Sep_20_1229,A,facesParametric,9,59.6826264144,
./basicStim/24M_SP_O.jpg,,0,23,23,61,,,,,,,,,,,None,None,None,None,SUP,3.185,None,None,,,,,,,,,,,,,,,2015_Sep_20_1229,A,facesParametric,9,59.6826264144,
./basicStim/01F_HA_O.jpg,,0,24,24,3,,,,,,,,,,,HAP,1.417,None,None,None,None,None,None,,,,,,,,,,,,,,,2015_Sep_20_1229,A,facesParametric,9,59.6826264144,
./basicStim/09F_SA_C.jpg,,0,25,25,39,,,,,,,,,,,None,None,None,None,None,None,dummy,4.006,,,,,,,,,,,,,,,2015_Sep_20_1229,A,facesParametric,9,59.6826264144,
./basicStim/21M_AN_O.jpg,,0,26,26,42,,,,,,,,,,,None,None,ANG,4.297,None,None,None,None,,,,,,,,,,,,,,,2015_Sep_20_1229,A,facesParametric,9,59.6826264144,
./basicStim/03F_SP_O.jpg,,0,27,27,19,,,,,,,,,,,HAP,2.722,None,None,None,None,None,None,,,,,,,,,,,,,,,2015_Sep_20_1229,A,facesParametric,9,59.6826264144,
./basicStim/03F_DI_O.jpg,,0,28,28,15,,,,,,,,,,,None,None,None,None,DIS,2.903,None,None,,,,,,,,,,,,,,,2015_Sep_20_1229,A,facesParametric,9,59.6826264144,
./basicStim/23M_SP_O.jpg,,0,29,29,54,,,,,,,,,,,None,None,None,None,SUP,2.065,None,None,,,,,,,,,,,,,,,2015_Sep_20_1229,A,facesParametric,9,59.6826264144,
./basicStim/21M_NE_C.jpg,,0,30,30,48,,,,,,,,,,,None,None,None,None,None,None,NTR,1.247,,,,,,,,,,,,,,,2015_Sep_20_1229,A,facesParametric,9,59.6826264144,
./basicStim/28M_DI_O.jpg,,0,31,31,64,,,,,,,,,,,None,None,None,None,None,None,NTR,4.212,,,,,,,,,,,,,,,2015_Sep_20_1229,A,facesParametric,9,59.6826264144,
./basicStim/03F_HA_O.jpg,,0,32,32,17,,,,,,,,,,,HAP,3.155,None,None,None,None,None,None,,,,,,,,,,,,,,,2015_Sep_20_1229,A,facesParametric,9,59.6826264144,
./basicStim/07F_HA_O.jpg,,0,33,33,31,,,,,,,,,,,HAP,0.797,None,None,None,None,None,None,,,,,,,,,,,,,,,2015_Sep_20_1229,A,facesParametric,9,59.6826264144,
./basicStim/06F_SP_O.jpg,,0,34,34,26,,,,,,,,,,,None,None,None,None,SUP,2.03,None,None,,,,,,,,,,,,,,,2015_Sep_20_1229,A,facesParametric,9,59.6826264144,
./basicStim/01F_AN_O.jpg,,0,35,35,0,,,,,,,,,,,None,None,ANG,1.331,None,None,None,None,,,,,,,,,,,,,,,2015_Sep_20_1229,A,facesParametric,9,59.6826264144,
./basicStim/28M_FE_O.jpg,,0,36,36,65,,,,,,,,,,,None,None,None,None,SUP,8.821,None,None,,,,,,,,,,,,,,,2015_Sep_20_1229,A,facesParametric,9,59.6826264144,
./basicStim/28M_SP_O.jpg,,0,37,37,68,,,,,,,,,,,None,None,None,None,SUP,6.086,None,None,,,,,,,,,,,,,,,2015_Sep_20_1229,A,facesParametric,9,59.6826264144,
./basicStim/24M_NE_C.jpg,,0,38,38,62,,,,,,,,,,,None,None,None,None,None,None,NTR,1.24,,,,,,,,,,,,,,,2015_Sep_20_1229,A,facesParametric,9,59.6826264144,
./basicStim/06F_SA_C.jpg,,0,39,39,25,,,,,,,,,,,SAD,2.443,None,None,None,None,None,None,,,,,,,,,,,,,,,2015_Sep_20_1229,A,facesParametric,9,59.6826264144,
./basicStim/09F_DI_O.jpg,,0,40,40,36,,,,,,,,,,,None,None,None,None,DIS,8.485,None,None,,,,,,,,,,,,,,,2015_Sep_20_1229,A,facesParametric,9,59.6826264144,
./basicStim/01F_NE_C.jpg,,0,41,41,6,,,,,,,,,,,None,None,None,None,None,None,NTR,2.148,,,,,,,,,,,,,,,2015_Sep_20_1229,A,facesParametric,9,59.6826264144,
./basicStim/21M_SA_C.jpg,,0,42,42,46,,,,,,,,,,,None,None,None,None,None,None,NTR,4.968,,,,,,,,,,,,,,,2015_Sep_20_1229,A,facesParametric,9,59.6826264144,
./basicStim/23M_FE_O.jpg,,0,43,43,51,,,,,,,,,,,None,None,None,None,SUP,3.44,None,None,,,,,,,,,,,,,,,2015_Sep_20_1229,A,facesParametric,9,59.6826264144,
./basicStim/24M_FE_O.jpg,,0,44,44,58,,,,,,,,,,,None,None,None,None,SUP,1.069,None,None,,,,,,,,,,,,,,,2015_Sep_20_1229,A,facesParametric,9,59.6826264144,
./basicStim/03F_SA_C.jpg,,0,45,45,18,,,,,,,,,,,SAD,2.39,None,None,None,None,None,None,,,,,,,,,,,,,,,2015_Sep_20_1229,A,facesParametric,9,59.6826264144,
./basicStim/09F_HA_O.jpg,,0,46,46,38,,,,,,,,,,,HAP,2.084,None,None,None,None,None,None,,,,,,,,,,,,,,,2015_Sep_20_1229,A,facesParametric,9,59.6826264144,
./basicStim/34M_FE_O.jpg,,0,47,47,72,,,,,,,,,,,None,None,FEA,1.613,None,None,None,None,,,,,,,,,,,,,,,2015_Sep_20_1229,A,facesParametric,9,59.6826264144,
./basicStim/09F_NE_C.jpg,,0,48,48,41,,,,,,,,,,,None,None,None,None,None,None,NTR,1.999,,,,,,,,,,,,,,,2015_Sep_20_1229,A,facesParametric,9,59.6826264144,
./basicStim/28M_AN_O.jpg,,0,49,49,63,,,,,,,,,,,None,None,FEA,4.867,None,None,None,None,,,,,,,,,,,,,,,2015_Sep_20_1229,A,facesParametric,9,59.6826264144,
./basicStim/23M_HA_O.jpg,,0,50,50,52,,,,,,,,,,,HAP,2.115,None,None,None,None,None,None,,,,,,,,,,,,,,,2015_Sep_20_1229,A,facesParametric,9,59.6826264144,
./basicStim/34M_SA_C.jpg,,0,51,51,74,,,,,,,,,,,SAD,2.42,None,None,None,None,None,None,,,,,,,,,,,,,,,2015_Sep_20_1229,A,facesParametric,9,59.6826264144,
./basicStim/34M_SP_O.jpg,,0,52,52,75,,,,,,,,,,,None,None,None,None,SUP,2.81,None,None,,,,,,,,,,,,,,,2015_Sep_20_1229,A,facesParametric,9,59.6826264144,
./basicStim/07F_SA_C.jpg,,0,53,53,32,,,,,,,,,,,SAD,1.966,None,None,None,None,None,None,,,,,,,,,,,,,,,2015_Sep_20_1229,A,facesParametric,9,59.6826264144,
./basicStim/36M_AN_O.jpg,,0,54,54,77,,,,,,,,,,,None,None,ANG,1.425,None,None,None,None,,,,,,,,,,,,,,,2015_Sep_20_1229,A,facesParametric,9,59.6826264144,
./basicStim/21M_FE_O.jpg,,0,55,55,44,,,,,,,,,,,None,None,FEA,2.318,None,None,None,None,,,,,,,,,,,,,,,2015_Sep_20_1229,A,facesParametric,9,59.6826264144,
./basicStim/02F_SP_O.jpg,,0,56,56,12,,,,,,,,,,,None,None,FEA,1.618,None,None,None,None,,,,,,,,,,,,,,,2015_Sep_20_1229,A,facesParametric,9,59.6826264144,
./basicStim/09F_FE_O.jpg,,0,57,57,37,,,,,,,,,,,None,None,FEA,0.949,None,None,None,None,,,,,,,,,,,,,,,2015_Sep_20_1229,A,facesParametric,9,59.6826264144,
./basicStim/34M_DI_O.jpg,,0,58,58,71,,,,,,,,,,,None,None,None,None,DIS,3.522,None,None,,,,,,,,,,,,,,,2015_Sep_20_1229,A,facesParametric,9,59.6826264144,
./basicStim/23M_NE_C.jpg,,0,59,59,55,,,,,,,,,,,None,None,None,None,None,None,NTR,1.037,,,,,,,,,,,,,,,2015_Sep_20_1229,A,facesParametric,9,59.6826264144,
./basicStim/06F_HA_O.jpg,,0,60,60,24,,,,,,,,,,,HAP,2.266,None,None,None,None,None,None,,,,,,,,,,,,,,,2015_Sep_20_1229,A,facesParametric,9,59.6826264144,
./basicStim/24M_HA_O.jpg,,0,61,61,59,,,,,,,,,,,HAP,0.843,None,None,None,None,None,None,,,,,,,,,,,,,,,2015_Sep_20_1229,A,facesParametric,9,59.6826264144,
./basicStim/06F_AN_O.jpg,,0,62,62,21,,,,,,,,,,,None,None,ANG,2.792,None,None,None,None,,,,,,,,,,,,,,,2015_Sep_20_1229,A,facesParametric,9,59.6826264144,
./basicStim/07F_SP_O.jpg,,0,63,63,33,,,,,,,,,,,None,None,None,None,SUP,2.54,None,None,,,,,,,,,,,,,,,2015_Sep_20_1229,A,facesParametric,9,59.6826264144,
./basicStim/03F_FE_O.jpg,,0,64,64,16,,,,,,,,,,,None,None,FEA,1.461,None,None,None,None,,,,,,,,,,,,,,,2015_Sep_20_1229,A,facesParametric,9,59.6826264144,
./basicStim/21M_HA_O.jpg,,0,65,65,45,,,,,,,,,,,HAP,1.565,None,None,None,None,None,None,,,,,,,,,,,,,,,2015_Sep_20_1229,A,facesParametric,9,59.6826264144,
./basicStim/24M_SA_C.jpg,,0,66,66,60,,,,,,,,,,,SAD,1.299,None,None,None,None,None,None,,,,,,,,,,,,,,,2015_Sep_20_1229,A,facesParametric,9,59.6826264144,
./basicStim/01F_SP_O.jpg,,0,67,67,5,,,,,,,,,,,None,None,None,None,SUP,1.439,None,None,,,,,,,,,,,,,,,2015_Sep_20_1229,A,facesParametric,9,59.6826264144,
./basicStim/34M_AN_O.jpg,,0,68,68,70,,,,,,,,,,,None,None,ANG,1.026,None,None,None,None,,,,,,,,,,,,,,,2015_Sep_20_1229,A,facesParametric,9,59.6826264144,
./basicStim/07F_NE_C.jpg,,0,69,69,34,,,,,,,,,,,None,None,None,None,None,None,NTR,1.506,,,,,,,,,,,,,,,2015_Sep_20_1229,A,facesParametric,9,59.6826264144,
./basicStim/24M_AN_O.jpg,,0,70,70,56,,,,,,,,,,,None,None,ANG,1.728,None,None,None,None,,,,,,,,,,,,,,,2015_Sep_20_1229,A,facesParametric,9,59.6826264144,
./basicStim/23M_DI_O.jpg,,0,71,71,50,,,,,,,,,,,SAD,1.161,None,None,None,None,None,None,,,,,,,,,,,,,,,2015_Sep_20_1229,A,facesParametric,9,59.6826264144,
./basicStim/01F_SA_C.jpg,,0,72,72,4,,,,,,,,,,,SAD,1.113,None,None,None,None,None,None,,,,,,,,,,,,,,,2015_Sep_20_1229,A,facesParametric,9,59.6826264144,
./basicStim/36M_HA_O.jpg,,0,73,73,80,,,,,,,,,,,HAP,2.19,None,None,None,None,None,None,,,,,,,,,,,,,,,2015_Sep_20_1229,A,facesParametric,9,59.6826264144,
./basicStim/07F_AN_O.jpg,,0,74,74,28,,,,,,,,,,,None,None,ANG,3.288,None,None,None,None,,,,,,,,,,,,,,,2015_Sep_20_1229,A,facesParametric,9,59.6826264144,
./basicStim/02F_NE_C.jpg,,0,75,75,13,,,,,,,,,,,None,None,None,None,None,None,NTR,1.212,,,,,,,,,,,,,,,2015_Sep_20_1229,A,facesParametric,9,59.6826264144,
./basicStim/02F_AN_O.jpg,,0,76,76,7,,,,,,,,,,,None,None,ANG,2.403,None,None,None,None,,,,,,,,,,,,,,,2015_Sep_20_1229,A,facesParametric,9,59.6826264144,
./basicStim/36M_SA_C.jpg,,0,77,77,81,,,,,,,,,,,SAD,3.758,None,None,None,None,None,None,,,,,,,,,,,,,,,2015_Sep_20_1229,A,facesParametric,9,59.6826264144,
./basicStim/21M_SP_O.jpg,,0,78,78,47,,,,,,,,,,,None,None,None,None,SUP,4.702,None,None,,,,,,,,,,,,,,,2015_Sep_20_1229,A,facesParametric,9,59.6826264144,
./basicStim/02F_HA_O.jpg,,0,79,79,10,,,,,,,,,,,HAP,1.278,None,None,None,None,None,None,,,,,,,,,,,,,,,2015_Sep_20_1229,A,facesParametric,9,59.6826264144,
./basicStim/03F_AN_O.jpg,,0,80,80,14,,,,,,,,,,,None,None,ANG,2.952,None,None,None,None,,,,,,,,,,,,,,,2015_Sep_20_1229,A,facesParametric,9,59.6826264144,
./basicStim/36M_FE_O.jpg,,0,81,81,79,,,,,,,,,,,SAD,4.128,None,None,None,None,None,None,,,,,,,,,,,,,,,2015_Sep_20_1229,A,facesParametric,9,59.6826264144,
./basicStim/36M_NE_C.jpg,,0,82,82,83,,,,,,,,,,,None,None,None,None,None,None,NTR,2.921,,,,,,,,,,,,,,,2015_Sep_20_1229,A,facesParametric,9,59.6826264144,
./basicStim/21M_DI_O.jpg,,0,83,83,43,,,,,,,,,,,None,None,None,None,DIS,4.49,None,None,,,,,,,,,,,,,,,2015_Sep_20_1229,A,facesParametric,9,59.6826264144,
,,,,,,,,,,,,,,,,,,,,,,,,return,13.710958004,,,,,,,,,,,,,2015_Sep_20_1229,A,facesParametric,9,59.6826264144,
,,,,,,,,,,,,,,return,15.4018008709,,,,,,,,,,,,,,,,,,,,,,,2015_Sep_20_1229,A,facesParametric,9,59.6826264144,
,,,,,,,,,,,,,,,,,,,,,,,,return,9.23442101479,,,,,,,,,,,,,2015_Sep_20_1229,A,facesParametric,9,59.6826264144,
,,,,,,,,,,,,,,,,,,,,,,,,,,return,2.36315917969,,,,,,,,,,,2015_Sep_20_1229,A,facesParametric,9,59.6826264144,
./stim/MorphM9_07_orig.jpg,0,,,,,0,0,0,0,,,,,,,,,,,,,,,,,,,-23.4375,-6.15234375,0,0,1,3.11843395233,,,,,2015_Sep_20_1229,A,facesParametric,9,59.6826264144,
./stim/MorphM10_05_orig.jpg,1,,,,,0,1,1,1,,,,,,,,,,,,,,,,,,,-22.265625,-5.712890625,1,0,0,3.51531004906,,,,,2015_Sep_20_1229,A,facesParametric,9,59.6826264144,
./stim/MorphM2_07_orig.jpg,2,,,,,0,2,2,2,,,,,,,,,,,,,,,,,,,-21.533203125,-6.240234375,1,0,0,3.03241491318,,,,,2015_Sep_20_1229,A,facesParametric,9,59.6826264144,
./stim/MorphF5_06_orig.jpg,3,,,,,0,3,3,3,,,,,,,,,,,,,,,,,,,-21.38671875,-7.1484375,1,0,0,3.233273983,,,,,2015_Sep_20_1229,A,facesParametric,9,59.6826264144,
./stim/MorphM3_09_orig.jpg,4,,,,,0,4,4,4,,,,,,,,,,,,,,,,,,,-21.767578125,-7.412109375,0,0,1,1.05355000496,,,,,2015_Sep_20_1229,A,facesParametric,9,59.6826264144,
./stim/MorphF9_04_orig.jpg,5,,,,,0,5,5,5,,,,,,,,,,,,,,,,,,,-22.44140625,-7.587890625,0,0,1,3.13206195831,,,,,2015_Sep_20_1229,A,facesParametric,9,59.6826264144,
./stim/MorphM3_04_orig.jpg,6,,,,,0,6,6,6,,,,,,,,,,,,,,,,,,,-22.32421875,-7.470703125,0,0,1,1.7932100296,,,,,2015_Sep_20_1229,A,facesParametric,9,59.6826264144,
./stim/MorphF10_00_orig.jpg,7,,,,,0,7,7,7,,,,,,,,,,,,,,,,,,,-22.03125,-7.529296875,1,0,0,1.35320115089,,,,,2015_Sep_20_1229,A,facesParametric,9,59.6826264144,
./stim/MorphF6_01_orig.jpg,8,,,,,0,8,8,8,,,,,,,,,,,,,,,,,,,-21.6796875,-7.6171875,1,0,0,0.901646137238,,,,,2015_Sep_20_1229,A,facesParametric,9,59.6826264144,
./stim/MorphF1_01_orig.jpg,9,,,,,0,9,9,9,,,,,,,,,,,,,,,,,,,-21.6796875,-7.705078125,1,0,0,1.08820199966,,,,,2015_Sep_20_1229,A,facesParametric,9,59.6826264144,
./stim/MorphM3_07_orig.jpg,10,,,,,0,10,10,10,,,,,,,,,,,,,,,,,,,-21.50390625,-7.5,0,0,1,4.55774092674,,,,,2015_Sep_20_1229,A,facesParametric,9,59.6826264144,
./stim/MorphF7_08_orig.jpg,11,,,,,0,11,11,11,,,,,,,,,,,,,,,,,,,-21.533203125,-7.587890625,0,0,1,1.20507907867,,,,,2015_Sep_20_1229,A,facesParametric,9,59.6826264144,
./stim/MorphM7_07_orig.jpg,12,,,,,0,12,12,12,,,,,,,,,,,,,,,,,,,-21.474609375,-7.67578125,0,0,1,0.7851998806,,,,,2015_Sep_20_1229,A,facesParametric,9,59.6826264144,
./stim/MorphM9_04_orig.jpg,13,,,,,0,13,13,13,,,,,,,,,,,,,,,,,,,-21.357421875,-7.705078125,1,0,0,1.27072501183,,,,,2015_Sep_20_1229,A,facesParametric,9,59.6826264144,
./stim/MorphF7_02_orig.jpg,14,,,,,0,14,14,14,,,,,,,,,,,,,,,,,,,-21.2109375,-7.822265625,1,0,0,1.3062710762,,,,,2015_Sep_20_1229,A,facesParametric,9,59.6826264144,
./stim/MorphM4_02_orig.jpg,15,,,,,0,15,15,15,,,,,,,,,,,,,,,,,,,-20.91796875,-7.79296875,1,0,0,5.21083402634,,,,,2015_Sep_20_1229,A,facesParametric,9,59.6826264144,
./stim/MorphF2_08_orig.jpg,16,,,,,0,16,16,16,,,,,,,,,,,,,,,,,,,-20.947265625,-7.79296875,0,0,1,1.12170577049,,,,,2015_Sep_20_1229,A,facesParametric,9,59.6826264144,
./stim/MorphM10_04_orig.jpg,17,,,,,0,17,17,17,,,,,,,,,,,,,,,,,,,-20.68359375,-7.939453125,0,0,1,2.14190387726,,,,,2015_Sep_20_1229,A,facesParametric,9,59.6826264144,
./stim/MorphM6_05_orig.jpg,18,,,,,0,18,18,18,,,,,,,,,,,,,,,,,,,-20.654296875,-7.880859375,1,0,0,3.08251810074,,,,,2015_Sep_20_1229,A,facesParametric,9,59.6826264144,
./stim/MorphM5_00_orig.jpg,19,,,,,0,19,19,19,,,,,,,,,,,,,,,,,,,-20.654296875,-7.880859375,1,0,0,1.32251310349,,,,,2015_Sep_20_1229,A,facesParametric,9,59.6826264144,
./stim/MorphF1_03_orig.jpg,20,,,,,0,20,20,20,,,,,,,,,,,,,,,,,,,-20.68359375,-7.91015625,1,0,0,0.887671947479,,,,,2015_Sep_20_1229,A,facesParametric,9,59.6826264144,
./stim/MorphF5_05_orig.jpg,21,,,,,0,21,21,21,,,,,,,,,,,,,,,,,,,-20.68359375,-7.939453125,1,0,0,0.936809062958,,,,,2015_Sep_20_1229,A,facesParametric,9,59.6826264144,
./stim/MorphM10_02_orig.jpg,22,,,,,0,22,22,22,,,,,,,,,,,,,,,,,,,-20.859375,-7.6171875,1,0,0,3.2505710125,,,,,2015_Sep_20_1229,A,facesParametric,9,59.6826264144,
./stim/MorphM8_08_orig.jpg,23,,,,,0,23,23,23,,,,,,,,,,,,,,,,,,,-20.859375,-7.6171875,0,0,1,0.886856079102,,,,,2015_Sep_20_1229,A,facesParametric,9,59.6826264144,
./stim/MorphF3_05_orig.jpg,24,,,,,0,24,24,24,,,,,,,,,,,,,,,,,,,-20.9765625,-7.67578125,1,0,0,1.18831801414,,,,,2015_Sep_20_1229,A,facesParametric,9,59.6826264144,
./stim/MorphM8_07_orig.jpg,25,,,,,0,25,25,25,,,,,,,,,,,,,,,,,,,-21.005859375,-7.79296875,0,0,1,1.45712804794,,,,,2015_Sep_20_1229,A,facesParametric,9,59.6826264144,
./stim/MorphF4_01_orig.jpg,26,,,,,0,26,26,26,,,,,,,,,,,,,,,,,,,-20.91796875,-7.705078125,1,0,0,2.49522686005,,,,,2015_Sep_20_1229,A,facesParametric,9,59.6826264144,
./stim/MorphM10_00_orig.jpg,27,,,,,0,27,27,27,,,,,,,,,,,,,,,,,,,-20.80078125,-7.6171875,1,0,0,1.1044049263,,,,,2015_Sep_20_1229,A,facesParametric,9,59.6826264144,
./stim/MorphM8_09_orig.jpg,28,,,,,0,28,28,28,,,,,,,,,,,,,,,,,,,-20.771484375,-7.587890625,0,0,1,0.903652906418,,,,,2015_Sep_20_1229,A,facesParametric,9,59.6826264144,
./stim/MorphM2_01_orig.jpg,29,,,,,0,29,29,29,,,,,,,,,,,,,,,,,,,-20.7421875,-7.55859375,1,0,0,1.43876099586,,,,,2015_Sep_20_1229,A,facesParametric,9,59.6826264144,
./stim/MorphM6_03_orig.jpg,30,,,,,0,30,30,30,,,,,,,,,,,,,,,,,,,-20.9765625,-7.6171875,1,0,0,8.99925804138,,,,,2015_Sep_20_1229,A,facesParametric,9,59.6826264144,
./stim/MorphM8_03_orig.jpg,31,,,,,0,31,31,31,,,,,,,,,,,,,,,,,,,-20.888671875,-7.734375,0,0,1,2.00968003273,,,,,2015_Sep_20_1229,A,facesParametric,9,59.6826264144,
./stim/MorphF2_01_orig.jpg,32,,,,,0,32,32,32,,,,,,,,,,,,,,,,,,,-20.91796875,-7.880859375,0,0,1,1.74032115936,,,,,2015_Sep_20_1229,A,facesParametric,9,59.6826264144,
./stim/MorphM9_01_orig.jpg,33,,,,,0,33,33,33,,,,,,,,,,,,,,,,,,,-20.80078125,-7.79296875,1,0,0,1.23779606819,,,,,2015_Sep_20_1229,A,facesParametric,9,59.6826264144,
./stim/MorphF4_09_orig.jpg,34,,,,,0,34,34,34,,,,,,,,,,,,,,,,,,,-20.888671875,-7.8515625,0,0,1,1.17090392113,,,,,2015_Sep_20_1229,A,facesParametric,9,59.6826264144,
./stim/MorphM3_05_orig.jpg,35,,,,,0,35,35,35,,,,,,,,,,,,,,,,,,,-21.005859375,-7.998046875,0,0,1,1.13910484314,,,,,2015_Sep_20_1229,A,facesParametric,9,59.6826264144,
./stim/MorphM8_02_orig.jpg,36,,,,,0,36,36,36,,,,,,,,,,,,,,,,,,,-20.859375,-7.880859375,0,0,1,4.40387415886,,,,,2015_Sep_20_1229,A,facesParametric,9,59.6826264144,
./stim/MorphF8_09_orig.jpg,37,,,,,0,37,37,37,,,,,,,,,,,,,,,,,,,-20.888671875,-8.056640625,0,0,1,0.9180560112,,,,,2015_Sep_20_1229,A,facesParametric,9,59.6826264144,
./stim/MorphM7_08_orig.jpg,38,,,,,0,38,38,38,,,,,,,,,,,,,,,,,,,-21.123046875,-8.203125,0,0,1,0.736407995224,,,,,2015_Sep_20_1229,A,facesParametric,9,59.6826264144,
./stim/MorphM8_10_orig.jpg,39,,,,,0,39,39,39,,,,,,,,,,,,,,,,,,,-21.005859375,-8.26171875,1,0,0,0.987232923508,,,,,2015_Sep_20_1229,A,facesParametric,9,59.6826264144,
./stim/MorphF7_06_orig.jpg,40,,,,,0,40,40,40,,,,,,,,,,,,,,,,,,,-20.91796875,-8.26171875,0,0,1,4.70623016357,,,,,2015_Sep_20_1229,A,facesParametric,9,59.6826264144,
./stim/MorphF9_06_orig.jpg,41,,,,,0,41,41,41,,,,,,,,,,,,,,,,,,,-20.9765625,-8.26171875,0,0,1,1.27273893356,,,,,2015_Sep_20_1229,A,facesParametric,9,59.6826264144,
./stim/MorphF6_06_orig.jpg,42,,,,,0,42,42,42,,,,,,,,,,,,,,,,,,,-20.859375,-8.291015625,0,0,1,0.903336048126,,,,,2015_Sep_20_1229,A,facesParametric,9,59.6826264144,
./stim/MorphM7_10_orig.jpg,43,,,,,0,43,43,43,,,,,,,,,,,,,,,,,,,-20.859375,-8.291015625,0,0,1,0.717102050781,,,,,2015_Sep_20_1229,A,facesParametric,9,59.6826264144,
./stim/MorphF3_01_orig.jpg,44,,,,,0,44,44,44,,,,,,,,,,,,,,,,,,,-20.7421875,-8.232421875,1,0,0,1.79305696487,,,,,2015_Sep_20_1229,A,facesParametric,9,59.6826264144,
./stim/MorphM7_06_orig.jpg,45,,,,,0,45,45,45,,,,,,,,,,,,,,,,,,,-20.7421875,-8.232421875,0,0,1,0.970259904861,,,,,2015_Sep_20_1229,A,facesParametric,9,59.6826264144,
./stim/MorphM9_03_orig.jpg,46,,,,,0,46,46,46,,,,,,,,,,,,,,,,,,,-20.7421875,-8.232421875,1,0,0,1.70764493942,,,,,2015_Sep_20_1229,A,facesParametric,9,59.6826264144,
./stim/MorphF7_10_orig.jpg,47,,,,,0,47,47,47,,,,,,,,,,,,,,,,,,,-20.68359375,-8.232421875,0,0,1,1.03813195229,,,,,2015_Sep_20_1229,A,facesParametric,9,59.6826264144,
./stim/MorphF4_03_orig.jpg,48,,,,,0,48,48,48,,,,,,,,,,,,,,,,,,,-20.771484375,-8.232421875,1,0,0,5.94706392288,,,,,2015_Sep_20_1229,A,facesParametric,9,59.6826264144,
./stim/MorphF7_04_orig.jpg,49,,,,,0,49,49,49,,,,,,,,,,,,,,,,,,,-20.859375,-8.203125,1,0,0,1.60764598846,,,,,2015_Sep_20_1229,A,facesParametric,9,59.6826264144,
./stim/MorphM10_10_orig.jpg,50,,,,,0,50,50,50,,,,,,,,,,,,,,,,,,,-20.7421875,-8.26171875,0,0,1,0.92004609108,,,,,2015_Sep_20_1229,A,facesParametric,9,59.6826264144,
./stim/MorphM3_01_orig.jpg,51,,,,,0,51,51,51,,,,,,,,,,,,,,,,,,,-20.888671875,-8.14453125,0,0,1,1.10413002968,,,,,2015_Sep_20_1229,A,facesParametric,9,59.6826264144,
./stim/MorphM2_04_orig.jpg,52,,,,,0,52,52,52,,,,,,,,,,,,,,,,,,,-20.859375,-8.14453125,1,0,0,3.58529996872,,,,,2015_Sep_20_1229,A,facesParametric,9,59.6826264144,
./stim/MorphF1_04_orig.jpg,53,,,,,0,53,53,53,,,,,,,,,,,,,,,,,,,-20.712890625,-8.232421875,1,0,0,1.13770389557,,,,,2015_Sep_20_1229,A,facesParametric,9,59.6826264144,
./stim/MorphM4_01_orig.jpg,54,,,,,0,54,54,54,,,,,,,,,,,,,,,,,,,-20.68359375,-8.232421875,1,0,0,1.06949996948,,,,,2015_Sep_20_1229,A,facesParametric,9,59.6826264144,
./stim/MorphF7_01_orig.jpg,55,,,,,0,55,55,55,,,,,,,,,,,,,,,,,,,-20.654296875,-8.203125,1,0,0,1.1533510685,,,,,2015_Sep_20_1229,A,facesParametric,9,59.6826264144,
./stim/MorphF2_09_orig.jpg,56,,,,,0,56,56,56,,,,,,,,,,,,,,,,,,,-20.68359375,-8.203125,0,0,1,0.785882949829,,,,,2015_Sep_20_1229,A,facesParametric,9,59.6826264144,
./stim/MorphM1_02_orig.jpg,57,,,,,0,57,57,57,,,,,,,,,,,,,,,,,,,-20.68359375,-8.232421875,1,0,0,1.55525016785,,,,,2015_Sep_20_1229,A,facesParametric,9,59.6826264144,
./stim/MorphM6_01_orig.jpg,58,,,,,0,58,58,58,,,,,,,,,,,,,,,,,,,-20.7421875,-8.26171875,1,0,0,1.87610983849,,,,,2015_Sep_20_1229,A,facesParametric,9,59.6826264144,
./stim/MorphF5_09_orig.jpg,59,,,,,0,59,59,59,,,,,,,,,,,,,,,,,,,-20.771484375,-8.291015625,0,0,1,2.29223299026,,,,,2015_Sep_20_1229,A,facesParametric,9,59.6826264144,
./stim/MorphF3_02_orig.jpg,60,,,,,0,60,60,60,,,,,,,,,,,,,,,,,,,-20.80078125,-8.291015625,0,0,1,1.42153096199,,,,,2015_Sep_20_1229,A,facesParametric,9,59.6826264144,
./stim/MorphF5_07_orig.jpg,61,,,,,0,61,61,61,,,,,,,,,,,,,,,,,,,-20.80078125,-8.291015625,0,0,1,1.59062409401,,,,,2015_Sep_20_1229,A,facesParametric,9,59.6826264144,
./stim/MorphM9_05_orig.jpg,62,,,,,0,62,62,62,,,,,,,,,,,,,,,,,,,-20.7421875,-8.291015625,0,0,1,3.04915499687,,,,,2015_Sep_20_1229,A,facesParametric,9,59.6826264144,
./stim/MorphF8_03_orig.jpg,63,,,,,0,63,63,63,,,,,,,,,,,,,,,,,,,-20.888671875,-8.3203125,1,0,0,2.44601607323,,,,,2015_Sep_20_1229,A,facesParametric,9,59.6826264144,
./stim/MorphM7_03_orig.jpg,64,,,,,0,64,64,64,,,,,,,,,,,,,,,,,,,-20.859375,-8.291015625,0,0,1,1.27076005936,,,,,2015_Sep_20_1229,A,facesParametric,9,59.6826264144,
./stim/MorphF2_00_orig.jpg,65,,,,,0,65,65,65,,,,,,,,,,,,,,,,,,,-20.859375,-8.349609375,1,0,0,2.15927410126,,,,,2015_Sep_20_1229,A,facesParametric,9,59.6826264144,
./stim/MorphM1_00_orig.jpg,66,,,,,0,66,66,66,,,,,,,,,,,,,,,,,,,-20.7421875,-8.349609375,1,0,0,0.987260103226,,,,,2015_Sep_20_1229,A,facesParametric,9,59.6826264144,
./stim/MorphF3_00_orig.jpg,67,,,,,0,67,67,67,,,,,,,,,,,,,,,,,,,-20.712890625,-8.37890625,1,0,0,0.819612979889,,,,,2015_Sep_20_1229,A,facesParametric,9,59.6826264144,
./stim/MorphM4_03_orig.jpg,68,,,,,0,68,68,68,,,,,,,,,,,,,,,,,,,-20.712890625,-8.349609375,1,0,0,0.887324094772,,,,,2015_Sep_20_1229,A,facesParametric,9,59.6826264144,
./stim/MorphF4_07_orig.jpg,69,,,,,0,69,69,69,,,,,,,,,,,,,,,,,,,-20.68359375,-8.232421875,1,0,0,2.71212315559,,,,,2015_Sep_20_1229,A,facesParametric,9,59.6826264144,
./stim/MorphM5_09_orig.jpg,70,,,,,0,70,70,70,,,,,,,,,,,,,,,,,,,-20.654296875,-8.203125,0,0,1,1.05338096619,,,,,2015_Sep_20_1229,A,facesParametric,9,59.6826264144,
./stim/MorphF3_07_orig.jpg,71,,,,,0,71,71,71,,,,,,,,,,,,,,,,,,,-20.888671875,-8.232421875,0,0,1,1.77543902397,,,,,2015_Sep_20_1229,A,facesParametric,9,59.6826264144,
./stim/MorphF1_10_orig.jpg,72,,,,,0,72,72,72,,,,,,,,,,,,,,,,,,,-20.9765625,-8.26171875,0,0,1,1.47257995605,,,,,2015_Sep_20_1229,A,facesParametric,9,59.6826264144,
./stim/MorphM3_08_orig.jpg,73,,,,,0,73,73,73,,,,,,,,,,,,,,,,,,,-21.123046875,-8.349609375,0,0,1,1.00468611717,,,,,2015_Sep_20_1229,A,facesParametric,9,59.6826264144,
./stim/MorphM2_03_orig.jpg,74,,,,,0,74,74,74,,,,,,,,,,,,,,,,,,,-21.03515625,-8.37890625,1,0,0,1.45438098907,,,,,2015_Sep_20_1229,A,facesParametric,9,59.6826264144,
./stim/MorphF3_10_orig.jpg,75,,,,,0,75,75,75,,,,,,,,,,,,,,,,,,,-21.03515625,-8.4375,0,0,1,0.853473901749,,,,,2015_Sep_20_1229,A,facesParametric,9,59.6826264144,
./stim/MorphF5_02_orig.jpg,76,,,,,0,76,76,76,,,,,,,,,,,,,,,,,,,-21.09375,-8.349609375,0,0,1,2.69688987732,,,,,2015_Sep_20_1229,A,facesParametric,9,59.6826264144,
./stim/MorphF3_06_orig.jpg,77,,,,,0,77,77,77,,,,,,,,,,,,,,,,,,,-21.005859375,-8.37890625,0,0,1,1.17233800888,,,,,2015_Sep_20_1229,A,facesParametric,9,59.6826264144,
./stim/MorphM2_00_orig.jpg,78,,,,,0,78,78,78,,,,,,,,,,,,,,,,,,,-20.9765625,-8.3203125,1,0,0,1.13601016998,,,,,2015_Sep_20_1229,A,facesParametric,9,59.6826264144,
./stim/MorphM1_06_orig.jpg,79,,,,,0,79,79,79,,,,,,,,,,,,,,,,,,,-20.7421875,-8.26171875,1,0,0,5.39361810684,,,,,2015_Sep_20_1229,A,facesParametric,9,59.6826264144,
./stim/MorphM8_06_orig.jpg,80,,,,,0,80,80,80,,,,,,,,,,,,,,,,,,,-20.888671875,-8.583984375,0,0,1,1.37277698517,,,,,2015_Sep_20_1229,A,facesParametric,9,59.6826264144,
./stim/MorphF10_04_orig.jpg,81,,,,,0,81,81,81,,,,,,,,,,,,,,,,,,,-20.9765625,-8.408203125,0,0,1,1.85912299156,,,,,2015_Sep_20_1229,A,facesParametric,9,59.6826264144,
./stim/MorphM2_10_orig.jpg,82,,,,,0,82,82,82,,,,,,,,,,,,,,,,,,,-20.91796875,-8.349609375,0,0,1,0.902816057205,,,,,2015_Sep_20_1229,A,facesParametric,9,59.6826264144,
./stim/MorphF9_00_orig.jpg,83,,,,,0,83,83,83,,,,,,,,,,,,,,,,,,,-20.859375,-8.232421875,0,0,1,3.39865612984,,,,,2015_Sep_20_1229,A,facesParametric,9,59.6826264144,
./stim/MorphM5_07_orig.jpg,84,,,,,0,84,84,84,,,,,,,,,,,,,,,,,,,-20.859375,-8.26171875,0,0,1,1.52405405045,,,,,2015_Sep_20_1229,A,facesParametric,9,59.6826264144,
./stim/MorphF3_03_orig.jpg,85,,,,,0,85,85,85,,,,,,,,,,,,,,,,,,,-20.68359375,-8.203125,1,0,0,1.42221593857,,,,,2015_Sep_20_1229,A,facesParametric,9,59.6826264144,
./stim/MorphF4_02_orig.jpg,86,,,,,0,86,86,86,,,,,,,,,,,,,,,,,,,-20.595703125,-8.26171875,1,0,0,1.30366492271,,,,,2015_Sep_20_1229,A,facesParametric,9,59.6826264144,
./stim/MorphF6_00_orig.jpg,87,,,,,0,87,87,87,,,,,,,,,,,,,,,,,,,-20.595703125,-8.3203125,1,0,0,0.751717805862,,,,,2015_Sep_20_1229,A,facesParametric,9,59.6826264144,
./stim/MorphF4_04_orig.jpg,88,,,,,0,88,88,88,,,,,,,,,,,,,,,,,,,-20.830078125,-8.3203125,1,0,0,0.937335968018,,,,,2015_Sep_20_1229,A,facesParametric,9,59.6826264144,
./stim/MorphM7_02_orig.jpg,89,,,,,0,89,89,89,,,,,,,,,,,,,,,,,,,-20.830078125,-8.349609375,0,0,1,2.07481908798,,,,,2015_Sep_20_1229,A,facesParametric,9,59.6826264144,
./stim/MorphM3_03_orig.jpg,90,,,,,0,90,90,90,,,,,,,,,,,,,,,,,,,-20.859375,-8.37890625,0,0,1,1.05454611778,,,,,2015_Sep_20_1229,A,facesParametric,9,59.6826264144,
./stim/MorphF9_03_orig.jpg,91,,,,,0,91,91,91,,,,,,,,,,,,,,,,,,,-20.859375,-8.349609375,0,0,1,2.14371585846,,,,,2015_Sep_20_1229,A,facesParametric,9,59.6826264144,
./stim/MorphM7_05_orig.jpg,92,,,,,0,92,92,92,,,,,,,,,,,,,,,,,,,-21.09375,-8.349609375,0,0,1,1.2053630352,,,,,2015_Sep_20_1229,A,facesParametric,9,59.6826264144,
./stim/MorphM1_07_orig.jpg,93,,,,,0,93,93,93,,,,,,,,,,,,,,,,,,,-21.064453125,-8.37890625,0,0,1,2.11030101776,,,,,2015_Sep_20_1229,A,facesParametric,9,59.6826264144,
./stim/MorphM4_00_orig.jpg,94,,,,,0,94,94,94,,,,,,,,,,,,,,,,,,,-20.859375,-8.291015625,1,0,0,1.808989048,,,,,2015_Sep_20_1229,A,facesParametric,9,59.6826264144,
./stim/MorphM9_08_orig.jpg,95,,,,,0,95,95,95,,,,,,,,,,,,,,,,,,,-20.947265625,-8.349609375,0,0,1,1.20546412468,,,,,2015_Sep_20_1229,A,facesParametric,9,59.6826264144,
./stim/MorphF6_02_orig.jpg,96,,,,,0,96,96,96,,,,,,,,,,,,,,,,,,,-20.830078125,-8.14453125,0,0,1,5.73068618774,,,,,2015_Sep_20_1229,A,facesParametric,9,59.6826264144,
./stim/MorphF7_09_orig.jpg,97,,,,,0,97,97,97,,,,,,,,,,,,,,,,,,,-20.859375,-8.056640625,0,0,1,2.68026614189,,,,,2015_Sep_20_1229,A,facesParametric,9,59.6826264144,
./stim/MorphM2_08_orig.jpg,98,,,,,0,98,98,98,,,,,,,,,,,,,,,,,,,-20.91796875,-7.998046875,0,0,1,1.08641982079,,,,,2015_Sep_20_1229,A,facesParametric,9,59.6826264144,
./stim/MorphM6_09_orig.jpg,99,,,,,0,99,99,99,,,,,,,,,,,,,,,,,,,-20.91796875,-7.998046875,0,0,1,1.18866682053,,,,,2015_Sep_20_1229,A,facesParametric,9,59.6826264144,
./stim/MorphF2_10_orig.jpg,100,,,,,0,100,100,100,,,,,,,,,,,,,,,,,,,-21.005859375,-7.96875,0,0,1,0.852243185043,,,,,2015_Sep_20_1229,A,facesParametric,9,59.6826264144,
./stim/MorphF10_07_orig.jpg,101,,,,,0,101,101,101,,,,,,,,,,,,,,,,,,,-21.064453125,-7.96875,0,0,1,0.853761911392,,,,,2015_Sep_20_1229,A,facesParametric,9,59.6826264144,
./stim/MorphM5_04_orig.jpg,102,,,,,0,102,102,102,,,,,,,,,,,,,,,,,,,-21.064453125,-7.96875,0,0,1,1.52363395691,,,,,2015_Sep_20_1229,A,facesParametric,9,59.6826264144,
./stim/MorphF8_05_orig.jpg,103,,,,,0,103,103,103,,,,,,,,,,,,,,,,,,,-21.123046875,-7.96875,0,0,1,1.30625700951,,,,,2015_Sep_20_1229,A,facesParametric,9,59.6826264144,
./stim/MorphF2_03_orig.jpg,104,,,,,0,104,104,104,,,,,,,,,,,,,,,,,,,-21.123046875,-7.939453125,0,0,1,2.36224293709,,,,,2015_Sep_20_1229,A,facesParametric,9,59.6826264144,
./stim/MorphM3_00_orig.jpg,105,,,,,0,105,105,105,,,,,,,,,,,,,,,,,,,-21.181640625,-7.880859375,0,0,1,1.15261793137,,,,,2015_Sep_20_1229,A,facesParametric,9,59.6826264144,
./stim/MorphM5_08_orig.jpg,106,,,,,0,106,106,106,,,,,,,,,,,,,,,,,,,-21.15234375,-7.8515625,0,0,1,1.07158613205,,,,,2015_Sep_20_1229,A,facesParametric,9,59.6826264144,
./stim/MorphM10_01_orig.jpg,107,,,,,0,107,107,107,,,,,,,,,,,,,,,,,,,-20.947265625,-7.763671875,1,0,0,1.54031610489,,,,,2015_Sep_20_1229,A,facesParametric,9,59.6826264144,
./stim/MorphF2_05_orig.jpg,108,,,,,0,108,108,108,,,,,,,,,,,,,,,,,,,-20.888671875,-7.734375,0,0,1,1.92594790459,,,,,2015_Sep_20_1229,A,facesParametric,9,59.6826264144,
./stim/MorphF7_03_orig.jpg,109,,,,,0,109,109,109,,,,,,,,,,,,,,,,,,,-20.91796875,-7.734375,1,0,0,1.59118509293,,,,,2015_Sep_20_1229,A,facesParametric,9,59.6826264144,
./stim/MorphM4_06_orig.jpg,110,,,,,0,110,110,110,,,,,,,,,,,,,,,,,,,-20.859375,-7.705078125,0,0,1,1.44006204605,,,,,2015_Sep_20_1229,A,facesParametric,9,59.6826264144,
./stim/MorphM9_06_orig.jpg,111,,,,,0,111,111,111,,,,,,,,,,,,,,,,,,,-20.91796875,-7.734375,0,0,1,1.50487303734,,,,,2015_Sep_20_1229,A,facesParametric,9,59.6826264144,
./stim/MorphF9_10_orig.jpg,112,,,,,0,112,112,112,,,,,,,,,,,,,,,,,,,-20.9765625,-7.705078125,0,0,1,1.22223091125,,,,,2015_Sep_20_1229,A,facesParametric,9,59.6826264144,
./stim/MorphF10_08_orig.jpg,113,,,,,0,113,113,113,,,,,,,,,,,,,,,,,,,-21.03515625,-7.705078125,0,0,1,1.20369315147,,,,,2015_Sep_20_1229,A,facesParametric,9,59.6826264144,
./stim/MorphF5_01_orig.jpg,114,,,,,0,114,114,114,,,,,,,,,,,,,,,,,,,-21.09375,-7.294921875,1,0,0,1.85884904861,,,,,2015_Sep_20_1229,A,facesParametric,9,59.6826264144,
./stim/MorphF8_06_orig.jpg,115,,,,,0,115,115,115,,,,,,,,,,,,,,,,,,,-21.328125,-7.265625,0,0,1,2.04335713387,,,,,2015_Sep_20_1229,A,facesParametric,9,59.6826264144,
./stim/MorphF2_06_orig.jpg,116,,,,,0,116,116,116,,,,,,,,,,,,,,,,,,,-21.357421875,-7.119140625,0,0,1,7.10381007195,,,,,2015_Sep_20_1229,A,facesParametric,9,59.6826264144,
./stim/MorphF10_01_orig.jpg,117,,,,,0,117,117,117,,,,,,,,,,,,,,,,,,,-21.357421875,-7.119140625,1,0,0,1.13863611221,,,,,2015_Sep_20_1229,A,facesParametric,9,59.6826264144,
./stim/MorphM7_04_orig.jpg,118,,,,,0,118,118,118,,,,,,,,,,,,,,,,,,,-21.416015625,-7.119140625,0,0,1,1.1888320446,,,,,2015_Sep_20_1229,A,facesParametric,9,59.6826264144,
./stim/MorphM2_05_orig.jpg,119,,,,,0,119,119,119,,,,,,,,,,,,,,,,,,,-21.4453125,-7.119140625,0,0,1,0.952850103378,,,,,2015_Sep_20_1229,A,facesParametric,9,59.6826264144,
./stim/MorphF9_05_orig.jpg,120,,,,,0,120,120,120,,,,,,,,,,,,,,,,,,,-21.26953125,-7.001953125,0,0,1,6.53519797325,,,,,2015_Sep_20_1229,A,facesParametric,9,59.6826264144,
./stim/MorphM6_08_orig.jpg,121,,,,,0,121,121,121,,,,,,,,,,,,,,,,,,,-21.298828125,-7.001953125,0,0,1,1.50716900826,,,,,2015_Sep_20_1229,A,facesParametric,9,59.6826264144,
./stim/MorphF4_00_orig.jpg,122,,,,,0,122,122,122,,,,,,,,,,,,,,,,,,,-21.26953125,-7.03125,1,0,0,0.920205831528,,,,,2015_Sep_20_1229,A,facesParametric,9,59.6826264144,
./stim/MorphF1_09_orig.jpg,123,,,,,0,123,123,123,,,,,,,,,,,,,,,,,,,-21.240234375,-7.119140625,0,0,1,1.32170605659,,,,,2015_Sep_20_1229,A,facesParametric,9,59.6826264144,
./stim/MorphF6_09_orig.jpg,124,,,,,0,124,124,124,,,,,,,,,,,,,,,,,,,-21.298828125,-7.119140625,0,0,1,1.13765907288,,,,,2015_Sep_20_1229,A,facesParametric,9,59.6826264144,
./stim/MorphF9_07_orig.jpg,125,,,,,0,125,125,125,,,,,,,,,,,,,,,,,,,-21.38671875,-7.060546875,0,0,1,0.803313016891,,,,,2015_Sep_20_1229,A,facesParametric,9,59.6826264144,
./stim/MorphM6_10_orig.jpg,126,,,,,0,126,126,126,,,,,,,,,,,,,,,,,,,-21.38671875,-7.060546875,0,0,1,1.05462408066,,,,,2015_Sep_20_1229,A,facesParametric,9,59.6826264144,
./stim/MorphM9_10_orig.jpg,127,,,,,0,127,127,127,,,,,,,,,,,,,,,,,,,-21.416015625,-7.03125,0,0,1,1.30625319481,,,,,2015_Sep_20_1229,A,facesParametric,9,59.6826264144,
./stim/MorphM6_02_orig.jpg,128,,,,,0,128,128,128,,,,,,,,,,,,,,,,,,,-21.5625,-7.060546875,0,0,1,1.07201886177,,,,,2015_Sep_20_1229,A,facesParametric,9,59.6826264144,
./stim/MorphM5_05_orig.jpg,129,,,,,0,129,129,129,,,,,,,,,,,,,,,,,,,-21.5625,-6.97265625,0,0,1,4.52284598351,,,,,2015_Sep_20_1229,A,facesParametric,9,59.6826264144,
./stim/MorphF8_04_orig.jpg,130,,,,,0,130,130,130,,,,,,,,,,,,,,,,,,,-21.5625,-6.97265625,0,0,1,1.25609207153,,,,,2015_Sep_20_1229,A,facesParametric,9,59.6826264144,
./stim/MorphF10_09_orig.jpg,131,,,,,0,131,131,131,,,,,,,,,,,,,,,,,,,-21.6796875,-6.9140625,0,0,1,0.903534889221,,,,,2015_Sep_20_1229,A,facesParametric,9,59.6826264144,
./stim/MorphM5_03_orig.jpg,132,,,,,0,132,132,132,,,,,,,,,,,,,,,,,,,-21.6796875,-6.9140625,0,0,1,1.40570211411,,,,,2015_Sep_20_1229,A,facesParametric,9,59.6826264144,
./stim/MorphM9_00_orig.jpg,133,,,,,0,133,133,133,,,,,,,,,,,,,,,,,,,-21.5625,-6.85546875,1,0,0,1.2865960598,,,,,2015_Sep_20_1229,A,facesParametric,9,59.6826264144,
./stim/MorphF5_04_orig.jpg,134,,,,,0,134,134,134,,,,,,,,,,,,,,,,,,,-21.474609375,-6.591796875,1,0,0,1.13836503029,,,,,2015_Sep_20_1229,A,facesParametric,9,59.6826264144,
./stim/MorphF8_10_orig.jpg,135,,,,,0,135,135,135,,,,,,,,,,,,,,,,,,,-21.62109375,-6.5625,0,0,1,5.71333193779,,,,,2015_Sep_20_1229,A,facesParametric,9,59.6826264144,
./stim/MorphF7_07_orig.jpg,136,,,,,0,136,136,136,,,,,,,,,,,,,,,,,,,-21.650390625,-6.591796875,0,0,1,1.50715184212,,,,,2015_Sep_20_1229,A,facesParametric,9,59.6826264144,
./stim/MorphM5_10_orig.jpg,137,,,,,0,137,137,137,,,,,,,,,,,,,,,,,,,-21.650390625,-6.591796875,0,0,1,1.05433797836,,,,,2015_Sep_20_1229,A,facesParametric,9,59.6826264144,
./stim/MorphM9_09_orig.jpg,138,,,,,0,138,138,138,,,,,,,,,,,,,,,,,,,-21.767578125,-6.5625,0,0,1,0.904218912125,,,,,2015_Sep_20_1229,A,facesParametric,9,59.6826264144,
./stim/MorphF5_03_orig.jpg,139,,,,,0,139,139,139,,,,,,,,,,,,,,,,,,,-21.416015625,-6.38671875,1,0,0,1.17188096046,,,,,2015_Sep_20_1229,A,facesParametric,9,59.6826264144,
./stim/MorphF1_06_orig.jpg,140,,,,,0,140,140,140,,,,,,,,,,,,,,,,,,,-21.62109375,-6.474609375,0,0,1,1.28778290749,,,,,2015_Sep_20_1229,A,facesParametric,9,59.6826264144,
./stim/MorphM6_00_orig.jpg,141,,,,,0,141,141,141,,,,,,,,,,,,,,,,,,,-21.328125,-6.5625,1,0,0,1.57421302795,,,,,2015_Sep_20_1229,A,facesParametric,9,59.6826264144,
./stim/MorphF9_08_orig.jpg,142,,,,,0,142,142,142,,,,,,,,,,,,,,,,,,,-21.5625,-6.416015625,0,0,1,1.6077978611,,,,,2015_Sep_20_1229,A,facesParametric,9,59.6826264144,
./stim/MorphM7_00_orig.jpg,143,,,,,0,143,143,143,,,,,,,,,,,,,,,,,,,-21.73828125,-6.357421875,0,0,1,2.2611989975,,,,,2015_Sep_20_1229,A,facesParametric,9,59.6826264144,
./stim/MorphM1_05_orig.jpg,144,,,,,0,144,144,144,,,,,,,,,,,,,,,,,,,-21.796875,-6.2109375,1,0,0,1.84216690063,,,,,2015_Sep_20_1229,A,facesParametric,9,59.6826264144,
./stim/MorphM8_01_orig.jpg,145,,,,,0,145,145,145,,,,,,,,,,,,,,,,,,,-21.767578125,-6.240234375,0,0,1,1.22276592255,,,,,2015_Sep_20_1229,A,facesParametric,9,59.6826264144,
./stim/MorphF6_07_orig.jpg,146,,,,,0,146,146,146,,,,,,,,,,,,,,,,,,,-21.767578125,-6.2109375,0,0,1,0.968377113342,,,,,2015_Sep_20_1229,A,facesParametric,9,59.6826264144,
./stim/MorphF7_05_orig.jpg,147,,,,,0,147,147,147,,,,,,,,,,,,,,,,,,,-22.03125,-6.09375,0,0,1,1.18685889244,,,,,2015_Sep_20_1229,A,facesParametric,9,59.6826264144,
./stim/MorphM1_01_orig.jpg,148,,,,,0,148,148,148,,,,,,,,,,,,,,,,,,,-21.50390625,-5.947265625,1,0,0,1.13815784454,,,,,2015_Sep_20_1229,A,facesParametric,9,59.6826264144,
./stim/MorphF10_06_orig.jpg,149,,,,,0,149,149,149,,,,,,,,,,,,,,,,,,,-21.943359375,-5.7421875,0,0,1,1.75869989395,,,,,2015_Sep_20_1229,A,facesParametric,9,59.6826264144,
./stim/MorphM7_09_orig.jpg,150,,,,,0,150,150,150,,,,,,,,,,,,,,,,,,,-21.767578125,-5.68359375,0,0,1,1.07169795036,,,,,2015_Sep_20_1229,A,facesParametric,9,59.6826264144,
./stim/MorphM1_03_orig.jpg,151,,,,,0,151,151,151,,,,,,,,,,,,,,,,,,,-21.826171875,-5.771484375,1,0,0,1.27247095108,,,,,2015_Sep_20_1229,A,facesParametric,9,59.6826264144,
./stim/MorphF4_08_orig.jpg,152,,,,,0,152,152,152,,,,,,,,,,,,,,,,,,,-22.236328125,-5.654296875,0,0,1,2.24380493164,,,,,2015_Sep_20_1229,A,facesParametric,9,59.6826264144,
./stim/MorphM1_08_orig.jpg,153,,,,,0,153,153,153,,,,,,,,,,,,,,,,,,,-22.705078125,-5.68359375,0,0,1,3.93714904785,,,,,2015_Sep_20_1229,A,facesParametric,9,59.6826264144,
./stim/MorphM4_10_orig.jpg,154,,,,,0,154,154,154,,,,,,,,,,,,,,,,,,,-22.96875,-5.625,0,0,1,2.39305591583,,,,,2015_Sep_20_1229,A,facesParametric,9,59.6826264144,
./stim/MorphF8_08_orig.jpg,155,,,,,0,155,155,155,,,,,,,,,,,,,,,,,,,-23.02734375,-5.625,0,0,1,1.1391351223,,,,,2015_Sep_20_1229,A,facesParametric,9,59.6826264144,
./stim/MorphM4_05_orig.jpg,156,,,,,0,156,156,156,,,,,,,,,,,,,,,,,,,-23.232421875,-5.654296875,0,0,1,1.23903393745,,,,,2015_Sep_20_1229,A,facesParametric,9,59.6826264144,
./stim/MorphF6_08_orig.jpg,157,,,,,0,157,157,157,,,,,,,,,,,,,,,,,,,-23.3203125,-5.56640625,0,0,1,1.32304000854,,,,,2015_Sep_20_1229,A,facesParametric,9,59.6826264144,
./stim/MorphM1_10_orig.jpg,158,,,,,0,158,158,158,,,,,,,,,,,,,,,,,,,-23.349609375,-5.595703125,0,0,1,1.13898611069,,,,,2015_Sep_20_1229,A,facesParametric,9,59.6826264144,
./stim/MorphM4_04_orig.jpg,159,,,,,0,159,159,159,,,,,,,,,,,,,,,,,,,-23.4375,-5.595703125,0,0,1,0.9709649086,,,,,2015_Sep_20_1229,A,facesParametric,9,59.6826264144,
./stim/MorphM8_04_orig.jpg,160,,,,,0,160,160,160,,,,,,,,,,,,,,,,,,,-23.4375,-5.625,0,0,1,3.20072317123,,,,,2015_Sep_20_1229,A,facesParametric,9,59.6826264144,
./stim/MorphF4_05_orig.jpg,161,,,,,0,161,161,161,,,,,,,,,,,,,,,,,,,-23.02734375,-5.537109375,1,0,0,1.72490000725,,,,,2015_Sep_20_1229,A,facesParametric,9,59.6826264144,
./stim/MorphF9_02_orig.jpg,162,,,,,0,162,162,162,,,,,,,,,,,,,,,,,,,-23.203125,-5.56640625,1,0,0,2.21006393433,,,,,2015_Sep_20_1229,A,facesParametric,9,59.6826264144,
./stim/MorphF6_10_orig.jpg,163,,,,,0,163,163,163,,,,,,,,,,,,,,,,,,,-23.115234375,-5.56640625,0,0,1,1.03566408157,,,,,2015_Sep_20_1229,A,facesParametric,9,59.6826264144,
./stim/MorphF1_02_orig.jpg,164,,,,,0,164,164,164,,,,,,,,,,,,,,,,,,,-23.203125,-5.595703125,1,0,0,1.33968997002,,,,,2015_Sep_20_1229,A,facesParametric,9,59.6826264144,
./stim/MorphF10_03_orig.jpg,165,,,,,0,165,165,165,,,,,,,,,,,,,,,,,,,-23.4375,-5.68359375,0,0,1,1.12018299103,,,,,2015_Sep_20_1229,A,facesParametric,9,59.6826264144,
./stim/MorphF1_08_orig.jpg,166,,,,,0,166,166,166,,,,,,,,,,,,,,,,,,,-23.26171875,-5.595703125,1,0,0,1.10465121269,,,,,2015_Sep_20_1229,A,facesParametric,9,59.6826264144,
./stim/MorphM3_10_orig.jpg,167,,,,,0,167,167,167,,,,,,,,,,,,,,,,,,,-23.4375,-5.68359375,0,0,1,4.62367320061,,,,,2015_Sep_20_1229,A,facesParametric,9,59.6826264144,
./stim/MorphM10_07_orig.jpg,168,,,,,0,168,168,168,,,,,,,,,,,,,,,,,,,-23.3203125,-5.80078125,0,0,1,0.769694805145,,,,,2015_Sep_20_1229,A,facesParametric,9,59.6826264144,
./stim/MorphF6_04_orig.jpg,169,,,,,0,169,169,169,,,,,,,,,,,,,,,,,,,-23.3203125,-5.80078125,0,0,1,0.752754926682,,,,,2015_Sep_20_1229,A,facesParametric,9,59.6826264144,
./stim/MorphM8_00_orig.jpg,170,,,,,0,170,170,170,,,,,,,,,,,,,,,,,,,-23.37890625,-5.80078125,0,0,1,1.94342708588,,,,,2015_Sep_20_1229,A,facesParametric,9,59.6826264144,
./stim/MorphF8_02_orig.jpg,171,,,,,0,171,171,171,,,,,,,,,,,,,,,,,,,-23.02734375,-5.654296875,1,0,0,1.3715069294,,,,,2015_Sep_20_1229,A,facesParametric,9,59.6826264144,
./stim/MorphM6_06_orig.jpg,172,,,,,0,172,172,172,,,,,,,,,,,,,,,,,,,-23.203125,-5.625,1,0,0,3.93745493889,,,,,2015_Sep_20_1229,A,facesParametric,9,59.6826264144,
./stim/MorphM3_02_orig.jpg,173,,,,,0,173,173,173,,,,,,,,,,,,,,,,,,,-23.3203125,-5.68359375,1,0,0,4.42294216156,,,,,2015_Sep_20_1229,A,facesParametric,9,59.6826264144,
./stim/MorphF2_07_orig.jpg,174,,,,,0,174,174,174,,,,,,,,,,,,,,,,,,,-23.37890625,-5.712890625,0,0,1,1.12175703049,,,,,2015_Sep_20_1229,A,facesParametric,9,59.6826264144,
./stim/MorphF6_05_orig.jpg,175,,,,,0,175,175,175,,,,,,,,,,,,,,,,,,,-23.291015625,-5.888671875,0,0,1,1.33858990669,,,,,2015_Sep_20_1229,A,facesParametric,9,59.6826264144,
./stim/MorphM4_09_orig.jpg,176,,,,,0,176,176,176,,,,,,,,,,,,,,,,,,,-23.291015625,-5.888671875,0,0,1,1.13779091835,,,,,2015_Sep_20_1229,A,facesParametric,9,59.6826264144,
./stim/MorphF1_07_orig.jpg,177,,,,,0,177,177,177,,,,,,,,,,,,,,,,,,,-23.115234375,-5.771484375,1,0,0,1.42302703857,,,,,2015_Sep_20_1229,A,facesParametric,9,59.6826264144,
./stim/MorphM4_07_orig.jpg,178,,,,,0,178,178,178,,,,,,,,,,,,,,,,,,,-23.26171875,-5.888671875,0,0,1,1.42418193817,,,,,2015_Sep_20_1229,A,facesParametric,9,59.6826264144,
./stim/MorphF3_09_orig.jpg,179,,,,,0,179,179,179,,,,,,,,,,,,,,,,,,,-23.3203125,-5.947265625,1,0,0,1.42299294472,,,,,2015_Sep_20_1229,A,facesParametric,9,59.6826264144,
./stim/MorphM7_01_orig.jpg,180,,,,,0,180,180,180,,,,,,,,,,,,,,,,,,,-23.408203125,-5.859375,1,0,0,1.72501897812,,,,,2015_Sep_20_1229,A,facesParametric,9,59.6826264144,
./stim/MorphF10_10_orig.jpg,181,,,,,0,181,181,181,,,,,,,,,,,,,,,,,,,-23.4375,-5.91796875,0,0,1,1.10467386246,,,,,2015_Sep_20_1229,A,facesParametric,9,59.6826264144,
./stim/MorphF8_07_orig.jpg,182,,,,,0,182,182,182,,,,,,,,,,,,,,,,,,,-23.408203125,-5.91796875,0,0,1,1.44029998779,,,,,2015_Sep_20_1229,A,facesParametric,9,59.6826264144,
./stim/MorphM9_02_orig.jpg,183,,,,,0,183,183,183,,,,,,,,,,,,,,,,,,,-23.173828125,-5.68359375,1,0,0,2.71180510521,,,,,2015_Sep_20_1229,A,facesParametric,9,59.6826264144,
./stim/MorphF8_01_orig.jpg,184,,,,,0,184,184,184,,,,,,,,,,,,,,,,,,,-23.232421875,-5.7421875,1,0,0,2.76522302628,,,,,2015_Sep_20_1229,A,facesParametric,9,59.6826264144,
./stim/MorphM2_09_orig.jpg,185,,,,,0,185,185,185,,,,,,,,,,,,,,,,,,,-23.37890625,-5.859375,0,0,1,2.4108300209,,,,,2015_Sep_20_1229,A,facesParametric,9,59.6826264144,
./stim/MorphM1_04_orig.jpg,186,,,,,0,186,186,186,,,,,,,,,,,,,,,,,,,-23.02734375,-5.625,1,0,0,1.17166399956,,,,,2015_Sep_20_1229,A,facesParametric,9,59.6826264144,
./stim/MorphF10_05_orig.jpg,187,,,,,0,187,187,187,,,,,,,,,,,,,,,,,,,-23.173828125,-5.7421875,0,0,1,1.64125394821,,,,,2015_Sep_20_1229,A,facesParametric,9,59.6826264144,
./stim/MorphF5_10_orig.jpg,188,,,,,0,188,188,188,,,,,,,,,,,,,,,,,,,-23.232421875,-5.712890625,0,0,1,1.67385816574,,,,,2015_Sep_20_1229,A,facesParametric,9,59.6826264144,
./stim/MorphF7_00_orig.jpg,189,,,,,0,189,189,189,,,,,,,,,,,,,,,,,,,-23.115234375,-5.56640625,1,0,0,1.60827994347,,,,,2015_Sep_20_1229,A,facesParametric,9,59.6826264144,
./stim/MorphF3_04_orig.jpg,190,,,,,0,190,190,190,,,,,,,,,,,,,,,,,,,-23.0859375,-5.537109375,1,0,0,4.97609210014,,,,,2015_Sep_20_1229,A,facesParametric,9,59.6826264144,
./stim/MorphM10_03_orig.jpg,191,,,,,0,191,191,191,,,,,,,,,,,,,,,,,,,-22.998046875,-5.625,1,0,0,1.06979107857,,,,,2015_Sep_20_1229,A,facesParametric,9,59.6826264144,
./stim/MorphF5_08_orig.jpg,192,,,,,0,192,192,192,,,,,,,,,,,,,,,,,,,-23.02734375,-5.654296875,1,0,0,0.887001991272,,,,,2015_Sep_20_1229,A,facesParametric,9,59.6826264144,
./stim/MorphM5_06_orig.jpg,193,,,,,0,193,193,193,,,,,,,,,,,,,,,,,,,-22.998046875,-5.654296875,0,0,1,1.27294397354,,,,,2015_Sep_20_1229,A,facesParametric,9,59.6826264144,
./stim/MorphF1_05_orig.jpg,194,,,,,0,194,194,194,,,,,,,,,,,,,,,,,,,-22.998046875,-5.537109375,1,0,0,0.953794002533,,,,,2015_Sep_20_1229,A,facesParametric,9,59.6826264144,
./stim/MorphF3_08_orig.jpg,195,,,,,0,195,195,195,,,,,,,,,,,,,,,,,,,-23.02734375,-5.537109375,1,0,0,1.43989300728,,,,,2015_Sep_20_1229,A,facesParametric,9,59.6826264144,
./stim/MorphM2_02_orig.jpg,196,,,,,0,196,196,196,,,,,,,,,,,,,,,,,,,-23.0859375,-5.56640625,1,0,0,2.1771671772,,,,,2015_Sep_20_1229,A,facesParametric,9,59.6826264144,
./stim/MorphM10_09_orig.jpg,197,,,,,0,197,197,197,,,,,,,,,,,,,,,,,,,-23.115234375,-5.595703125,0,0,1,1.08808517456,,,,,2015_Sep_20_1229,A,facesParametric,9,59.6826264144,
./stim/MorphM6_07_orig.jpg,198,,,,,0,198,198,198,,,,,,,,,,,,,,,,,,,-23.02734375,-5.56640625,1,0,0,3.38328099251,,,,,2015_Sep_20_1229,A,facesParametric,9,59.6826264144,
./stim/MorphM5_01_orig.jpg,199,,,,,0,199,199,199,,,,,,,,,,,,,,,,,,,-23.02734375,-5.625,1,0,0,1.22279691696,,,,,2015_Sep_20_1229,A,facesParametric,9,59.6826264144,
./stim/MorphM10_08_orig.jpg,200,,,,,0,200,200,200,,,,,,,,,,,,,,,,,,,-23.173828125,-5.712890625,0,0,1,1.55642795563,,,,,2015_Sep_20_1229,A,facesParametric,9,59.6826264144,
./stim/MorphF5_00_orig.jpg,201,,,,,0,201,201,201,,,,,,,,,,,,,,,,,,,-23.14453125,-5.7421875,1,0,0,1.43953490257,,,,,2015_Sep_20_1229,A,facesParametric,9,59.6826264144,
./stim/MorphM8_05_orig.jpg,202,,,,,0,202,202,202,,,,,,,,,,,,,,,,,,,-23.37890625,-5.7421875,0,0,1,2.89581894875,,,,,2015_Sep_20_1229,A,facesParametric,9,59.6826264144,
./stim/MorphF4_06_orig.jpg,203,,,,,0,203,203,203,,,,,,,,,,,,,,,,,,,-23.291015625,-5.80078125,1,0,0,1.82435798645,,,,,2015_Sep_20_1229,A,facesParametric,9,59.6826264144,
./stim/MorphF1_00_orig.jpg,204,,,,,0,204,204,204,,,,,,,,,,,,,,,,,,,-23.232421875,-5.80078125,1,0,0,1.72445702553,,,,,2015_Sep_20_1229,A,facesParametric,9,59.6826264144,
./stim/MorphM5_02_orig.jpg,205,,,,,0,205,205,205,,,,,,,,,,,,,,,,,,,-23.232421875,-5.888671875,1,0,0,1.45764017105,,,,,2015_Sep_20_1229,A,facesParametric,9,59.6826264144,
./stim/MorphM3_06_orig.jpg,206,,,,,0,206,206,206,,,,,,,,,,,,,,,,,,,-23.3203125,-6.03515625,0,0,1,1.65775609016,,,,,2015_Sep_20_1229,A,facesParametric,9,59.6826264144,
./stim/MorphM1_09_orig.jpg,207,,,,,0,207,207,207,,,,,,,,,,,,,,,,,,,-23.349609375,-6.064453125,0,0,1,1.99299407005,,,,,2015_Sep_20_1229,A,facesParametric,9,59.6826264144,
./stim/MorphF4_10_orig.jpg,208,,,,,0,208,208,208,,,,,,,,,,,,,,,,,,,-23.37890625,-6.09375,0,0,1,1.0714058876,,,,,2015_Sep_20_1229,A,facesParametric,9,59.6826264144,
./stim/MorphF6_03_orig.jpg,209,,,,,0,209,209,209,,,,,,,,,,,,,,,,,,,-23.14453125,-6.09375,1,0,0,1.3394639492,,,,,2015_Sep_20_1229,A,facesParametric,9,59.6826264144,
./stim/MorphM4_08_orig.jpg,210,,,,,0,210,210,210,,,,,,,,,,,,,,,,,,,-23.14453125,-6.2109375,0,0,1,1.54060912132,,,,,2015_Sep_20_1229,A,facesParametric,9,59.6826264144,
./stim/MorphF8_00_orig.jpg,211,,,,,0,211,211,211,,,,,,,,,,,,,,,,,,,-23.232421875,-6.240234375,1,0,0,1.57288908958,,,,,2015_Sep_20_1229,A,facesParametric,9,59.6826264144,
./stim/MorphM10_06_orig.jpg,212,,,,,0,212,212,212,,,,,,,,,,,,,,,,,,,-23.203125,-6.26953125,0,0,1,1.38878798485,,,,,2015_Sep_20_1229,A,facesParametric,9,59.6826264144,
./stim/MorphM2_06_orig.jpg,213,,,,,0,213,213,213,,,,,,,,,,,,,,,,,,,-23.26171875,-6.240234375,1,0,0,2.81504797935,,,,,2015_Sep_20_1229,A,facesParametric,9,59.6826264144,
./stim/MorphM6_04_orig.jpg,214,,,,,0,214,214,214,,,,,,,,,,,,,,,,,,,-23.203125,-6.2109375,1,0,0,1.12159490585,,,,,2015_Sep_20_1229,A,facesParametric,9,59.6826264144,
./stim/MorphF2_02_orig.jpg,215,,,,,0,215,215,215,,,,,,,,,,,,,,,,,,,-23.203125,-6.2109375,1,0,0,2.31133985519,,,,,2015_Sep_20_1229,A,facesParametric,9,59.6826264144,
./stim/MorphF10_02_orig.jpg,216,,,,,0,216,216,216,,,,,,,,,,,,,,,,,,,-23.14453125,-6.240234375,1,0,0,1.32282614708,,,,,2015_Sep_20_1229,A,facesParametric,9,59.6826264144,
./stim/MorphF9_09_orig.jpg,217,,,,,0,217,217,217,,,,,,,,,,,,,,,,,,,-23.14453125,-6.240234375,1,0,0,1.94293999672,,,,,2015_Sep_20_1229,A,facesParametric,9,59.6826264144,
./stim/MorphF2_04_orig.jpg,218,,,,,0,218,218,218,,,,,,,,,,,,,,,,,,,-23.14453125,-6.240234375,1,0,0,2.39506292343,,,,,2015_Sep_20_1229,A,facesParametric,9,59.6826264144,
./stim/MorphF9_01_orig.jpg,219,,,,,0,219,219,219,,,,,,,,,,,,,,,,,,,-23.115234375,-6.26953125,1,0,0,1.32224702835,,,,,2015_Sep_20_1229,A,facesParametric,9,59.6826264144,
,,,,,,,,,,,,,,,,,,,,,,,,,,,,,,,,,,return,2.463504076,,,2015_Sep_20_1229,A,facesParametric,9,59.6826264144,
./stim/MorphM4_05_orig.jpg,0,,,,,,,,,0,0,0,0,,,,,,,,,,,,,,,4.365234375,0.87890625,0,0,1,3.09970712662,,,,,2015_Sep_20_1229,A,facesParametric,9,59.6826264144,
./stim/MorphM7_09_orig.jpg,1,,,,,,,,,0,1,1,1,,,,,,,,,,,,,,,3.955078125,0.5859375,0,0,1,0.850379943848,,,,,2015_Sep_20_1229,A,facesParametric,9,59.6826264144,
./stim/MorphM5_07_orig.jpg,2,,,,,,,,,0,2,2,2,,,,,,,,,,,,,,,3.28125,-0.205078125,0,0,1,1.59096693993,,,,,2015_Sep_20_1229,A,facesParametric,9,59.6826264144,
./stim/MorphF7_07_orig.jpg,3,,,,,,,,,0,3,3,3,,,,,,,,,,,,,,,3.1640625,-0.29296875,0,0,1,1.00496101379,,,,,2015_Sep_20_1229,A,facesParametric,9,59.6826264144,
./stim/MorphM8_02_orig.jpg,4,,,,,,,,,0,4,4,4,,,,,,,,,,,,,,,3.603515625,0.556640625,1,0,0,1.52305197716,,,,,2015_Sep_20_1229,A,facesParametric,9,59.6826264144,
./stim/MorphM3_00_orig.jpg,5,,,,,,,,,0,5,5,5,,,,,,,,,,,,,,,2.783203125,0.05859375,0,0,1,1.60769510269,,,,,2015_Sep_20_1229,A,facesParametric,9,59.6826264144,
./stim/MorphM1_08_orig.jpg,6,,,,,,,,,0,6,6,6,,,,,,,,,,,,,,,2.900390625,0.263671875,1,0,0,1.50733304024,,,,,2015_Sep_20_1229,A,facesParametric,9,59.6826264144,
./stim/MorphF5_08_orig.jpg,7,,,,,,,,,0,7,7,7,,,,,,,,,,,,,,,1.962890625,-0.3515625,0,0,1,1.22198414803,,,,,2015_Sep_20_1229,A,facesParametric,9,59.6826264144,
./stim/MorphF8_02_orig.jpg,8,,,,,,,,,0,8,8,8,,,,,,,,,,,,,,,2.578125,-0.146484375,1,0,0,1.15545201302,,,,,2015_Sep_20_1229,A,facesParametric,9,59.6826264144,
./stim/MorphF3_04_orig.jpg,9,,,,,,,,,0,9,9,9,,,,,,,,,,,,,,,2.548828125,-0.17578125,1,0,0,0.987369060516,,,,,2015_Sep_20_1229,A,facesParametric,9,59.6826264144,
./stim/MorphM8_06_orig.jpg,10,,,,,,,,,0,10,10,10,,,,,,,,,,,,,,,2.51953125,-0.205078125,1,0,0,1.47397685051,,,,,2015_Sep_20_1229,A,facesParametric,9,59.6826264144,
./stim/MorphM1_02_orig.jpg,11,,,,,,,,,0,11,11,11,,,,,,,,,,,,,,,2.490234375,-0.234375,1,0,0,1.32260489464,,,,,2015_Sep_20_1229,A,facesParametric,9,59.6826264144,
./stim/MorphF9_03_orig.jpg,12,,,,,,,,,0,12,12,12,,,,,,,,,,,,,,,2.314453125,-0.439453125,1,0,0,2.49587988853,,,,,2015_Sep_20_1229,A,facesParametric,9,59.6826264144,
./stim/MorphF3_01_orig.jpg,13,,,,,,,,,0,13,13,13,,,,,,,,,,,,,,,2.314453125,-0.41015625,1,0,0,0.920625925064,,,,,2015_Sep_20_1229,A,facesParametric,9,59.6826264144,
./stim/MorphF4_10_orig.jpg,14,,,,,,,,,0,14,14,14,,,,,,,,,,,,,,,2.138671875,-0.849609375,0,0,1,1.08794093132,,,,,2015_Sep_20_1229,A,facesParametric,9,59.6826264144,
./stim/MorphF6_07_orig.jpg,15,,,,,,,,,0,15,15,15,,,,,,,,,,,,,,,1.640625,-0.908203125,0,0,1,1.00420212746,,,,,2015_Sep_20_1229,A,facesParametric,9,59.6826264144,
./stim/MorphF7_05_orig.jpg,16,,,,,,,,,0,16,16,16,,,,,,,,,,,,,,,1.640625,-0.76171875,0,0,1,1.99196410179,,,,,2015_Sep_20_1229,A,facesParametric,9,59.6826264144,
./stim/MorphF6_00_orig.jpg,17,,,,,,,,,0,17,17,17,,,,,,,,,,,,,,,1.962890625,-0.46875,1,0,0,1.08844399452,,,,,2015_Sep_20_1229,A,facesParametric,9,59.6826264144,
./stim/MorphF1_02_orig.jpg,18,,,,,,,,,0,18,18,18,,,,,,,,,,,,,,,1.962890625,-0.46875,1,0,0,1.33761096001,,,,,2015_Sep_20_1229,A,facesParametric,9,59.6826264144,
./stim/MorphF4_04_orig.jpg,19,,,,,,,,,0,19,19,19,,,,,,,,,,,,,,,1.69921875,-0.5859375,1,0,0,1.62469100952,,,,,2015_Sep_20_1229,A,facesParametric,9,59.6826264144,
./stim/MorphM5_01_orig.jpg,20,,,,,,,,,0,20,20,20,,,,,,,,,,,,,,,1.787109375,-0.703125,1,0,0,1.13821291924,,,,,2015_Sep_20_1229,A,facesParametric,9,59.6826264144,
./stim/MorphM7_03_orig.jpg,21,,,,,,,,,0,21,21,21,,,,,,,,,,,,,,,1.7578125,-0.76171875,1,0,0,1.32249498367,,,,,2015_Sep_20_1229,A,facesParametric,9,59.6826264144,
./stim/MorphM10_01_orig.jpg,22,,,,,,,,,0,22,22,22,,,,,,,,,,,,,,,1.640625,-0.791015625,1,0,0,1.28994989395,,,,,2015_Sep_20_1229,A,facesParametric,9,59.6826264144,
./stim/MorphM4_07_orig.jpg,23,,,,,,,,,0,23,23,23,,,,,,,,,,,,,,,1.611328125,-0.791015625,0,0,1,1.28643512726,,,,,2015_Sep_20_1229,A,facesParametric,9,59.6826264144,
./stim/MorphM7_10_orig.jpg,24,,,,,,,,,0,24,24,24,,,,,,,,,,,,,,,1.552734375,-0.8203125,0,0,1,0.870650053024,,,,,2015_Sep_20_1229,A,facesParametric,9,59.6826264144,
./stim/MorphM4_03_orig.jpg,25,,,,,,,,,0,25,25,25,,,,,,,,,,,,,,,1.5234375,-0.908203125,1,0,0,1.18918013573,,,,,2015_Sep_20_1229,A,facesParametric,9,59.6826264144,
./stim/MorphM10_10_orig.jpg,26,,,,,,,,,0,26,26,26,,,,,,,,,,,,,,,1.23046875,-1.40625,0,0,1,1.54009914398,,,,,2015_Sep_20_1229,A,facesParametric,9,59.6826264144,
./stim/MorphM7_08_orig.jpg,27,,,,,,,,,0,27,27,27,,,,,,,,,,,,,,,0.87890625,-1.46484375,0,0,1,0.921443939209,,,,,2015_Sep_20_1229,A,facesParametric,9,59.6826264144,
./stim/MorphF8_00_orig.jpg,28,,,,,,,,,0,28,28,28,,,,,,,,,,,,,,,0.99609375,-1.5234375,1,0,0,1.31951808929,,,,,2015_Sep_20_1229,A,facesParametric,9,59.6826264144,
./stim/MorphF2_10_orig.jpg,29,,,,,,,,,0,29,29,29,,,,,,,,,,,,,,,0.263671875,-2.138671875,0,0,1,1.12059593201,,,,,2015_Sep_20_1229,A,facesParametric,9,59.6826264144,
./stim/MorphM1_09_orig.jpg,30,,,,,,,,,0,30,30,30,,,,,,,,,,,,,,,-0.17578125,-2.2265625,0,0,1,5.32802200317,,,,,2015_Sep_20_1229,A,facesParametric,9,59.6826264144,
./stim/MorphF7_02_orig.jpg,31,,,,,,,,,0,31,31,31,,,,,,,,,,,,,,,-0.029296875,-2.16796875,1,0,0,1.70591282845,,,,,2015_Sep_20_1229,A,facesParametric,9,59.6826264144,
./stim/MorphM5_09_orig.jpg,32,,,,,,,,,0,32,32,32,,,,,,,,,,,,,,,-0.087890625,-2.34375,0,0,1,0.954051017761,,,,,2015_Sep_20_1229,A,facesParametric,9,59.6826264144,
./stim/MorphM9_05_orig.jpg,33,,,,,,,,,0,33,33,33,,,,,,,,,,,,,,,-0.17578125,-2.373046875,0,0,1,2.32823705673,,,,,2015_Sep_20_1229,A,facesParametric,9,59.6826264144,
./stim/MorphF5_03_orig.jpg,34,,,,,,,,,0,34,34,34,,,,,,,,,,,,,,,-0.1171875,-2.373046875,1,0,0,1.60776996613,,,,,2015_Sep_20_1229,A,facesParametric,9,59.6826264144,
./stim/MorphF10_07_orig.jpg,35,,,,,,,,,0,35,35,35,,,,,,,,,,,,,,,-0.17578125,-2.40234375,0,0,1,1.1039481163,,,,,2015_Sep_20_1229,A,facesParametric,9,59.6826264144,
./stim/MorphF1_04_orig.jpg,36,,,,,,,,,0,36,36,36,,,,,,,,,,,,,,,-0.146484375,-2.4609375,1,0,0,0.921406984329,,,,,2015_Sep_20_1229,A,facesParametric,9,59.6826264144,
./stim/MorphM8_09_orig.jpg,37,,,,,,,,,0,37,37,37,,,,,,,,,,,,,,,-0.205078125,-2.490234375,0,0,1,1.5063419342,,,,,2015_Sep_20_1229,A,facesParametric,9,59.6826264144,
./stim/MorphF3_03_orig.jpg,38,,,,,,,,,0,38,38,38,,,,,,,,,,,,,,,-0.263671875,-2.431640625,1,0,0,2.25942802429,,,,,2015_Sep_20_1229,A,facesParametric,9,59.6826264144,
./stim/MorphM6_06_orig.jpg,39,,,,,,,,,0,39,39,39,,,,,,,,,,,,,,,-0.322265625,-2.373046875,0,0,1,3.01529812813,,,,,2015_Sep_20_1229,A,facesParametric,9,59.6826264144,
./stim/MorphM9_07_orig.jpg,40,,,,,,,,,0,40,40,40,,,,,,,,,,,,,,,-0.263671875,-2.34375,0,0,1,1.18828582764,,,,,2015_Sep_20_1229,A,facesParametric,9,59.6826264144,
./stim/MorphF1_01_orig.jpg,41,,,,,,,,,0,41,41,41,,,,,,,,,,,,,,,-0.205078125,-2.314453125,1,0,0,3.63580203056,,,,,2015_Sep_20_1229,A,facesParametric,9,59.6826264144,
./stim/MorphM2_04_orig.jpg,42,,,,,,,,,0,42,42,42,,,,,,,,,,,,,,,-0.205078125,-2.28515625,1,0,0,1.23866200447,,,,,2015_Sep_20_1229,A,facesParametric,9,59.6826264144,
./stim/MorphF6_05_orig.jpg,43,,,,,,,,,0,43,43,43,,,,,,,,,,,,,,,-0.263671875,-2.28515625,1,0,0,1.10528087616,,,,,2015_Sep_20_1229,A,facesParametric,9,59.6826264144,
./stim/MorphF4_07_orig.jpg,44,,,,,,,,,0,44,44,44,,,,,,,,,,,,,,,-0.41015625,-2.373046875,0,0,1,1.38874387741,,,,,2015_Sep_20_1229,A,facesParametric,9,59.6826264144,
./stim/MorphF7_03_orig.jpg,45,,,,,,,,,0,45,45,45,,,,,,,,,,,,,,,-0.263671875,-2.16796875,1,0,0,5.32517194748,,,,,2015_Sep_20_1229,A,facesParametric,9,59.6826264144,
./stim/MorphF8_01_orig.jpg,46,,,,,,,,,0,46,46,46,,,,,,,,,,,,,,,-0.29296875,-2.373046875,1,0,0,1.35644507408,,,,,2015_Sep_20_1229,A,facesParametric,9,59.6826264144,
./stim/MorphF4_00_orig.jpg,47,,,,,,,,,0,47,47,47,,,,,,,,,,,,,,,-0.263671875,-2.40234375,1,0,0,1.32259702682,,,,,2015_Sep_20_1229,A,facesParametric,9,59.6826264144,
./stim/MorphM7_01_orig.jpg,48,,,,,,,,,0,48,48,48,,,,,,,,,,,,,,,-0.3515625,-2.4609375,1,0,0,1.7920768261,,,,,2015_Sep_20_1229,A,facesParametric,9,59.6826264144,
./stim/MorphF6_08_orig.jpg,49,,,,,,,,,0,49,49,49,,,,,,,,,,,,,,,-0.380859375,-2.4609375,0,0,1,1.55547809601,,,,,2015_Sep_20_1229,A,facesParametric,9,59.6826264144,
./stim/MorphM2_06_orig.jpg,50,,,,,,,,,0,50,50,50,,,,,,,,,,,,,,,-0.46875,-2.51953125,0,0,1,3.13266515732,,,,,2015_Sep_20_1229,A,facesParametric,9,59.6826264144,
./stim/MorphM9_00_orig.jpg,51,,,,,,,,,0,51,51,51,,,,,,,,,,,,,,,-0.1171875,-2.578125,1,0,0,1.03771400452,,,,,2015_Sep_20_1229,A,facesParametric,9,59.6826264144,
./stim/MorphF8_05_orig.jpg,52,,,,,,,,,0,52,52,52,,,,,,,,,,,,,,,-0.234375,-2.666015625,1,0,0,2.32754898071,,,,,2015_Sep_20_1229,A,facesParametric,9,59.6826264144,
./stim/MorphF9_06_orig.jpg,53,,,,,,,,,0,53,53,53,,,,,,,,,,,,,,,-0.439453125,-2.75390625,0,0,1,2.57963895798,,,,,2015_Sep_20_1229,A,facesParametric,9,59.6826264144,
./stim/MorphM10_03_orig.jpg,54,,,,,,,,,0,54,54,54,,,,,,,,,,,,,,,-0.46875,-2.841796875,1,0,0,1.82545995712,,,,,2015_Sep_20_1229,A,facesParametric,9,59.6826264144,
./stim/MorphF5_05_orig.jpg,55,,,,,,,,,0,55,55,55,,,,,,,,,,,,,,,-0.3515625,-2.8125,1,0,0,0.903386116028,,,,,2015_Sep_20_1229,A,facesParametric,9,59.6826264144,
./stim/MorphF9_01_orig.jpg,56,,,,,,,,,0,56,56,56,,,,,,,,,,,,,,,-0.41015625,-2.958984375,1,0,0,1.44007706642,,,,,2015_Sep_20_1229,A,facesParametric,9,59.6826264144,
./stim/MorphF4_08_orig.jpg,57,,,,,,,,,0,57,57,57,,,,,,,,,,,,,,,-0.615234375,-3.134765625,0,0,1,1.49034690857,,,,,2015_Sep_20_1229,A,facesParametric,9,59.6826264144,
./stim/MorphM7_02_orig.jpg,58,,,,,,,,,0,58,58,58,,,,,,,,,,,,,,,-0.52734375,-3.076171875,0,0,1,2.29448199272,,,,,2015_Sep_20_1229,A,facesParametric,9,59.6826264144,
./stim/MorphF6_06_orig.jpg,59,,,,,,,,,0,59,59,59,,,,,,,,,,,,,,,-0.556640625,-3.1640625,0,0,1,1.23876786232,,,,,2015_Sep_20_1229,A,facesParametric,9,59.6826264144,
./stim/MorphM3_03_orig.jpg,60,,,,,,,,,0,60,60,60,,,,,,,,,,,,,,,-0.64453125,-3.310546875,0,0,1,1.37206578255,,,,,2015_Sep_20_1229,A,facesParametric,9,59.6826264144,
./stim/MorphM1_06_orig.jpg,61,,,,,,,,,0,61,61,61,,,,,,,,,,,,,,,-0.3515625,-3.1640625,0,0,1,1.94295501709,,,,,2015_Sep_20_1229,A,facesParametric,9,59.6826264144,
./stim/MorphM2_01_orig.jpg,62,,,,,,,,,0,62,62,62,,,,,,,,,,,,,,,-0.29296875,-3.076171875,1,0,0,1.13819599152,,,,,2015_Sep_20_1229,A,facesParametric,9,59.6826264144,
./stim/MorphF10_09_orig.jpg,63,,,,,,,,,0,63,63,63,,,,,,,,,,,,,,,-0.673828125,-3.076171875,0,0,1,1.55776500702,,,,,2015_Sep_20_1229,A,facesParametric,9,59.6826264144,
./stim/MorphM5_06_orig.jpg,64,,,,,,,,,0,64,64,64,,,,,,,,,,,,,,,-0.64453125,-3.134765625,0,0,1,1.47149991989,,,,,2015_Sep_20_1229,A,facesParametric,9,59.6826264144,
./stim/MorphF10_08_orig.jpg,65,,,,,,,,,0,65,65,65,,,,,,,,,,,,,,,-0.9375,-3.193359375,0,0,1,1.15493988991,,,,,2015_Sep_20_1229,A,facesParametric,9,59.6826264144,
./stim/MorphM10_09_orig.jpg,66,,,,,,,,,0,66,66,66,,,,,,,,,,,,,,,-0.9375,-3.28125,0,0,1,1.23785185814,,,,,2015_Sep_20_1229,A,facesParametric,9,59.6826264144,
./stim/MorphF9_07_orig.jpg,67,,,,,,,,,0,67,67,67,,,,,,,,,,,,,,,-0.9375,-3.33984375,0,0,1,1.64085507393,,,,,2015_Sep_20_1229,A,facesParametric,9,59.6826264144,
./stim/MorphM6_07_orig.jpg,68,,,,,,,,,0,68,68,68,,,,,,,,,,,,,,,-0.64453125,-3.310546875,0,0,1,2.61316895485,,,,,2015_Sep_20_1229,A,facesParametric,9,59.6826264144,
./stim/MorphM9_08_orig.jpg,69,,,,,,,,,0,69,69,69,,,,,,,,,,,,,,,-0.849609375,-3.486328125,0,0,1,2.21091413498,,,,,2015_Sep_20_1229,A,facesParametric,9,59.6826264144,
./stim/MorphM8_10_orig.jpg,70,,,,,,,,,0,70,70,70,,,,,,,,,,,,,,,-0.908203125,-3.544921875,0,0,1,1.15553402901,,,,,2015_Sep_20_1229,A,facesParametric,9,59.6826264144,
./stim/MorphM4_04_orig.jpg,71,,,,,,,,,0,71,71,71,,,,,,,,,,,,,,,-0.380859375,-3.3984375,1,0,0,2.2279381752,,,,,2015_Sep_20_1229,A,facesParametric,9,59.6826264144,
./stim/MorphM8_07_orig.jpg,72,,,,,,,,,0,72,72,72,,,,,,,,,,,,,,,-0.52734375,-3.603515625,0,0,1,0.920496940613,,,,,2015_Sep_20_1229,A,facesParametric,9,59.6826264144,
./stim/MorphM2_08_orig.jpg,73,,,,,,,,,0,73,73,73,,,,,,,,,,,,,,,-0.791015625,-3.6328125,0,0,1,1.13704609871,,,,,2015_Sep_20_1229,A,facesParametric,9,59.6826264144,
./stim/MorphM10_00_orig.jpg,74,,,,,,,,,0,74,74,74,,,,,,,,,,,,,,,-0.05859375,-3.486328125,1,0,0,1.40447497368,,,,,2015_Sep_20_1229,A,facesParametric,9,59.6826264144,
./stim/MorphM6_03_orig.jpg,75,,,,,,,,,0,75,75,75,,,,,,,,,,,,,,,-0.05859375,-3.57421875,1,0,0,1.40495991707,,,,,2015_Sep_20_1229,A,facesParametric,9,59.6826264144,
./stim/MorphM7_04_orig.jpg,76,,,,,,,,,0,76,76,76,,,,,,,,,,,,,,,-0.439453125,-3.837890625,0,0,1,3.28358101845,,,,,2015_Sep_20_1229,A,facesParametric,9,59.6826264144,
./stim/MorphM4_10_orig.jpg,77,,,,,,,,,0,77,77,77,,,,,,,,,,,,,,,-0.439453125,-3.837890625,0,0,1,1.08569908142,,,,,2015_Sep_20_1229,A,facesParametric,9,59.6826264144,
./stim/MorphM5_08_orig.jpg,78,,,,,,,,,0,78,78,78,,,,,,,,,,,,,,,-0.46875,-3.896484375,0,0,1,2.86441016197,,,,,2015_Sep_20_1229,A,facesParametric,9,59.6826264144,
./stim/MorphF10_04_orig.jpg,79,,,,,,,,,0,79,79,79,,,,,,,,,,,,,,,-0.46875,-3.896484375,0,0,1,1.07079696655,,,,,2015_Sep_20_1229,A,facesParametric,9,59.6826264144,
./stim/MorphF5_10_orig.jpg,80,,,,,,,,,0,80,80,80,,,,,,,,,,,,,,,-0.615234375,-3.92578125,0,0,1,3.29818606377,,,,,2015_Sep_20_1229,A,facesParametric,9,59.6826264144,
./stim/MorphM10_06_orig.jpg,81,,,,,,,,,0,81,81,81,,,,,,,,,,,,,,,-0.673828125,-3.92578125,0,0,1,1.13857698441,,,,,2015_Sep_20_1229,A,facesParametric,9,59.6826264144,
./stim/MorphM9_09_orig.jpg,82,,,,,,,,,0,82,82,82,,,,,,,,,,,,,,,-0.673828125,-3.92578125,0,0,1,0.903753995895,,,,,2015_Sep_20_1229,A,facesParametric,9,59.6826264144,
./stim/MorphF2_05_orig.jpg,83,,,,,,,,,0,83,83,83,,,,,,,,,,,,,,,-0.673828125,-3.92578125,0,0,1,1.02116894722,,,,,2015_Sep_20_1229,A,facesParametric,9,59.6826264144,
./stim/MorphF7_00_orig.jpg,84,,,,,,,,,0,84,84,84,,,,,,,,,,,,,,,-0.263671875,-3.837890625,1,0,0,1.10554218292,,,,,2015_Sep_20_1229,A,facesParametric,9,59.6826264144,
./stim/MorphF4_06_orig.jpg,85,,,,,,,,,0,85,85,85,,,,,,,,,,,,,,,-0.087890625,-3.779296875,1,0,0,1.42035007477,,,,,2015_Sep_20_1229,A,facesParametric,9,59.6826264144,
./stim/MorphM2_05_orig.jpg,86,,,,,,,,,0,86,86,86,,,,,,,,,,,,,,,-0.17578125,-3.779296875,1,0,0,1.22151780128,,,,,2015_Sep_20_1229,A,facesParametric,9,59.6826264144,
./stim/MorphF9_10_orig.jpg,87,,,,,,,,,0,87,87,87,,,,,,,,,,,,,,,-0.380859375,-3.92578125,0,0,1,2.79593300819,,,,,2015_Sep_20_1229,A,facesParametric,9,59.6826264144,
./stim/MorphF2_00_orig.jpg,88,,,,,,,,,0,88,88,88,,,,,,,,,,,,,,,-0.380859375,-3.8671875,1,0,0,0.953711986542,,,,,2015_Sep_20_1229,A,facesParametric,9,59.6826264144,
./stim/MorphF3_02_orig.jpg,89,,,,,,,,,0,89,89,89,,,,,,,,,,,,,,,-0.29296875,-3.80859375,1,0,0,1.13860297203,,,,,2015_Sep_20_1229,A,facesParametric,9,59.6826264144,
./stim/MorphF2_02_orig.jpg,90,,,,,,,,,0,90,90,90,,,,,,,,,,,,,,,-0.322265625,-3.955078125,0,0,1,0.920437097549,,,,,2015_Sep_20_1229,A,facesParametric,9,59.6826264144,
./stim/MorphM2_02_orig.jpg,91,,,,,,,,,0,91,91,91,,,,,,,,,,,,,,,-0.439453125,-4.306640625,1,0,0,2.27774810791,,,,,2015_Sep_20_1229,A,facesParametric,9,59.6826264144,
./stim/MorphF7_08_orig.jpg,92,,,,,,,,,0,92,92,92,,,,,,,,,,,,,,,-0.52734375,-4.423828125,1,0,0,1.30612206459,,,,,2015_Sep_20_1229,A,facesParametric,9,59.6826264144,
./stim/MorphF5_04_orig.jpg,93,,,,,,,,,0,93,93,93,,,,,,,,,,,,,,,-0.732421875,-4.62890625,1,0,0,3.08229112625,,,,,2015_Sep_20_1229,A,facesParametric,9,59.6826264144,
./stim/MorphM6_05_orig.jpg,94,,,,,,,,,0,94,94,94,,,,,,,,,,,,,,,-0.673828125,-4.833984375,1,0,0,1.99341893196,,,,,2015_Sep_20_1229,A,facesParametric,9,59.6826264144,
./stim/MorphM1_04_orig.jpg,95,,,,,,,,,0,95,95,95,,,,,,,,,,,,,,,-0.732421875,-4.98046875,0,0,1,1.53980302811,,,,,2015_Sep_20_1229,A,facesParametric,9,59.6826264144,
./stim/MorphM7_05_orig.jpg,96,,,,,,,,,0,96,96,96,,,,,,,,,,,,,,,-0.8203125,-5.126953125,0,0,1,0.753022909164,,,,,2015_Sep_20_1229,A,facesParametric,9,59.6826264144,
./stim/MorphM10_04_orig.jpg,97,,,,,,,,,0,97,97,97,,,,,,,,,,,,,,,-0.76171875,-5.244140625,1,0,0,1.65664505959,,,,,2015_Sep_20_1229,A,facesParametric,9,59.6826264144,
./stim/MorphF5_01_orig.jpg,98,,,,,,,,,0,98,98,98,,,,,,,,,,,,,,,-0.64453125,-5.419921875,1,0,0,3.5521569252,,,,,2015_Sep_20_1229,A,facesParametric,9,59.6826264144,
./stim/MorphM5_10_orig.jpg,99,,,,,,,,,0,99,99,99,,,,,,,,,,,,,,,-0.703125,-5.537109375,0,0,1,1.05233383179,,,,,2015_Sep_20_1229,A,facesParametric,9,59.6826264144,
./stim/MorphM4_01_orig.jpg,100,,,,,,,,,0,100,100,100,,,,,,,,,,,,,,,-0.732421875,-5.712890625,1,0,0,1.37176012993,,,,,2015_Sep_20_1229,A,facesParametric,9,59.6826264144,
./stim/MorphF4_05_orig.jpg,101,,,,,,,,,0,101,101,101,,,,,,,,,,,,,,,-0.703125,-5.80078125,1,0,0,1.37291908264,,,,,2015_Sep_20_1229,A,facesParametric,9,59.6826264144,
./stim/MorphM2_03_orig.jpg,102,,,,,,,,,0,102,102,102,,,,,,,,,,,,,,,-0.64453125,-5.91796875,1,0,0,0.935528993607,,,,,2015_Sep_20_1229,A,facesParametric,9,59.6826264144,
./stim/MorphM10_05_orig.jpg,103,,,,,,,,,0,103,103,103,,,,,,,,,,,,,,,-0.908203125,-6.064453125,0,0,1,0.971506118774,,,,,2015_Sep_20_1229,A,facesParametric,9,59.6826264144,
./stim/MorphM1_05_orig.jpg,104,,,,,,,,,0,104,104,104,,,,,,,,,,,,,,,-0.732421875,-6.03515625,1,0,0,1.80732798576,,,,,2015_Sep_20_1229,A,facesParametric,9,59.6826264144,
./stim/MorphF3_07_orig.jpg,105,,,,,,,,,0,105,105,105,,,,,,,,,,,,,,,-0.849609375,-6.09375,1,0,0,2.78102612495,,,,,2015_Sep_20_1229,A,facesParametric,9,59.6826264144,
./stim/MorphM6_01_orig.jpg,106,,,,,,,,,0,106,106,106,,,,,,,,,,,,,,,-0.849609375,-6.181640625,1,0,0,2.19391298294,,,,,2015_Sep_20_1229,A,facesParametric,9,59.6826264144,
./stim/MorphF8_06_orig.jpg,107,,,,,,,,,0,107,107,107,,,,,,,,,,,,,,,-0.9375,-6.50390625,0,0,1,2.948554039,,,,,2015_Sep_20_1229,A,facesParametric,9,59.6826264144,
./stim/MorphM6_08_orig.jpg,108,,,,,,,,,0,108,108,108,,,,,,,,,,,,,,,-0.9375,-6.533203125,0,0,1,1.18677401543,,,,,2015_Sep_20_1229,A,facesParametric,9,59.6826264144,
./stim/MorphF10_00_orig.jpg,109,,,,,,,,,0,109,109,109,,,,,,,,,,,,,,,-0.99609375,-6.5625,0,0,1,1.05462384224,,,,,2015_Sep_20_1229,A,facesParametric,9,59.6826264144,
./stim/MorphM2_10_orig.jpg,110,,,,,,,,,0,110,110,110,,,,,,,,,,,,,,,-1.0546875,-6.62109375,0,0,1,1.60829305649,,,,,2015_Sep_20_1229,A,facesParametric,9,59.6826264144,
./stim/MorphM3_09_orig.jpg,111,,,,,,,,,0,111,111,111,,,,,,,,,,,,,,,-1.083984375,-6.62109375,0,0,1,0.90176486969,,,,,2015_Sep_20_1229,A,facesParametric,9,59.6826264144,
./stim/MorphF8_09_orig.jpg,112,,,,,,,,,0,112,112,112,,,,,,,,,,,,,,,-1.201171875,-6.708984375,0,0,1,1.32132601738,,,,,2015_Sep_20_1229,A,facesParametric,9,59.6826264144,
./stim/MorphM1_07_orig.jpg,113,,,,,,,,,0,113,113,113,,,,,,,,,,,,,,,-1.259765625,-6.767578125,0,0,1,3.11390185356,,,,,2015_Sep_20_1229,A,facesParametric,9,59.6826264144,
./stim/MorphF1_10_orig.jpg,114,,,,,,,,,0,114,114,114,,,,,,,,,,,,,,,-1.318359375,-6.826171875,0,0,1,1.05469298363,,,,,2015_Sep_20_1229,A,facesParametric,9,59.6826264144,
./stim/MorphM3_08_orig.jpg,115,,,,,,,,,0,115,115,115,,,,,,,,,,,,,,,-1.318359375,-6.884765625,0,0,1,1.13854598999,,,,,2015_Sep_20_1229,A,facesParametric,9,59.6826264144,
./stim/MorphF6_10_orig.jpg,116,,,,,,,,,0,116,116,116,,,,,,,,,,,,,,,-1.318359375,-6.943359375,0,0,1,1.08794903755,,,,,2015_Sep_20_1229,A,facesParametric,9,59.6826264144,
./stim/MorphM4_09_orig.jpg,117,,,,,,,,,0,117,117,117,,,,,,,,,,,,,,,-1.34765625,-7.03125,0,0,1,1.70817112923,,,,,2015_Sep_20_1229,A,facesParametric,9,59.6826264144,
./stim/MorphM8_01_orig.jpg,118,,,,,,,,,0,118,118,118,,,,,,,,,,,,,,,-1.142578125,-6.97265625,1,0,0,1.5389008522,,,,,2015_Sep_20_1229,A,facesParametric,9,59.6826264144,
./stim/MorphM10_08_orig.jpg,119,,,,,,,,,0,119,119,119,,,,,,,,,,,,,,,-1.259765625,-6.884765625,0,0,1,1.0548582077,,,,,2015_Sep_20_1229,A,facesParametric,9,59.6826264144,
./stim/MorphF8_10_orig.jpg,120,,,,,,,,,0,120,120,120,,,,,,,,,,,,,,,-1.34765625,-6.97265625,0,0,1,1.32247304916,,,,,2015_Sep_20_1229,A,facesParametric,9,59.6826264144,
./stim/MorphM6_04_orig.jpg,121,,,,,,,,,0,121,121,121,,,,,,,,,,,,,,,-1.142578125,-7.060546875,1,0,0,3.21622014046,,,,,2015_Sep_20_1229,A,facesParametric,9,59.6826264144,
./stim/MorphM5_04_orig.jpg,122,,,,,,,,,0,122,122,122,,,,,,,,,,,,,,,-1.318359375,-7.001953125,0,0,1,4.75822305679,,,,,2015_Sep_20_1229,A,facesParametric,9,59.6826264144,
./stim/MorphF7_06_orig.jpg,123,,,,,,,,,0,123,123,123,,,,,,,,,,,,,,,-1.2890625,-7.20703125,1,0,0,1.62146615982,,,,,2015_Sep_20_1229,A,facesParametric,9,59.6826264144,
./stim/MorphM4_08_orig.jpg,124,,,,,,,,,0,124,124,124,,,,,,,,,,,,,,,-1.318359375,-7.236328125,0,0,1,1.48993110657,,,,,2015_Sep_20_1229,A,facesParametric,9,59.6826264144,
./stim/MorphF10_02_orig.jpg,125,,,,,,,,,0,125,125,125,,,,,,,,,,,,,,,-0.99609375,-7.119140625,1,0,0,1.35482406616,,,,,2015_Sep_20_1229,A,facesParametric,9,59.6826264144,
./stim/MorphF1_00_orig.jpg,126,,,,,,,,,0,126,126,126,,,,,,,,,,,,,,,-1.083984375,-7.20703125,1,0,0,1.4398958683,,,,,2015_Sep_20_1229,A,facesParametric,9,59.6826264144,
./stim/MorphM4_02_orig.jpg,127,,,,,,,,,0,127,127,127,,,,,,,,,,,,,,,-1.11328125,-7.236328125,1,0,0,0.970355987549,,,,,2015_Sep_20_1229,A,facesParametric,9,59.6826264144,
./stim/MorphM5_05_orig.jpg,128,,,,,,,,,0,128,128,128,,,,,,,,,,,,,,,-1.171875,-7.20703125,0,0,1,1.52248501778,,,,,2015_Sep_20_1229,A,facesParametric,9,59.6826264144,
./stim/MorphF8_04_orig.jpg,129,,,,,,,,,0,129,129,129,,,,,,,,,,,,,,,-0.99609375,-7.236328125,1,0,0,5.37810516357,,,,,2015_Sep_20_1229,A,facesParametric,9,59.6826264144,
./stim/MorphM9_02_orig.jpg,130,,,,,,,,,0,130,130,130,,,,,,,,,,,,,,,-0.908203125,-7.20703125,1,0,0,1.05340385437,,,,,2015_Sep_20_1229,A,facesParametric,9,59.6826264144,
./stim/MorphF9_08_orig.jpg,131,,,,,,,,,0,131,131,131,,,,,,,,,,,,,,,-1.083984375,-7.119140625,0,0,1,1.35462284088,,,,,2015_Sep_20_1229,A,facesParametric,9,59.6826264144,
./stim/MorphM8_03_orig.jpg,132,,,,,,,,,0,132,132,132,,,,,,,,,,,,,,,-1.0546875,-7.119140625,1,0,0,1.2719669342,,,,,2015_Sep_20_1229,A,facesParametric,9,59.6826264144,
./stim/MorphF2_09_orig.jpg,133,,,,,,,,,0,133,133,133,,,,,,,,,,,,,,,-1.259765625,-7.20703125,0,0,1,1.27200484276,,,,,2015_Sep_20_1229,A,facesParametric,9,59.6826264144,
./stim/MorphF1_06_orig.jpg,134,,,,,,,,,0,134,134,134,,,,,,,,,,,,,,,-1.2890625,-7.236328125,0,0,1,1.80891418457,,,,,2015_Sep_20_1229,A,facesParametric,9,59.6826264144,
./stim/MorphF2_06_orig.jpg,135,,,,,,,,,0,135,135,135,,,,,,,,,,,,,,,-1.318359375,-7.265625,0,0,1,1.13818192482,,,,,2015_Sep_20_1229,A,facesParametric,9,59.6826264144,
./stim/MorphM9_03_orig.jpg,136,,,,,,,,,0,136,136,136,,,,,,,,,,,,,,,-1.23046875,-7.119140625,1,0,0,1.50556397438,,,,,2015_Sep_20_1229,A,facesParametric,9,59.6826264144,
./stim/MorphM6_09_orig.jpg,137,,,,,,,,,0,137,137,137,,,,,,,,,,,,,,,-1.376953125,-7.1484375,0,0,1,1.70731806755,,,,,2015_Sep_20_1229,A,facesParametric,9,59.6826264144,
./stim/MorphF6_02_orig.jpg,138,,,,,,,,,0,138,138,138,,,,,,,,,,,,,,,-1.083984375,-7.03125,1,0,0,1.35620212555,,,,,2015_Sep_20_1229,A,facesParametric,9,59.6826264144,
./stim/MorphF10_10_orig.jpg,139,,,,,,,,,0,139,139,139,,,,,,,,,,,,,,,-1.201171875,-7.177734375,0,0,1,1.23976302147,,,,,2015_Sep_20_1229,A,facesParametric,9,59.6826264144,
./stim/MorphM5_00_orig.jpg,140,,,,,,,,,0,140,140,140,,,,,,,,,,,,,,,-1.142578125,-7.177734375,1,0,0,1.38859701157,,,,,2015_Sep_20_1229,A,facesParametric,9,59.6826264144,
./stim/MorphM9_01_orig.jpg,141,,,,,,,,,0,141,141,141,,,,,,,,,,,,,,,-1.201171875,-7.236328125,1,0,0,0.987673997879,,,,,2015_Sep_20_1229,A,facesParametric,9,59.6826264144,
./stim/MorphF2_03_orig.jpg,142,,,,,,,,,0,142,142,142,,,,,,,,,,,,,,,-0.966796875,-7.119140625,1,0,0,1.80907201767,,,,,2015_Sep_20_1229,A,facesParametric,9,59.6826264144,
./stim/MorphF10_06_orig.jpg,143,,,,,,,,,0,143,143,143,,,,,,,,,,,,,,,-1.083984375,-7.177734375,0,0,1,1.67470288277,,,,,2015_Sep_20_1229,A,facesParametric,9,59.6826264144,
./stim/MorphM4_06_orig.jpg,144,,,,,,,,,0,144,144,144,,,,,,,,,,,,,,,-1.2890625,-7.294921875,0,0,1,2.36136317253,,,,,2015_Sep_20_1229,A,facesParametric,9,59.6826264144,
./stim/MorphF1_08_orig.jpg,145,,,,,,,,,0,145,145,145,,,,,,,,,,,,,,,-1.318359375,-7.353515625,0,0,1,2.32747888565,,,,,2015_Sep_20_1229,A,facesParametric,9,59.6826264144,
./stim/MorphF6_03_orig.jpg,146,,,,,,,,,0,146,146,146,,,,,,,,,,,,,,,-1.171875,-7.265625,1,0,0,1.3564658165,,,,,2015_Sep_20_1229,A,facesParametric,9,59.6826264144,
./stim/MorphM3_01_orig.jpg,147,,,,,,,,,0,147,147,147,,,,,,,,,,,,,,,-1.259765625,-7.44140625,1,0,0,1.67546200752,,,,,2015_Sep_20_1229,A,facesParametric,9,59.6826264144,
./stim/MorphM9_04_orig.jpg,148,,,,,,,,,0,148,148,148,,,,,,,,,,,,,,,-1.23046875,-7.470703125,1,0,0,1.48833990097,,,,,2015_Sep_20_1229,A,facesParametric,9,59.6826264144,
./stim/MorphF9_00_orig.jpg,149,,,,,,,,,0,149,149,149,,,,,,,,,,,,,,,-1.23046875,-7.705078125,1,0,0,3.78653478622,,,,,2015_Sep_20_1229,A,facesParametric,9,59.6826264144,
./stim/MorphF3_06_orig.jpg,150,,,,,,,,,0,150,150,150,,,,,,,,,,,,,,,-1.376953125,-7.79296875,1,0,0,1.07177209854,,,,,2015_Sep_20_1229,A,facesParametric,9,59.6826264144,
./stim/MorphF9_04_orig.jpg,151,,,,,,,,,0,151,151,151,,,,,,,,,,,,,,,-1.34765625,-7.763671875,1,0,0,1.38950109482,,,,,2015_Sep_20_1229,A,facesParametric,9,59.6826264144,
./stim/MorphF7_09_orig.jpg,152,,,,,,,,,0,152,152,152,,,,,,,,,,,,,,,-1.494140625,-7.734375,0,0,1,0.904335975647,,,,,2015_Sep_20_1229,A,facesParametric,9,59.6826264144,
./stim/MorphF2_07_orig.jpg,153,,,,,,,,,0,153,153,153,,,,,,,,,,,,,,,-1.728515625,-7.822265625,0,0,1,1.00383877754,,,,,2015_Sep_20_1229,A,facesParametric,9,59.6826264144,
./stim/MorphF1_03_orig.jpg,154,,,,,,,,,0,154,154,154,,,,,,,,,,,,,,,-1.58203125,-7.880859375,1,0,0,1.18651604652,,,,,2015_Sep_20_1229,A,facesParametric,9,59.6826264144,
./stim/MorphF4_09_orig.jpg,155,,,,,,,,,0,155,155,155,,,,,,,,,,,,,,,-1.611328125,-7.79296875,0,0,1,1.20557188988,,,,,2015_Sep_20_1229,A,facesParametric,9,59.6826264144,
./stim/MorphM8_00_orig.jpg,156,,,,,,,,,0,156,156,156,,,,,,,,,,,,,,,-1.728515625,-7.939453125,1,0,0,2.54648184776,,,,,2015_Sep_20_1229,A,facesParametric,9,59.6826264144,
./stim/MorphF1_09_orig.jpg,157,,,,,,,,,0,157,157,157,,,,,,,,,,,,,,,-1.845703125,-8.02734375,0,0,1,1.1882610321,,,,,2015_Sep_20_1229,A,facesParametric,9,59.6826264144,
./stim/MorphF8_08_orig.jpg,158,,,,,,,,,0,158,158,158,,,,,,,,,,,,,,,-1.875,-8.0859375,0,0,1,1.25572109222,,,,,2015_Sep_20_1229,A,facesParametric,9,59.6826264144,
./stim/MorphF3_00_orig.jpg,159,,,,,,,,,0,159,159,159,,,,,,,,,,,,,,,-1.845703125,-8.173828125,1,0,0,1.12029910088,,,,,2015_Sep_20_1229,A,facesParametric,9,59.6826264144,
./stim/MorphM10_07_orig.jpg,160,,,,,,,,,0,160,160,160,,,,,,,,,,,,,,,-1.9921875,-8.4375,0,0,1,1.03821086884,,,,,2015_Sep_20_1229,A,facesParametric,9,59.6826264144,
./stim/MorphM3_07_orig.jpg,161,,,,,,,,,0,161,161,161,,,,,,,,,,,,,,,-2.16796875,-8.671875,0,0,1,2.12721800804,,,,,2015_Sep_20_1229,A,facesParametric,9,59.6826264144,
./stim/MorphF3_10_orig.jpg,162,,,,,,,,,0,162,162,162,,,,,,,,,,,,,,,-2.34375,-8.96484375,0,0,1,4.07173705101,,,,,2015_Sep_20_1229,A,facesParametric,9,59.6826264144,
./stim/MorphM5_02_orig.jpg,163,,,,,,,,,0,163,163,163,,,,,,,,,,,,,,,-2.373046875,-9.08203125,1,0,0,1.55696201324,,,,,2015_Sep_20_1229,A,facesParametric,9,59.6826264144,
./stim/MorphF3_08_orig.jpg,164,,,,,,,,,0,164,164,164,,,,,,,,,,,,,,,-2.28515625,-9.31640625,1,0,0,2.11050891876,,,,,2015_Sep_20_1229,A,facesParametric,9,59.6826264144,
./stim/MorphM8_04_orig.jpg,165,,,,,,,,,0,165,165,165,,,,,,,,,,,,,,,-2.314453125,-9.43359375,1,0,0,2.42890501022,,,,,2015_Sep_20_1229,A,facesParametric,9,59.6826264144,
./stim/MorphF2_08_orig.jpg,166,,,,,,,,,0,166,166,166,,,,,,,,,,,,,,,-2.34375,-9.66796875,0,0,1,0.886615991592,,,,,2015_Sep_20_1229,A,facesParametric,9,59.6826264144,
./stim/MorphM8_05_orig.jpg,167,,,,,,,,,0,167,167,167,,,,,,,,,,,,,,,-2.431640625,-9.873046875,1,0,0,1.25511288643,,,,,2015_Sep_20_1229,A,facesParametric,9,59.6826264144,
./stim/MorphM9_10_orig.jpg,168,,,,,,,,,0,168,168,168,,,,,,,,,,,,,,,-2.607421875,-9.931640625,0,0,1,1.37106490135,,,,,2015_Sep_20_1229,A,facesParametric,9,59.6826264144,
./stim/MorphF10_03_orig.jpg,169,,,,,,,,,0,169,169,169,,,,,,,,,,,,,,,-2.578125,-10.107421875,1,0,0,1.33925008774,,,,,2015_Sep_20_1229,A,facesParametric,9,59.6826264144,
./stim/MorphF8_03_orig.jpg,170,,,,,,,,,0,170,170,170,,,,,,,,,,,,,,,-2.607421875,-10.078125,1,0,0,1.25563311577,,,,,2015_Sep_20_1229,A,facesParametric,9,59.6826264144,
./stim/MorphF9_09_orig.jpg,171,,,,,,,,,0,171,171,171,,,,,,,,,,,,,,,-2.63671875,-10.3125,0,0,1,3.26587700844,,,,,2015_Sep_20_1229,A,facesParametric,9,59.6826264144,
./stim/MorphM6_10_orig.jpg,172,,,,,,,,,0,172,172,172,,,,,,,,,,,,,,,-2.63671875,-10.3125,0,0,1,1.38765406609,,,,,2015_Sep_20_1229,A,facesParametric,9,59.6826264144,
./stim/MorphF5_09_orig.jpg,173,,,,,,,,,0,173,173,173,,,,,,,,,,,,,,,-2.578125,-10.3125,0,0,1,3.60090088844,,,,,2015_Sep_20_1229,A,facesParametric,9,59.6826264144,
./stim/MorphM7_00_orig.jpg,174,,,,,,,,,0,174,174,174,,,,,,,,,,,,,,,-2.607421875,-10.341796875,1,0,0,4.94270920753,,,,,2015_Sep_20_1229,A,facesParametric,9,59.6826264144,
./stim/MorphF4_03_orig.jpg,175,,,,,,,,,0,175,175,175,,,,,,,,,,,,,,,-2.6953125,-10.37109375,1,0,0,1.65781116486,,,,,2015_Sep_20_1229,A,facesParametric,9,59.6826264144,
./stim/MorphF10_01_orig.jpg,176,,,,,,,,,0,176,176,176,,,,,,,,,,,,,,,-2.75390625,-10.4296875,1,0,0,2.68053293228,,,,,2015_Sep_20_1229,A,facesParametric,9,59.6826264144,
./stim/MorphM2_09_orig.jpg,177,,,,,,,,,0,177,177,177,,,,,,,,,,,,,,,-2.783203125,-10.517578125,0,0,1,1.01924204826,,,,,2015_Sep_20_1229,A,facesParametric,9,59.6826264144,
./stim/MorphF2_01_orig.jpg,178,,,,,,,,,0,178,178,178,,,,,,,,,,,,,,,-2.900390625,-10.693359375,1,0,0,0.937549114227,,,,,2015_Sep_20_1229,A,facesParametric,9,59.6826264144,
./stim/MorphF10_05_orig.jpg,179,,,,,,,,,0,179,179,179,,,,,,,,,,,,,,,-3.1640625,-10.869140625,0,0,1,6.31701588631,,,,,2015_Sep_20_1229,A,facesParametric,9,59.6826264144,
./stim/MorphM7_07_orig.jpg,180,,,,,,,,,0,180,180,180,,,,,,,,,,,,,,,-3.193359375,-10.927734375,0,0,1,0.786364078522,,,,,2015_Sep_20_1229,A,facesParametric,9,59.6826264144,
./stim/MorphM9_06_orig.jpg,181,,,,,,,,,0,181,181,181,,,,,,,,,,,,,,,-3.134765625,-11.044921875,0,0,1,2.78083205223,,,,,2015_Sep_20_1229,A,facesParametric,9,59.6826264144,
./stim/MorphM3_10_orig.jpg,182,,,,,,,,,0,182,182,182,,,,,,,,,,,,,,,-3.1640625,-11.103515625,0,0,1,0.869972229004,,,,,2015_Sep_20_1229,A,facesParametric,9,59.6826264144,
./stim/MorphM2_07_orig.jpg,183,,,,,,,,,0,183,183,183,,,,,,,,,,,,,,,-3.22265625,-11.484375,0,0,1,3.09780693054,,,,,2015_Sep_20_1229,A,facesParametric,9,59.6826264144,
./stim/MorphM1_01_orig.jpg,184,,,,,,,,,0,184,184,184,,,,,,,,,,,,,,,-3.134765625,-11.484375,1,0,0,1.3397591114,,,,,2015_Sep_20_1229,A,facesParametric,9,59.6826264144,
./stim/MorphF7_04_orig.jpg,185,,,,,,,,,0,185,185,185,,,,,,,,,,,,,,,-3.193359375,-11.54296875,0,0,1,1.80805110931,,,,,2015_Sep_20_1229,A,facesParametric,9,59.6826264144,
./stim/MorphF1_07_orig.jpg,186,,,,,,,,,0,186,186,186,,,,,,,,,,,,,,,-3.193359375,-11.572265625,0,0,1,1.03763508797,,,,,2015_Sep_20_1229,A,facesParametric,9,59.6826264144,
./stim/MorphF5_06_orig.jpg,187,,,,,,,,,0,187,187,187,,,,,,,,,,,,,,,-3.193359375,-11.572265625,0,0,1,0.98725104332,,,,,2015_Sep_20_1229,A,facesParametric,9,59.6826264144,
./stim/MorphM6_00_orig.jpg,188,,,,,,,,,0,188,188,188,,,,,,,,,,,,,,,-3.28125,-11.66015625,0,0,1,2.0088570118,,,,,2015_Sep_20_1229,A,facesParametric,9,59.6826264144,
./stim/MorphF8_07_orig.jpg,189,,,,,,,,,0,189,189,189,,,,,,,,,,,,,,,-3.310546875,-11.71875,0,0,1,0.954183101654,,,,,2015_Sep_20_1229,A,facesParametric,9,59.6826264144,
./stim/MorphF6_01_orig.jpg,190,,,,,,,,,0,190,190,190,,,,,,,,,,,,,,,-3.33984375,-11.748046875,1,0,0,1.0712749958,,,,,2015_Sep_20_1229,A,facesParametric,9,59.6826264144,
./stim/MorphF5_00_orig.jpg,191,,,,,,,,,0,191,191,191,,,,,,,,,,,,,,,-3.28125,-11.865234375,0,0,1,1.25588703156,,,,,2015_Sep_20_1229,A,facesParametric,9,59.6826264144,
./stim/MorphF3_09_orig.jpg,192,,,,,,,,,0,192,192,192,,,,,,,,,,,,,,,-3.3984375,-12.01171875,0,0,1,1.80789589882,,,,,2015_Sep_20_1229,A,facesParametric,9,59.6826264144,
./stim/MorphM3_05_orig.jpg,193,,,,,,,,,0,193,193,193,,,,,,,,,,,,,,,-3.33984375,-12.041015625,0,0,1,1.00369310379,,,,,2015_Sep_20_1229,A,facesParametric,9,59.6826264144,
./stim/MorphF5_07_orig.jpg,194,,,,,,,,,0,194,194,194,,,,,,,,,,,,,,,-3.28125,-12.099609375,0,0,1,0.970597982407,,,,,2015_Sep_20_1229,A,facesParametric,9,59.6826264144,
./stim/MorphF7_10_orig.jpg,195,,,,,,,,,0,195,195,195,,,,,,,,,,,,,,,-3.3984375,-12.099609375,0,0,1,0.937219142914,,,,,2015_Sep_20_1229,A,facesParametric,9,59.6826264144,
./stim/MorphF9_05_orig.jpg,196,,,,,,,,,0,196,196,196,,,,,,,,,,,,,,,-3.427734375,-12.158203125,0,0,1,1.30622410774,,,,,2015_Sep_20_1229,A,facesParametric,9,59.6826264144,
./stim/MorphF7_01_orig.jpg,197,,,,,,,,,0,197,197,197,,,,,,,,,,,,,,,-3.251953125,-12.12890625,1,0,0,1.42336201668,,,,,2015_Sep_20_1229,A,facesParametric,9,59.6826264144,
./stim/MorphF4_01_orig.jpg,198,,,,,,,,,0,198,198,198,,,,,,,,,,,,,,,-3.22265625,-12.158203125,1,0,0,0.904093027115,,,,,2015_Sep_20_1229,A,facesParametric,9,59.6826264144,
./stim/MorphM2_00_orig.jpg,199,,,,,,,,,0,199,199,199,,,,,,,,,,,,,,,-3.193359375,-12.1875,1,0,0,0.853492021561,,,,,2015_Sep_20_1229,A,facesParametric,9,59.6826264144,
./stim/MorphM10_02_orig.jpg,200,,,,,,,,,0,200,200,200,,,,,,,,,,,,,,,-3.251953125,-12.24609375,1,0,0,0.987278938293,,,,,2015_Sep_20_1229,A,facesParametric,9,59.6826264144,
./stim/MorphM3_02_orig.jpg,201,,,,,,,,,0,201,201,201,,,,,,,,,,,,,,,-3.28125,-12.24609375,1,0,0,2.62997508049,,,,,2015_Sep_20_1229,A,facesParametric,9,59.6826264144,
./stim/MorphF1_05_orig.jpg,202,,,,,,,,,0,202,202,202,,,,,,,,,,,,,,,-3.251953125,-12.24609375,1,0,0,2.26131701469,,,,,2015_Sep_20_1229,A,facesParametric,9,59.6826264144,
./stim/MorphM1_03_orig.jpg,203,,,,,,,,,0,203,203,203,,,,,,,,,,,,,,,-3.22265625,-12.3046875,1,0,0,1.05328607559,,,,,2015_Sep_20_1229,A,facesParametric,9,59.6826264144,
./stim/MorphF3_05_orig.jpg,204,,,,,,,,,0,204,204,204,,,,,,,,,,,,,,,-3.251953125,-12.421875,1,0,0,1.13728404045,,,,,2015_Sep_20_1229,A,facesParametric,9,59.6826264144,
./stim/MorphF4_02_orig.jpg,205,,,,,,,,,0,205,205,205,,,,,,,,,,,,,,,-3.251953125,-12.5390625,1,0,0,1.38838815689,,,,,2015_Sep_20_1229,A,facesParametric,9,59.6826264144,
./stim/MorphM3_04_orig.jpg,206,,,,,,,,,0,206,206,206,,,,,,,,,,,,,,,-3.28125,-12.65625,1,0,0,1.07109379768,,,,,2015_Sep_20_1229,A,facesParametric,9,59.6826264144,
./stim/MorphM7_06_orig.jpg,207,,,,,,,,,0,207,207,207,,,,,,,,,,,,,,,-3.369140625,-12.861328125,0,0,1,1.90892577171,,,,,2015_Sep_20_1229,A,facesParametric,9,59.6826264144,
./stim/MorphM3_06_orig.jpg,208,,,,,,,,,0,208,208,208,,,,,,,,,,,,,,,-3.3984375,-12.919921875,1,0,0,1.20577597618,,,,,2015_Sep_20_1229,A,facesParametric,9,59.6826264144,
./stim/MorphF2_04_orig.jpg,209,,,,,,,,,0,209,209,209,,,,,,,,,,,,,,,-3.515625,-13.06640625,1,0,0,1.87544202805,,,,,2015_Sep_20_1229,A,facesParametric,9,59.6826264144,
./stim/MorphF9_02_orig.jpg,210,,,,,,,,,0,210,210,210,,,,,,,,,,,,,,,-3.57421875,-13.095703125,1,0,0,1.323127985,,,,,2015_Sep_20_1229,A,facesParametric,9,59.6826264144,
./stim/MorphM1_10_orig.jpg,211,,,,,,,,,0,211,211,211,,,,,,,,,,,,,,,-3.6328125,-13.154296875,1,0,0,1.30620789528,,,,,2015_Sep_20_1229,A,facesParametric,9,59.6826264144,
./stim/MorphM8_08_orig.jpg,212,,,,,,,,,0,212,212,212,,,,,,,,,,,,,,,-3.80859375,-13.154296875,0,0,1,1.38924098015,,,,,2015_Sep_20_1229,A,facesParametric,9,59.6826264144,
./stim/MorphF6_09_orig.jpg,213,,,,,,,,,0,213,213,213,,,,,,,,,,,,,,,-3.896484375,-13.154296875,0,0,1,1.47247195244,,,,,2015_Sep_20_1229,A,facesParametric,9,59.6826264144,
./stim/MorphM1_00_orig.jpg,214,,,,,,,,,0,214,214,214,,,,,,,,,,,,,,,-3.92578125,-13.154296875,1,0,0,1.92583298683,,,,,2015_Sep_20_1229,A,facesParametric,9,59.6826264144,
./stim/MorphM6_02_orig.jpg,215,,,,,,,,,0,215,215,215,,,,,,,,,,,,,,,-3.984375,-13.154296875,1,0,0,1.85925388336,,,,,2015_Sep_20_1229,A,facesParametric,9,59.6826264144,
./stim/MorphM4_00_orig.jpg,216,,,,,,,,,0,216,216,216,,,,,,,,,,,,,,,-4.013671875,-13.154296875,1,0,0,1.39012122154,,,,,2015_Sep_20_1229,A,facesParametric,9,59.6826264144,
./stim/MorphF6_04_orig.jpg,217,,,,,,,,,0,217,217,217,,,,,,,,,,,,,,,-4.072265625,-13.125,1,0,0,2.74728798866,,,,,2015_Sep_20_1229,A,facesParametric,9,59.6826264144,
./stim/MorphM5_03_orig.jpg,218,,,,,,,,,0,218,218,218,,,,,,,,,,,,,,,-4.27734375,-13.154296875,0,0,1,1.43967199326,,,,,2015_Sep_20_1229,A,facesParametric,9,59.6826264144,
./stim/MorphF5_02_orig.jpg,219,,,,,,,,,0,219,219,219,,,,,,,,,,,,,,,-4.365234375,-13.154296875,0,0,1,3.43451094627,,,,,2015_Sep_20_1229,A,facesParametric,9,59.6826264144,
,,,,,,,,,,,,,,,,,,,,,,,,,,,,,,,,,,,,return,4.3645157814,2015_Sep_20_1229,A,facesParametric,9,59.6826264144,
