img,descript,name,context,trials.thisRepN,trials.thisTrialN,trials.thisN,trials.thisIndex,key_resp_2.keys,key_resp_2.rt,ratingBekannt.response,ratingBekannt.rt,date,frameRate,expName,session,participant,
,,,,,,,,space,18.2246098662,,,2017_Feb_06_1310,60.0030411576,textInputTest,001,10,
./img/BastianSchweinsteiger1.jpg,Fußballspieler bei Manchester United früher FC Bayern München,Bastian Schweinsteiger,Sportler,0,0,0,14,,,ja,11.013,2017_Feb_06_1310,60.0030411576,textInputTest,001,10,
./img/CristinMilioti(Tracy_Mutter)1.jpg,"How I Met Your Mother" (Tracy Mosby die Mutter),Cristin Milioti,Schauspielerin,0,1,1,19,,,nein,5.929,2017_Feb_06_1310,60.0030411576,textInputTest,001,10,
./img/OmarEpps(DrEricForeman)1.jpg,"Dr. House" (Dr. Eric Foreman),Omar Epps,Schauspieler,0,2,2,34,,,ja,4.334,2017_Feb_06_1310,60.0030411576,textInputTest,001,10,
./img/KaleyCuoco(Penny)2.jpg,"The Big Bang Theory" (Penny Hofstadter),Kaley Cuoco,Schauspielerin,0,3,3,30,,,ja,3.29,2017_Feb_06_1310,60.0030411576,textInputTest,001,10,
./img/CarenMiosga4.jpg,"tagesthemen" früher "ttt - titel thesen temperamente",Caren Miosga,Moderatorin,0,4,4,3,,,nein,4.14,2017_Feb_06_1310,60.0030411576,textInputTest,001,10,
./img/CobieSmulders(Robin)2.jpg,"How I Met Your Mother" (Robin Scherbatsky),Cobie Smulders,Schauspielerin,0,5,5,18,,,nein,3.125,2017_Feb_06_1310,60.0030411576,textInputTest,001,10,
./img/LisaEdelstein(DrLisaCuddy)2.jpg,"Dr. House" (Dr. Lisa Cuddy),Lisa Edelstein,Schauspielerin,0,6,6,32,,,ja,3.227,2017_Feb_06_1310,60.0030411576,textInputTest,001,10,
./img/EmilyDeschanel3.jpg,"Bones - Die Knochenjägerin" (Dr. Temperance 'Bones' Brennan),Emily Deschanel,Schauspielerin,0,7,7,4,,,ja,7.049,2017_Feb_06_1310,60.0030411576,textInputTest,001,10,
./img/NicoleKidman4.jpg,"Australia" "Moulin Rouge" "To Die For",Nicole Kidman,Schauspielerin,0,8,8,11,,,ja,3.328,2017_Feb_06_1310,60.0030411576,textInputTest,001,10,
./img/ElvisPresley1.jpg,"Hound Dog" "In the Ghetto" "Jailhouse Rock",Elvis Presley,Sänger,0,9,9,21,,,ja,1.824,2017_Feb_06_1310,60.0030411576,textInputTest,001,10,
./img/DannFlorek(DonaldDonCragen)1.jpg,"Law & Order: Special Victims Unit" (Donald 'Don' Cragen),Dann Florek,Schauspieler,0,10,10,20,,,nein,3.149,2017_Feb_06_1310,60.0030411576,textInputTest,001,10,
./img/KatjaBurkard5.jpg,"Punkt 12" bei RTL,Katja Burkard,Moderatorin,0,11,11,8,,,ja,2.761,2017_Feb_06_1310,60.0030411576,textInputTest,001,10,
./img/BenedictCumberbatch4.jpg,"Der Hobbit"-Filme (Stimme des Drachen Smaug) "Sherlock",Benedict Cumberbatch,Schauspieler,0,12,12,15,,,ja,1.927,2017_Feb_06_1310,60.0030411576,textInputTest,001,10,
./img/JoshRadnor(Ted)1.jpg,"How I Met Your Mother" (Ted Mosby),Josh Radnor,Schauspieler,0,13,13,28,,,nein,2.728,2017_Feb_06_1310,60.0030411576,textInputTest,001,10,
./img/Shakira1.jpg,"Hips Don't Lie" "Waka Waka" "Whenever Wherever",Shakira,Sängerin,0,14,14,36,,,ja,3.022,2017_Feb_06_1310,60.0030411576,textInputTest,001,10,
./img/BritneySpears5.jpg,"…Baby One More Time" "Oops! …I Did It Again" "Toxic",Britney Spears,Sängerin,0,15,15,17,,,ja,2.106,2017_Feb_06_1310,60.0030411576,textInputTest,001,10,
./img/JoachimLoew1.jpg,Bundestrainer der deutschen Fußballnationalmannschaft,Joachim Löw,Trainer,0,16,16,27,,,ja,1.759,2017_Feb_06_1310,60.0030411576,textInputTest,001,10,
./img/AlysonHannigan(Lily)1.jpg,"How I Met Your Mother" (Lily Aldrin),Alyson Hannigan,Schauspielerin,0,17,17,0,,,ja,5.308,2017_Feb_06_1310,60.0030411576,textInputTest,001,10,
./img/EmmaWatson(HermioneGranger)1.jpg,"Harry Potter"-Filme (Hermione Granger),Emma Watson,Schauspielerin,0,18,18,22,,,ja,3.295,2017_Feb_06_1310,60.0030411576,textInputTest,001,10,
./img/MilaKunis5.jpg,"Black Swan" "Freunde mit gewissen Vorzügen" "Ted",Mila Kunis,Schauspielerin,0,19,19,33,,,ja,2.697,2017_Feb_06_1310,60.0030411576,textInputTest,001,10,
./img/GeorgeClooney6.jpg,"Batman & Robin" "Gravity" "Ocean's Eleven",George Clooney,Schauspieler,0,20,20,23,,,ja,1.636,2017_Feb_06_1310,60.0030411576,textInputTest,001,10,
./img/Beyonce2.jpg,"Crazy in Love" "Halo" "If I Were a Boy" "Single Ladies",Beyoncé,Sängerin,0,21,21,16,,,ja,2.061,2017_Feb_06_1310,60.0030411576,textInputTest,001,10,
./img/AngelaMerkel1.jpg,Bundeskanzlerin CDU,Angela Merkel,Politikerin,0,22,22,1,,,ja,1.71,2017_Feb_06_1310,60.0030411576,textInputTest,001,10,
./img/UrsulavonderLeyen1.jpg,Bundesministerin der Verteidigung CDU,Ursula von der Leyen,Politikerin,0,23,23,40,,,ja,1.741,2017_Feb_06_1310,60.0030411576,textInputTest,001,10,
./img/NeilPatrickHarris(Barney)4.jpg,"How I Met Your Mother" (Barney Stinson),Neil Patrick Harris,Schauspieler,0,24,24,10,,,ja,4.595,2017_Feb_06_1310,60.0030411576,textInputTest,001,10,
./img/SigmarGabriel1.jpg,Bundesminister für Wirtschaft und Energie & Parteivorsitzender SPD,Sigmar Gabriel,Politiker,0,25,25,37,,,ja,1.849,2017_Feb_06_1310,60.0030411576,textInputTest,001,10,
./img/JanHofer1.jpg,"Tagesschau" in der ARD,Jan Hofer,Nachrichtensprecher,0,26,26,25,,,nein,2.505,2017_Feb_06_1310,60.0030411576,textInputTest,001,10,
./img/TaylorSwift1.jpg,"Blank Space" "I Knew You Were Trouble" "Shake It Off",Taylor Swift,Sängerin,0,27,27,38,,,ja,2.155,2017_Feb_06_1310,60.0030411576,textInputTest,001,10,
./img/GuentherJauch2.jpg,"Wer wird Millionär?" früher "stern TV",Günther Jauch,Moderator ,0,28,28,5,,,ja,1.826,2017_Feb_06_1310,60.0030411576,textInputTest,001,10,
./img/JudithRakers7.jpg,"Tagesschau" in der ARD,Judith Rakers,Nachrichtensprecherin,0,29,29,29,,,nein,1.795,2017_Feb_06_1310,60.0030411576,textInputTest,001,10,
./img/TomCruise2.jpg,"Knight and Day" "Mission: Impossible"-Filme "Oblivion",Tom Cruise,Schauspieler,0,30,30,39,,,ja,2.36,2017_Feb_06_1310,60.0030411576,textInputTest,001,10,
./img/Usher1.jpg,"DJ Got Us Fallin' in Love" "More" "OMG" "Yeah!",Usher,Sänger,0,31,31,41,,,ja,2.293,2017_Feb_06_1310,60.0030411576,textInputTest,001,10,
./img/SahraWagenknecht6.jpg,Fraktionsvorsitzende DIE LINKE,Sahra Wagenknecht,Politikerin  ,0,32,32,35,,,ja,1.495,2017_Feb_06_1310,60.0030411576,textInputTest,001,10,
./img/HughLaurie(DrHouse)9.jpg,"Dr. House" (Dr. Gregory House),Hugh Laurie,Schauspieler ,0,33,33,6,,,ja,2.231,2017_Feb_06_1310,60.0030411576,textInputTest,001,10,
./img/WillSmith4.jpg,"I Am Legend" "Independence Day" "Men in Black"-Filme,Will Smith,Schauspieler,0,34,34,13,,,ja,6.897,2017_Feb_06_1310,60.0030411576,textInputTest,001,10,
./img/LeonardoDiCaprio1.jpg,"Django Unchained" "The Great Gatsby" "Titanic",Leonardo DiCaprio,Schauspieler,0,35,35,31,,,ja,1.55,2017_Feb_06_1310,60.0030411576,textInputTest,001,10,
./img/Ice-T(OdafinFinTutuola)1.jpg,"Law & Order: Special Victims Unit" (Odafin 'Fin' Tutuola),Ice-T,Schauspieler und Musiker,0,36,36,24,,,nein,5.439,2017_Feb_06_1310,60.0030411576,textInputTest,001,10,
./img/BarackObama2.jpg,Präsident der USA Demokratische Partei,Barack Obama,Politiker,0,37,37,2,,,ja,2.238,2017_Feb_06_1310,60.0030411576,textInputTest,001,10,
./img/RobertSeanLeonard(Wilson)2.jpg,"Dr. House" (Dr. James Wilson),Robert Sean Leonard,Schauspieler,0,38,38,12,,,ja,2.396,2017_Feb_06_1310,60.0030411576,textInputTest,001,10,
./img/JimParsons(SheldonCooper)1.jpg,"The Big Bang Theory" (Dr. Sheldon Cooper),Jim Parsons,Schauspieler,0,39,39,26,,,ja,1.754,2017_Feb_06_1310,60.0030411576,textInputTest,001,10,
./img/JasonSegel(Marshall)2.jpg,"How I Met Your Mother" (Marshall Eriksen),Jason Segel,Schauspieler,0,40,40,7,,,nein,2.279,2017_Feb_06_1310,60.0030411576,textInputTest,001,10,
./img/MariskaHargitay(Liv)1.jpg,"Law & Order: Special Victims Unit" (Olivia 'Liv' Benson),Mariska Hargitay,Schauspielerin,0,41,41,9,,,nein,4.046,2017_Feb_06_1310,60.0030411576,textInputTest,001,10,
