img,descript,name,context,trials.thisRepN,trials.thisTrialN,trials.thisN,trials.thisIndex,key_resp_2.keys,key_resp_2.rt,ratingBekannt.response,ratingBekannt.rt,date,frameRate,expName,session,participant,
,,,,,,,,space,38.0002072245,,,2017_Feb_08_1129,60.0402529194,textInputTest,001,13,
./img/NeilPatrickHarris(Barney)4.jpg,"How I Met Your Mother" (Barney Stinson),Neil Patrick Harris,Schauspieler,0,0,0,10,,,ja,30.417,2017_Feb_08_1129,60.0402529194,textInputTest,001,13,
./img/LeonardoDiCaprio1.jpg,"Django Unchained" "The Great Gatsby" "Titanic",Leonardo DiCaprio,Schauspieler,0,1,1,31,,,ja,3.1,2017_Feb_08_1129,60.0402529194,textInputTest,001,13,
./img/Beyonce2.jpg,"Crazy in Love" "Halo" "If I Were a Boy" "Single Ladies",Beyoncé,Sängerin,0,2,2,16,,,ja,5.288,2017_Feb_08_1129,60.0402529194,textInputTest,001,13,
./img/RobertSeanLeonard(Wilson)2.jpg,"Dr. House" (Dr. James Wilson),Robert Sean Leonard,Schauspieler,0,3,3,12,,,nein,10.563,2017_Feb_08_1129,60.0402529194,textInputTest,001,13,
./img/GeorgeClooney6.jpg,"Batman & Robin" "Gravity" "Ocean's Eleven",George Clooney,Schauspieler,0,4,4,23,,,ja,6.821,2017_Feb_08_1129,60.0402529194,textInputTest,001,13,
./img/JanHofer1.jpg,"Tagesschau" in der ARD,Jan Hofer,Nachrichtensprecher,0,5,5,25,,,nein,4.736,2017_Feb_08_1129,60.0402529194,textInputTest,001,13,
./img/Shakira1.jpg,"Hips Don't Lie" "Waka Waka" "Whenever Wherever",Shakira,Sängerin,0,6,6,36,,,ja,2.403,2017_Feb_08_1129,60.0402529194,textInputTest,001,13,
./img/JoachimLoew1.jpg,Bundestrainer der deutschen Fußballnationalmannschaft,Joachim Löw,Trainer,0,7,7,27,,,ja,3.399,2017_Feb_08_1129,60.0402529194,textInputTest,001,13,
./img/KaleyCuoco(Penny)2.jpg,"The Big Bang Theory" (Penny Hofstadter),Kaley Cuoco,Schauspielerin,0,8,8,30,,,nein,4.042,2017_Feb_08_1129,60.0402529194,textInputTest,001,13,
./img/LisaEdelstein(DrLisaCuddy)2.jpg,"Dr. House" (Dr. Lisa Cuddy),Lisa Edelstein,Schauspielerin,0,9,9,32,,,nein,3.146,2017_Feb_08_1129,60.0402529194,textInputTest,001,13,
./img/SigmarGabriel1.jpg,Bundesminister für Wirtschaft und Energie & Parteivorsitzender SPD,Sigmar Gabriel,Politiker,0,10,10,37,,,nein,3.612,2017_Feb_08_1129,60.0402529194,textInputTest,001,13,
./img/GuentherJauch2.jpg,"Wer wird Millionär?" früher "stern TV",Günther Jauch,Moderator ,0,11,11,5,,,ja,2.215,2017_Feb_08_1129,60.0402529194,textInputTest,001,13,
./img/AlysonHannigan(Lily)1.jpg,"How I Met Your Mother" (Lily Aldrin),Alyson Hannigan,Schauspielerin,0,12,12,0,,,nein,3.396,2017_Feb_08_1129,60.0402529194,textInputTest,001,13,
./img/BarackObama2.jpg,Präsident der USA Demokratische Partei,Barack Obama,Politiker,0,13,13,2,,,ja,2.244,2017_Feb_08_1129,60.0402529194,textInputTest,001,13,
./img/JimParsons(SheldonCooper)1.jpg,"The Big Bang Theory" (Dr. Sheldon Cooper),Jim Parsons,Schauspieler,0,14,14,26,,,nein,3.886,2017_Feb_08_1129,60.0402529194,textInputTest,001,13,
./img/JudithRakers7.jpg,"Tagesschau" in der ARD,Judith Rakers,Nachrichtensprecherin,0,15,15,29,,,nein,3.729,2017_Feb_08_1129,60.0402529194,textInputTest,001,13,
./img/JasonSegel(Marshall)2.jpg,"How I Met Your Mother" (Marshall Eriksen),Jason Segel,Schauspieler,0,16,16,7,,,nein,3.345,2017_Feb_08_1129,60.0402529194,textInputTest,001,13,
./img/KatjaBurkard5.jpg,"Punkt 12" bei RTL,Katja Burkard,Moderatorin,0,17,17,8,,,nein,4.718,2017_Feb_08_1129,60.0402529194,textInputTest,001,13,
./img/SahraWagenknecht6.jpg,Fraktionsvorsitzende DIE LINKE,Sahra Wagenknecht,Politikerin  ,0,18,18,35,,,nein,4.048,2017_Feb_08_1129,60.0402529194,textInputTest,001,13,
./img/CarenMiosga4.jpg,"tagesthemen" früher "ttt - titel thesen temperamente",Caren Miosga,Moderatorin,0,19,19,3,,,nein,3.61,2017_Feb_08_1129,60.0402529194,textInputTest,001,13,
./img/CobieSmulders(Robin)2.jpg,"How I Met Your Mother" (Robin Scherbatsky),Cobie Smulders,Schauspielerin,0,20,20,18,,,nein,4.502,2017_Feb_08_1129,60.0402529194,textInputTest,001,13,
./img/BenedictCumberbatch4.jpg,"Der Hobbit"-Filme (Stimme des Drachen Smaug) "Sherlock",Benedict Cumberbatch,Schauspieler,0,21,21,15,,,ja,25.402,2017_Feb_08_1129,60.0402529194,textInputTest,001,13,
./img/BastianSchweinsteiger1.jpg,Fußballspieler bei Manchester United früher FC Bayern München,Bastian Schweinsteiger,Sportler,0,22,22,14,,,ja,5.732,2017_Feb_08_1129,60.0402529194,textInputTest,001,13,
./img/JoshRadnor(Ted)1.jpg,"How I Met Your Mother" (Ted Mosby),Josh Radnor,Schauspieler,0,23,23,28,,,nein,4.436,2017_Feb_08_1129,60.0402529194,textInputTest,001,13,
./img/EmilyDeschanel3.jpg,"Bones - Die Knochenjägerin" (Dr. Temperance 'Bones' Brennan),Emily Deschanel,Schauspielerin,0,24,24,4,,,nein,3.879,2017_Feb_08_1129,60.0402529194,textInputTest,001,13,
./img/MariskaHargitay(Liv)1.jpg,"Law & Order: Special Victims Unit" (Olivia 'Liv' Benson),Mariska Hargitay,Schauspielerin,0,25,25,9,,,nein,3.931,2017_Feb_08_1129,60.0402529194,textInputTest,001,13,
./img/WillSmith4.jpg,"I Am Legend" "Independence Day" "Men in Black"-Filme,Will Smith,Schauspieler,0,26,26,13,,,ja,2.933,2017_Feb_08_1129,60.0402529194,textInputTest,001,13,
./img/Usher1.jpg,"DJ Got Us Fallin' in Love" "More" "OMG" "Yeah!",Usher,Sänger,0,27,27,41,,,ja,2.686,2017_Feb_08_1129,60.0402529194,textInputTest,001,13,
./img/AngelaMerkel1.jpg,Bundeskanzlerin CDU,Angela Merkel,Politikerin,0,28,28,1,,,ja,2.149,2017_Feb_08_1129,60.0402529194,textInputTest,001,13,
./img/EmmaWatson(HermioneGranger)1.jpg,"Harry Potter"-Filme (Hermione Granger),Emma Watson,Schauspielerin,0,29,29,22,,,ja,2.681,2017_Feb_08_1129,60.0402529194,textInputTest,001,13,
./img/NicoleKidman4.jpg,"Australia" "Moulin Rouge" "To Die For",Nicole Kidman,Schauspielerin,0,30,30,11,,,ja,7.004,2017_Feb_08_1129,60.0402529194,textInputTest,001,13,
./img/Ice-T(OdafinFinTutuola)1.jpg,"Law & Order: Special Victims Unit" (Odafin 'Fin' Tutuola),Ice-T,Schauspieler und Musiker,0,31,31,24,,,nein,4.897,2017_Feb_08_1129,60.0402529194,textInputTest,001,13,
./img/DannFlorek(DonaldDonCragen)1.jpg,"Law & Order: Special Victims Unit" (Donald 'Don' Cragen),Dann Florek,Schauspieler,0,32,32,20,,,nein,3.704,2017_Feb_08_1129,60.0402529194,textInputTest,001,13,
./img/HughLaurie(DrHouse)9.jpg,"Dr. House" (Dr. Gregory House),Hugh Laurie,Schauspieler ,0,33,33,6,,,nein,6.001,2017_Feb_08_1129,60.0402529194,textInputTest,001,13,
./img/TaylorSwift1.jpg,"Blank Space" "I Knew You Were Trouble" "Shake It Off",Taylor Swift,Sängerin,0,34,34,38,,,ja,3.286,2017_Feb_08_1129,60.0402529194,textInputTest,001,13,
./img/OmarEpps(DrEricForeman)1.jpg,"Dr. House" (Dr. Eric Foreman),Omar Epps,Schauspieler,0,35,35,34,,,nein,3.445,2017_Feb_08_1129,60.0402529194,textInputTest,001,13,
./img/TomCruise2.jpg,"Knight and Day" "Mission: Impossible"-Filme "Oblivion",Tom Cruise,Schauspieler,0,36,36,39,,,ja,4.034,2017_Feb_08_1129,60.0402529194,textInputTest,001,13,
./img/MilaKunis5.jpg,"Black Swan" "Freunde mit gewissen Vorzügen" "Ted",Mila Kunis,Schauspielerin,0,37,37,33,,,nein,4.22,2017_Feb_08_1129,60.0402529194,textInputTest,001,13,
./img/CristinMilioti(Tracy_Mutter)1.jpg,"How I Met Your Mother" (Tracy Mosby die Mutter),Cristin Milioti,Schauspielerin,0,38,38,19,,,nein,4.237,2017_Feb_08_1129,60.0402529194,textInputTest,001,13,
./img/BritneySpears5.jpg,"…Baby One More Time" "Oops! …I Did It Again" "Toxic",Britney Spears,Sängerin,0,39,39,17,,,ja,2.388,2017_Feb_08_1129,60.0402529194,textInputTest,001,13,
./img/ElvisPresley1.jpg,"Hound Dog" "In the Ghetto" "Jailhouse Rock",Elvis Presley,Sänger,0,40,40,21,,,ja,2.319,2017_Feb_08_1129,60.0402529194,textInputTest,001,13,
./img/UrsulavonderLeyen1.jpg,Bundesministerin der Verteidigung CDU,Ursula von der Leyen,Politikerin,0,41,41,40,,,nein,3.491,2017_Feb_08_1129,60.0402529194,textInputTest,001,13,
