img,descript,name,context,trials.thisRepN,trials.thisTrialN,trials.thisN,trials.thisIndex,key_resp_2.keys,key_resp_2.rt,ratingBekannt.response,ratingBekannt.rt,date,frameRate,expName,session,participant,
,,,,,,,,space,23.7048287671,,,2017_Feb_23_1752,60.0402332719,textInputTest,001,23,
./img/BarackObama2.jpg,Präsident der USA Demokratische Partei,Barack Obama,Politiker,0,0,0,2,,,ja,8.416,2017_Feb_23_1752,60.0402332719,textInputTest,001,23,
./img/SahraWagenknecht6.jpg,Fraktionsvorsitzende DIE LINKE,Sahra Wagenknecht,Politikerin  ,0,1,1,35,,,ja,8.072,2017_Feb_23_1752,60.0402332719,textInputTest,001,23,
./img/CarenMiosga4.jpg,"tagesthemen" früher "ttt - titel thesen temperamente",Caren Miosga,Moderatorin,0,2,2,3,,,nein,5.024,2017_Feb_23_1752,60.0402332719,textInputTest,001,23,
./img/AngelaMerkel1.jpg,Bundeskanzlerin CDU,Angela Merkel,Politikerin,0,3,3,1,,,ja,2.37,2017_Feb_23_1752,60.0402332719,textInputTest,001,23,
./img/DannFlorek(DonaldDonCragen)1.jpg,"Law & Order: Special Victims Unit" (Donald 'Don' Cragen),Dann Florek,Schauspieler,0,4,4,20,,,nein,10.169,2017_Feb_23_1752,60.0402332719,textInputTest,001,23,
./img/JimParsons(SheldonCooper)1.jpg,"The Big Bang Theory" (Dr. Sheldon Cooper),Jim Parsons,Schauspieler,0,5,5,26,,,ja,5.481,2017_Feb_23_1752,60.0402332719,textInputTest,001,23,
./img/UrsulavonderLeyen1.jpg,Bundesministerin der Verteidigung CDU,Ursula von der Leyen,Politikerin,0,6,6,40,,,ja,7.398,2017_Feb_23_1752,60.0402332719,textInputTest,001,23,
./img/BritneySpears5.jpg,"…Baby One More Time" "Oops! …I Did It Again" "Toxic",Britney Spears,Sängerin,0,7,7,17,,,ja,7.52,2017_Feb_23_1752,60.0402332719,textInputTest,001,23,
./img/KatjaBurkard5.jpg,"Punkt 12" bei RTL,Katja Burkard,Moderatorin,0,8,8,8,,,ja,15.327,2017_Feb_23_1752,60.0402332719,textInputTest,001,23,
./img/Beyonce2.jpg,"Crazy in Love" "Halo" "If I Were a Boy" "Single Ladies",Beyoncé,Sängerin,0,9,9,16,,,ja,9.125,2017_Feb_23_1752,60.0402332719,textInputTest,001,23,
./img/MilaKunis5.jpg,"Black Swan" "Freunde mit gewissen Vorzügen" "Ted",Mila Kunis,Schauspielerin,0,10,10,33,,,nein,4.123,2017_Feb_23_1752,60.0402332719,textInputTest,001,23,
./img/Shakira1.jpg,"Hips Don't Lie" "Waka Waka" "Whenever Wherever",Shakira,Sängerin,0,11,11,36,,,ja,7.147,2017_Feb_23_1752,60.0402332719,textInputTest,001,23,
./img/GuentherJauch2.jpg,"Wer wird Millionär?" früher "stern TV",Günther Jauch,Moderator ,0,12,12,5,,,ja,2.164,2017_Feb_23_1752,60.0402332719,textInputTest,001,23,
./img/JanHofer1.jpg,"Tagesschau" in der ARD,Jan Hofer,Nachrichtensprecher,0,13,13,25,,,nein,3.564,2017_Feb_23_1752,60.0402332719,textInputTest,001,23,
./img/LeonardoDiCaprio1.jpg,"Django Unchained" "The Great Gatsby" "Titanic",Leonardo DiCaprio,Schauspieler,0,14,14,31,,,ja,8.496,2017_Feb_23_1752,60.0402332719,textInputTest,001,23,
./img/JudithRakers7.jpg,"Tagesschau" in der ARD,Judith Rakers,Nachrichtensprecherin,0,15,15,29,,,nein,6.748,2017_Feb_23_1752,60.0402332719,textInputTest,001,23,
./img/Ice-T(OdafinFinTutuola)1.jpg,"Law & Order: Special Victims Unit" (Odafin 'Fin' Tutuola),Ice-T,Schauspieler und Musiker,0,16,16,24,,,nein,20.74,2017_Feb_23_1752,60.0402332719,textInputTest,001,23,
./img/EmilyDeschanel3.jpg,"Bones - Die Knochenjägerin" (Dr. Temperance 'Bones' Brennan),Emily Deschanel,Schauspielerin,0,17,17,4,,,nein,16.691,2017_Feb_23_1752,60.0402332719,textInputTest,001,23,
./img/TaylorSwift1.jpg,"Blank Space" "I Knew You Were Trouble" "Shake It Off",Taylor Swift,Sängerin,0,18,18,38,,,ja,8.426,2017_Feb_23_1752,60.0402332719,textInputTest,001,23,
./img/MariskaHargitay(Liv)1.jpg,"Law & Order: Special Victims Unit" (Olivia 'Liv' Benson),Mariska Hargitay,Schauspielerin,0,19,19,9,,,nein,6.506,2017_Feb_23_1752,60.0402332719,textInputTest,001,23,
./img/BastianSchweinsteiger1.jpg,Fußballspieler bei Manchester United früher FC Bayern München,Bastian Schweinsteiger,Sportler,0,20,20,14,,,ja,5.451,2017_Feb_23_1752,60.0402332719,textInputTest,001,23,
./img/JoachimLoew1.jpg,Bundestrainer der deutschen Fußballnationalmannschaft,Joachim Löw,Trainer,0,21,21,27,,,ja,2.693,2017_Feb_23_1752,60.0402332719,textInputTest,001,23,
./img/ElvisPresley1.jpg,"Hound Dog" "In the Ghetto" "Jailhouse Rock",Elvis Presley,Sänger,0,22,22,21,,,ja,3.099,2017_Feb_23_1752,60.0402332719,textInputTest,001,23,
./img/LisaEdelstein(DrLisaCuddy)2.jpg,"Dr. House" (Dr. Lisa Cuddy),Lisa Edelstein,Schauspielerin,0,23,23,32,,,nein,5.867,2017_Feb_23_1752,60.0402332719,textInputTest,001,23,
./img/GeorgeClooney6.jpg,"Batman & Robin" "Gravity" "Ocean's Eleven",George Clooney,Schauspieler,0,24,24,23,,,ja,4.23,2017_Feb_23_1752,60.0402332719,textInputTest,001,23,
./img/NicoleKidman4.jpg,"Australia" "Moulin Rouge" "To Die For",Nicole Kidman,Schauspielerin,0,25,25,11,,,ja,6.364,2017_Feb_23_1752,60.0402332719,textInputTest,001,23,
./img/JoshRadnor(Ted)1.jpg,"How I Met Your Mother" (Ted Mosby),Josh Radnor,Schauspieler,0,26,26,28,,,ja,5.425,2017_Feb_23_1752,60.0402332719,textInputTest,001,23,
./img/OmarEpps(DrEricForeman)1.jpg,"Dr. House" (Dr. Eric Foreman),Omar Epps,Schauspieler,0,27,27,34,,,nein,6.733,2017_Feb_23_1752,60.0402332719,textInputTest,001,23,
./img/BenedictCumberbatch4.jpg,"Der Hobbit"-Filme (Stimme des Drachen Smaug) "Sherlock",Benedict Cumberbatch,Schauspieler,0,28,28,15,,,nein,11.253,2017_Feb_23_1752,60.0402332719,textInputTest,001,23,
./img/RobertSeanLeonard(Wilson)2.jpg,"Dr. House" (Dr. James Wilson),Robert Sean Leonard,Schauspieler,0,29,29,12,,,nein,5.728,2017_Feb_23_1752,60.0402332719,textInputTest,001,23,
./img/AlysonHannigan(Lily)1.jpg,"How I Met Your Mother" (Lily Aldrin),Alyson Hannigan,Schauspielerin,0,30,30,0,,,ja,10.006,2017_Feb_23_1752,60.0402332719,textInputTest,001,23,
./img/NeilPatrickHarris(Barney)4.jpg,"How I Met Your Mother" (Barney Stinson),Neil Patrick Harris,Schauspieler,0,31,31,10,,,ja,5.741,2017_Feb_23_1752,60.0402332719,textInputTest,001,23,
./img/CobieSmulders(Robin)2.jpg,"How I Met Your Mother" (Robin Scherbatsky),Cobie Smulders,Schauspielerin,0,32,32,18,,,ja,12.611,2017_Feb_23_1752,60.0402332719,textInputTest,001,23,
./img/SigmarGabriel1.jpg,Bundesminister für Wirtschaft und Energie & Parteivorsitzender SPD,Sigmar Gabriel,Politiker,0,33,33,37,,,nein,4.581,2017_Feb_23_1752,60.0402332719,textInputTest,001,23,
./img/TomCruise2.jpg,"Knight and Day" "Mission: Impossible"-Filme "Oblivion",Tom Cruise,Schauspieler,0,34,34,39,,,ja,5.427,2017_Feb_23_1752,60.0402332719,textInputTest,001,23,
./img/EmmaWatson(HermioneGranger)1.jpg,"Harry Potter"-Filme (Hermione Granger),Emma Watson,Schauspielerin,0,35,35,22,,,nein,4.289,2017_Feb_23_1752,60.0402332719,textInputTest,001,23,
./img/WillSmith4.jpg,"I Am Legend" "Independence Day" "Men in Black"-Filme,Will Smith,Schauspieler,0,36,36,13,,,ja,18.607,2017_Feb_23_1752,60.0402332719,textInputTest,001,23,
./img/HughLaurie(DrHouse)9.jpg,"Dr. House" (Dr. Gregory House),Hugh Laurie,Schauspieler ,0,37,37,6,,,ja,6.266,2017_Feb_23_1752,60.0402332719,textInputTest,001,23,
./img/KaleyCuoco(Penny)2.jpg,"The Big Bang Theory" (Penny Hofstadter),Kaley Cuoco,Schauspielerin,0,38,38,30,,,ja,9.06,2017_Feb_23_1752,60.0402332719,textInputTest,001,23,
./img/JasonSegel(Marshall)2.jpg,"How I Met Your Mother" (Marshall Eriksen),Jason Segel,Schauspieler,0,39,39,7,,,ja,3.164,2017_Feb_23_1752,60.0402332719,textInputTest,001,23,
./img/Usher1.jpg,"DJ Got Us Fallin' in Love" "More" "OMG" "Yeah!",Usher,Sänger,0,40,40,41,,,ja,6.397,2017_Feb_23_1752,60.0402332719,textInputTest,001,23,
./img/CristinMilioti(Tracy_Mutter)1.jpg,"How I Met Your Mother" (Tracy Mosby die Mutter),Cristin Milioti,Schauspielerin,0,41,41,19,,,nein,12.622,2017_Feb_23_1752,60.0402332719,textInputTest,001,23,
