img,descript,name,context,trials.thisRepN,trials.thisTrialN,trials.thisN,trials.thisIndex,key_resp_2.keys,key_resp_2.rt,ratingBekannt.response,ratingBekannt.rt,date,frameRate,expName,session,participant,
,,,,,,,,space,26.6539196732,,,2017_Feb_24_1527,60.0236248218,textInputTest,001,25,
./img/Beyonce2.jpg,"Crazy in Love" "Halo" "If I Were a Boy" "Single Ladies",Beyoncé,Sängerin,0,0,0,16,,,ja,19.72,2017_Feb_24_1527,60.0236248218,textInputTest,001,25,
./img/DannFlorek(DonaldDonCragen)1.jpg,"Law & Order: Special Victims Unit" (Donald 'Don' Cragen),Dann Florek,Schauspieler,0,1,1,20,,,nein,20.143,2017_Feb_24_1527,60.0236248218,textInputTest,001,25,
./img/GuentherJauch2.jpg,"Wer wird Millionär?" früher "stern TV",Günther Jauch,Moderator ,0,2,2,5,,,ja,6.968,2017_Feb_24_1527,60.0236248218,textInputTest,001,25,
./img/CristinMilioti(Tracy_Mutter)1.jpg,"How I Met Your Mother" (Tracy Mosby die Mutter),Cristin Milioti,Schauspielerin,0,3,3,19,,,ja,5.373,2017_Feb_24_1527,60.0236248218,textInputTest,001,25,
./img/Shakira1.jpg,"Hips Don't Lie" "Waka Waka" "Whenever Wherever",Shakira,Sängerin,0,4,4,36,,,ja,4.643,2017_Feb_24_1527,60.0236248218,textInputTest,001,25,
./img/TaylorSwift1.jpg,"Blank Space" "I Knew You Were Trouble" "Shake It Off",Taylor Swift,Sängerin,0,5,5,38,,,ja,5.289,2017_Feb_24_1527,60.0236248218,textInputTest,001,25,
./img/NeilPatrickHarris(Barney)4.jpg,"How I Met Your Mother" (Barney Stinson),Neil Patrick Harris,Schauspieler,0,6,6,10,,,ja,2.419,2017_Feb_24_1527,60.0236248218,textInputTest,001,25,
./img/HughLaurie(DrHouse)9.jpg,"Dr. House" (Dr. Gregory House),Hugh Laurie,Schauspieler ,0,7,7,6,,,ja,5.857,2017_Feb_24_1527,60.0236248218,textInputTest,001,25,
./img/BarackObama2.jpg,Präsident der USA Demokratische Partei,Barack Obama,Politiker,0,8,8,2,,,ja,4.887,2017_Feb_24_1527,60.0236248218,textInputTest,001,25,
./img/SigmarGabriel1.jpg,Bundesminister für Wirtschaft und Energie & Parteivorsitzender SPD,Sigmar Gabriel,Politiker,0,9,9,37,,,nein,5.418,2017_Feb_24_1527,60.0236248218,textInputTest,001,25,
./img/SahraWagenknecht6.jpg,Fraktionsvorsitzende DIE LINKE,Sahra Wagenknecht,Politikerin  ,0,10,10,35,,,ja,5.241,2017_Feb_24_1527,60.0236248218,textInputTest,001,25,
./img/CobieSmulders(Robin)2.jpg,"How I Met Your Mother" (Robin Scherbatsky),Cobie Smulders,Schauspielerin,0,11,11,18,,,ja,3.911,2017_Feb_24_1527,60.0236248218,textInputTest,001,25,
./img/JudithRakers7.jpg,"Tagesschau" in der ARD,Judith Rakers,Nachrichtensprecherin,0,12,12,29,,,nein,5.965,2017_Feb_24_1527,60.0236248218,textInputTest,001,25,
./img/Ice-T(OdafinFinTutuola)1.jpg,"Law & Order: Special Victims Unit" (Odafin 'Fin' Tutuola),Ice-T,Schauspieler und Musiker,0,13,13,24,,,ja,6.973,2017_Feb_24_1527,60.0236248218,textInputTest,001,25,
./img/TomCruise2.jpg,"Knight and Day" "Mission: Impossible"-Filme "Oblivion",Tom Cruise,Schauspieler,0,14,14,39,,,ja,3.712,2017_Feb_24_1527,60.0236248218,textInputTest,001,25,
./img/JimParsons(SheldonCooper)1.jpg,"The Big Bang Theory" (Dr. Sheldon Cooper),Jim Parsons,Schauspieler,0,15,15,26,,,ja,3.638,2017_Feb_24_1527,60.0236248218,textInputTest,001,25,
./img/OmarEpps(DrEricForeman)1.jpg,"Dr. House" (Dr. Eric Foreman),Omar Epps,Schauspieler,0,16,16,34,,,ja,5.846,2017_Feb_24_1527,60.0236248218,textInputTest,001,25,
./img/LisaEdelstein(DrLisaCuddy)2.jpg,"Dr. House" (Dr. Lisa Cuddy),Lisa Edelstein,Schauspielerin,0,17,17,32,,,nein,4.906,2017_Feb_24_1527,60.0236248218,textInputTest,001,25,
./img/JanHofer1.jpg,"Tagesschau" in der ARD,Jan Hofer,Nachrichtensprecher,0,18,18,25,,,nein,4.949,2017_Feb_24_1527,60.0236248218,textInputTest,001,25,
./img/BenedictCumberbatch4.jpg,"Der Hobbit"-Filme (Stimme des Drachen Smaug) "Sherlock",Benedict Cumberbatch,Schauspieler,0,19,19,15,,,ja,10.939,2017_Feb_24_1527,60.0236248218,textInputTest,001,25,
./img/Usher1.jpg,"DJ Got Us Fallin' in Love" "More" "OMG" "Yeah!",Usher,Sänger,0,20,20,41,,,ja,3.518,2017_Feb_24_1527,60.0236248218,textInputTest,001,25,
./img/NicoleKidman4.jpg,"Australia" "Moulin Rouge" "To Die For",Nicole Kidman,Schauspielerin,0,21,21,11,,,ja,5.405,2017_Feb_24_1527,60.0236248218,textInputTest,001,25,
./img/EmmaWatson(HermioneGranger)1.jpg,"Harry Potter"-Filme (Hermione Granger),Emma Watson,Schauspielerin,0,22,22,22,,,ja,3.709,2017_Feb_24_1527,60.0236248218,textInputTest,001,25,
./img/JasonSegel(Marshall)2.jpg,"How I Met Your Mother" (Marshall Eriksen),Jason Segel,Schauspieler,0,23,23,7,,,ja,2.371,2017_Feb_24_1527,60.0236248218,textInputTest,001,25,
./img/AlysonHannigan(Lily)1.jpg,"How I Met Your Mother" (Lily Aldrin),Alyson Hannigan,Schauspielerin,0,24,24,0,,,ja,2.055,2017_Feb_24_1527,60.0236248218,textInputTest,001,25,
./img/KaleyCuoco(Penny)2.jpg,"The Big Bang Theory" (Penny Hofstadter),Kaley Cuoco,Schauspielerin,0,25,25,30,,,ja,2.776,2017_Feb_24_1527,60.0236248218,textInputTest,001,25,
./img/GeorgeClooney6.jpg,"Batman & Robin" "Gravity" "Ocean's Eleven",George Clooney,Schauspieler,0,26,26,23,,,ja,2.235,2017_Feb_24_1527,60.0236248218,textInputTest,001,25,
./img/UrsulavonderLeyen1.jpg,Bundesministerin der Verteidigung CDU,Ursula von der Leyen,Politikerin,0,27,27,40,,,ja,4.093,2017_Feb_24_1527,60.0236248218,textInputTest,001,25,
./img/JoachimLoew1.jpg,Bundestrainer der deutschen Fußballnationalmannschaft,Joachim Löw,Trainer,0,28,28,27,,,ja,2.024,2017_Feb_24_1527,60.0236248218,textInputTest,001,25,
./img/KatjaBurkard5.jpg,"Punkt 12" bei RTL,Katja Burkard,Moderatorin,0,29,29,8,,,ja,4.278,2017_Feb_24_1527,60.0236248218,textInputTest,001,25,
./img/ElvisPresley1.jpg,"Hound Dog" "In the Ghetto" "Jailhouse Rock",Elvis Presley,Sänger,0,30,30,21,,,ja,3.633,2017_Feb_24_1527,60.0236248218,textInputTest,001,25,
./img/JoshRadnor(Ted)1.jpg,"How I Met Your Mother" (Ted Mosby),Josh Radnor,Schauspieler,0,31,31,28,,,ja,2.33,2017_Feb_24_1527,60.0236248218,textInputTest,001,25,
./img/WillSmith4.jpg,"I Am Legend" "Independence Day" "Men in Black"-Filme,Will Smith,Schauspieler,0,32,32,13,,,ja,2.101,2017_Feb_24_1527,60.0236248218,textInputTest,001,25,
./img/RobertSeanLeonard(Wilson)2.jpg,"Dr. House" (Dr. James Wilson),Robert Sean Leonard,Schauspieler,0,33,33,12,,,ja,4.931,2017_Feb_24_1527,60.0236248218,textInputTest,001,25,
./img/MilaKunis5.jpg,"Black Swan" "Freunde mit gewissen Vorzügen" "Ted",Mila Kunis,Schauspielerin,0,34,34,33,,,ja,4.124,2017_Feb_24_1527,60.0236248218,textInputTest,001,25,
./img/BritneySpears5.jpg,"…Baby One More Time" "Oops! …I Did It Again" "Toxic",Britney Spears,Sängerin,0,35,35,17,,,ja,3.028,2017_Feb_24_1527,60.0236248218,textInputTest,001,25,
./img/EmilyDeschanel3.jpg,"Bones - Die Knochenjägerin" (Dr. Temperance 'Bones' Brennan),Emily Deschanel,Schauspielerin,0,36,36,4,,,ja,3.392,2017_Feb_24_1527,60.0236248218,textInputTest,001,25,
./img/AngelaMerkel1.jpg,Bundeskanzlerin CDU,Angela Merkel,Politikerin,0,37,37,1,,,ja,2.051,2017_Feb_24_1527,60.0236248218,textInputTest,001,25,
./img/CarenMiosga4.jpg,"tagesthemen" früher "ttt - titel thesen temperamente",Caren Miosga,Moderatorin,0,38,38,3,,,nein,5.092,2017_Feb_24_1527,60.0236248218,textInputTest,001,25,
./img/LeonardoDiCaprio1.jpg,"Django Unchained" "The Great Gatsby" "Titanic",Leonardo DiCaprio,Schauspieler,0,39,39,31,,,ja,6.434,2017_Feb_24_1527,60.0236248218,textInputTest,001,25,
./img/MariskaHargitay(Liv)1.jpg,"Law & Order: Special Victims Unit" (Olivia 'Liv' Benson),Mariska Hargitay,Schauspielerin,0,40,40,9,,,ja,4.21,2017_Feb_24_1527,60.0236248218,textInputTest,001,25,
./img/BastianSchweinsteiger1.jpg,Fußballspieler bei Manchester United früher FC Bayern München,Bastian Schweinsteiger,Sportler,0,41,41,14,,,ja,3.319,2017_Feb_24_1527,60.0236248218,textInputTest,001,25,
