img,descript,name,context,trials.thisRepN,trials.thisTrialN,trials.thisN,trials.thisIndex,key_resp_2.keys,key_resp_2.rt,ratingBekannt.response,ratingBekannt.rt,date,frameRate,expName,session,participant,
,,,,,,,,space,30.2858930507,,,2017_Mrz_01_1702,60.0361863202,textInputTest,001,27,
./img/CarenMiosga4.jpg,"tagesthemen" früher "ttt - titel thesen temperamente",Caren Miosga,Moderatorin,0,0,0,3,,,ja,15.939,2017_Mrz_01_1702,60.0361863202,textInputTest,001,27,
./img/LisaEdelstein(DrLisaCuddy)2.jpg,"Dr. House" (Dr. Lisa Cuddy),Lisa Edelstein,Schauspielerin,0,1,1,32,,,nein,10.122,2017_Mrz_01_1702,60.0361863202,textInputTest,001,27,
./img/JoachimLoew1.jpg,Bundestrainer der deutschen Fußballnationalmannschaft,Joachim Löw,Trainer,0,2,2,27,,,ja,3.327,2017_Mrz_01_1702,60.0361863202,textInputTest,001,27,
./img/BenedictCumberbatch4.jpg,"Der Hobbit"-Filme (Stimme des Drachen Smaug) "Sherlock",Benedict Cumberbatch,Schauspieler,0,3,3,15,,,nein,5.558,2017_Mrz_01_1702,60.0361863202,textInputTest,001,27,
./img/AlysonHannigan(Lily)1.jpg,"How I Met Your Mother" (Lily Aldrin),Alyson Hannigan,Schauspielerin,0,4,4,0,,,nein,6.044,2017_Mrz_01_1702,60.0361863202,textInputTest,001,27,
./img/TaylorSwift1.jpg,"Blank Space" "I Knew You Were Trouble" "Shake It Off",Taylor Swift,Sängerin,0,5,5,38,,,nein,5.065,2017_Mrz_01_1702,60.0361863202,textInputTest,001,27,
./img/AngelaMerkel1.jpg,Bundeskanzlerin CDU,Angela Merkel,Politikerin,0,6,6,1,,,ja,2.662,2017_Mrz_01_1702,60.0361863202,textInputTest,001,27,
./img/NeilPatrickHarris(Barney)4.jpg,"How I Met Your Mother" (Barney Stinson),Neil Patrick Harris,Schauspieler,0,7,7,10,,,nein,5.187,2017_Mrz_01_1702,60.0361863202,textInputTest,001,27,
./img/ElvisPresley1.jpg,"Hound Dog" "In the Ghetto" "Jailhouse Rock",Elvis Presley,Sänger,0,8,8,21,,,ja,2.745,2017_Mrz_01_1702,60.0361863202,textInputTest,001,27,
./img/GuentherJauch2.jpg,"Wer wird Millionär?" früher "stern TV",Günther Jauch,Moderator ,0,9,9,5,,,ja,2.398,2017_Mrz_01_1702,60.0361863202,textInputTest,001,27,
./img/TomCruise2.jpg,"Knight and Day" "Mission: Impossible"-Filme "Oblivion",Tom Cruise,Schauspieler,0,10,10,39,,,ja,7.297,2017_Mrz_01_1702,60.0361863202,textInputTest,001,27,
./img/LeonardoDiCaprio1.jpg,"Django Unchained" "The Great Gatsby" "Titanic",Leonardo DiCaprio,Schauspieler,0,11,11,31,,,ja,3.142,2017_Mrz_01_1702,60.0361863202,textInputTest,001,27,
./img/HughLaurie(DrHouse)9.jpg,"Dr. House" (Dr. Gregory House),Hugh Laurie,Schauspieler ,0,12,12,6,,,nein,4.944,2017_Mrz_01_1702,60.0361863202,textInputTest,001,27,
./img/OmarEpps(DrEricForeman)1.jpg,"Dr. House" (Dr. Eric Foreman),Omar Epps,Schauspieler,0,13,13,34,,,nein,4.446,2017_Mrz_01_1702,60.0361863202,textInputTest,001,27,
./img/BarackObama2.jpg,Präsident der USA Demokratische Partei,Barack Obama,Politiker,0,14,14,2,,,ja,2.38,2017_Mrz_01_1702,60.0361863202,textInputTest,001,27,
./img/UrsulavonderLeyen1.jpg,Bundesministerin der Verteidigung CDU,Ursula von der Leyen,Politikerin,0,15,15,40,,,ja,6.495,2017_Mrz_01_1702,60.0361863202,textInputTest,001,27,
./img/JoshRadnor(Ted)1.jpg,"How I Met Your Mother" (Ted Mosby),Josh Radnor,Schauspieler,0,16,16,28,,,nein,4.639,2017_Mrz_01_1702,60.0361863202,textInputTest,001,27,
./img/Ice-T(OdafinFinTutuola)1.jpg,"Law & Order: Special Victims Unit" (Odafin 'Fin' Tutuola),Ice-T,Schauspieler und Musiker,0,17,17,24,,,nein,4.76,2017_Mrz_01_1702,60.0361863202,textInputTest,001,27,
./img/DannFlorek(DonaldDonCragen)1.jpg,"Law & Order: Special Victims Unit" (Donald 'Don' Cragen),Dann Florek,Schauspieler,0,18,18,20,,,nein,5.503,2017_Mrz_01_1702,60.0361863202,textInputTest,001,27,
./img/Beyonce2.jpg,"Crazy in Love" "Halo" "If I Were a Boy" "Single Ladies",Beyoncé,Sängerin,0,19,19,16,,,ja,6.118,2017_Mrz_01_1702,60.0361863202,textInputTest,001,27,
./img/CobieSmulders(Robin)2.jpg,"How I Met Your Mother" (Robin Scherbatsky),Cobie Smulders,Schauspielerin,0,20,20,18,,,nein,4.629,2017_Mrz_01_1702,60.0361863202,textInputTest,001,27,
./img/JasonSegel(Marshall)2.jpg,"How I Met Your Mother" (Marshall Eriksen),Jason Segel,Schauspieler,0,21,21,7,,,ja,6.294,2017_Mrz_01_1702,60.0361863202,textInputTest,001,27,
./img/Shakira1.jpg,"Hips Don't Lie" "Waka Waka" "Whenever Wherever",Shakira,Sängerin,0,22,22,36,,,ja,4.311,2017_Mrz_01_1702,60.0361863202,textInputTest,001,27,
./img/CristinMilioti(Tracy_Mutter)1.jpg,"How I Met Your Mother" (Tracy Mosby die Mutter),Cristin Milioti,Schauspielerin,0,23,23,19,,,nein,4.869,2017_Mrz_01_1702,60.0361863202,textInputTest,001,27,
./img/BastianSchweinsteiger1.jpg,Fußballspieler bei Manchester United früher FC Bayern München,Bastian Schweinsteiger,Sportler,0,24,24,14,,,ja,2.194,2017_Mrz_01_1702,60.0361863202,textInputTest,001,27,
./img/NicoleKidman4.jpg,"Australia" "Moulin Rouge" "To Die For",Nicole Kidman,Schauspielerin,0,25,25,11,,,ja,6.387,2017_Mrz_01_1702,60.0361863202,textInputTest,001,27,
./img/RobertSeanLeonard(Wilson)2.jpg,"Dr. House" (Dr. James Wilson),Robert Sean Leonard,Schauspieler,0,26,26,12,,,nein,3.475,2017_Mrz_01_1702,60.0361863202,textInputTest,001,27,
./img/SahraWagenknecht6.jpg,Fraktionsvorsitzende DIE LINKE,Sahra Wagenknecht,Politikerin  ,0,27,27,35,,,ja,2.438,2017_Mrz_01_1702,60.0361863202,textInputTest,001,27,
./img/BritneySpears5.jpg,"…Baby One More Time" "Oops! …I Did It Again" "Toxic",Britney Spears,Sängerin,0,28,28,17,,,ja,1.987,2017_Mrz_01_1702,60.0361863202,textInputTest,001,27,
./img/EmilyDeschanel3.jpg,"Bones - Die Knochenjägerin" (Dr. Temperance 'Bones' Brennan),Emily Deschanel,Schauspielerin,0,29,29,4,,,nein,3.844,2017_Mrz_01_1702,60.0361863202,textInputTest,001,27,
./img/WillSmith4.jpg,"I Am Legend" "Independence Day" "Men in Black"-Filme,Will Smith,Schauspieler,0,30,30,13,,,ja,1.945,2017_Mrz_01_1702,60.0361863202,textInputTest,001,27,
./img/EmmaWatson(HermioneGranger)1.jpg,"Harry Potter"-Filme (Hermione Granger),Emma Watson,Schauspielerin,0,31,31,22,,,nein,3.359,2017_Mrz_01_1702,60.0361863202,textInputTest,001,27,
./img/KaleyCuoco(Penny)2.jpg,"The Big Bang Theory" (Penny Hofstadter),Kaley Cuoco,Schauspielerin,0,32,32,30,,,nein,3.797,2017_Mrz_01_1702,60.0361863202,textInputTest,001,27,
./img/MilaKunis5.jpg,"Black Swan" "Freunde mit gewissen Vorzügen" "Ted",Mila Kunis,Schauspielerin,0,33,33,33,,,nein,5.055,2017_Mrz_01_1702,60.0361863202,textInputTest,001,27,
./img/JimParsons(SheldonCooper)1.jpg,"The Big Bang Theory" (Dr. Sheldon Cooper),Jim Parsons,Schauspieler,0,34,34,26,,,nein,3.813,2017_Mrz_01_1702,60.0361863202,textInputTest,001,27,
./img/KatjaBurkard5.jpg,"Punkt 12" bei RTL,Katja Burkard,Moderatorin,0,35,35,8,,,ja,2.046,2017_Mrz_01_1702,60.0361863202,textInputTest,001,27,
./img/GeorgeClooney6.jpg,"Batman & Robin" "Gravity" "Ocean's Eleven",George Clooney,Schauspieler,0,36,36,23,,,ja,2.095,2017_Mrz_01_1702,60.0361863202,textInputTest,001,27,
./img/SigmarGabriel1.jpg,Bundesminister für Wirtschaft und Energie & Parteivorsitzender SPD,Sigmar Gabriel,Politiker,0,37,37,37,,,ja,8.87,2017_Mrz_01_1702,60.0361863202,textInputTest,001,27,
./img/JudithRakers7.jpg,"Tagesschau" in der ARD,Judith Rakers,Nachrichtensprecherin,0,38,38,29,,,ja,6.296,2017_Mrz_01_1702,60.0361863202,textInputTest,001,27,
./img/Usher1.jpg,"DJ Got Us Fallin' in Love" "More" "OMG" "Yeah!",Usher,Sänger,0,39,39,41,,,ja,3.342,2017_Mrz_01_1702,60.0361863202,textInputTest,001,27,
./img/MariskaHargitay(Liv)1.jpg,"Law & Order: Special Victims Unit" (Olivia 'Liv' Benson),Mariska Hargitay,Schauspielerin,0,40,40,9,,,nein,3.327,2017_Mrz_01_1702,60.0361863202,textInputTest,001,27,
./img/JanHofer1.jpg,"Tagesschau" in der ARD,Jan Hofer,Nachrichtensprecher,0,41,41,25,,,ja,2.583,2017_Mrz_01_1702,60.0361863202,textInputTest,001,27,
