img,descript,name,context,trials.thisRepN,trials.thisTrialN,trials.thisN,trials.thisIndex,key_resp_2.keys,key_resp_2.rt,ratingBekannt.response,ratingBekannt.rt,date,frameRate,expName,session,participant,
,,,,,,,,space,8.69505020303,,,2017_Jan_25_1112,60.0283635777,textInputTest,001,2,
./img/AlysonHannigan(Lily)1.jpg,"How I Met Your Mother" (Lily Aldrin),Alyson Hannigan,Schauspielerin,0,0,0,0,,,ja,11.035,2017_Jan_25_1112,60.0283635777,textInputTest,001,2,
./img/AngelaMerkel1.jpg,Bundeskanzlerin CDU,Angela Merkel,Politikerin,0,1,1,1,,,ja,4.161,2017_Jan_25_1112,60.0283635777,textInputTest,001,2,
./img/Ice-T(OdafinFinTutuola)1.jpg,"Law & Order: Special Victims Unit" (Odafin 'Fin' Tutuola),Ice-T,Schauspieler und Musiker,0,2,2,24,,,ja,5.001,2017_Jan_25_1112,60.0283635777,textInputTest,001,2,
./img/GuentherJauch2.jpg,"Wer wird Millionär?" früher "stern TV",Günther Jauch,Moderator ,0,3,3,5,,,ja,1.919,2017_Jan_25_1112,60.0283635777,textInputTest,001,2,
./img/NeilPatrickHarris(Barney)4.jpg,"How I Met Your Mother" (Barney Stinson),Neil Patrick Harris,Schauspieler,0,4,4,10,,,ja,2.993,2017_Jan_25_1112,60.0283635777,textInputTest,001,2,
./img/JoshRadnor(Ted)1.jpg,"How I Met Your Mother" (Ted Mosby),Josh Radnor,Schauspieler,0,5,5,28,,,ja,2.212,2017_Jan_25_1112,60.0283635777,textInputTest,001,2,
./img/MilaKunis5.jpg,"Black Swan" "Freunde mit gewissen Vorzügen" "Ted",Mila Kunis,Schauspielerin,0,6,6,33,,,ja,2.535,2017_Jan_25_1112,60.0283635777,textInputTest,001,2,
./img/ElvisPresley1.jpg,"Hound Dog" "In the Ghetto" "Jailhouse Rock",Elvis Presley,Sänger,0,7,7,21,,,ja,2.185,2017_Jan_25_1112,60.0283635777,textInputTest,001,2,
./img/LisaEdelstein(DrLisaCuddy)2.jpg,"Dr. House" (Dr. Lisa Cuddy),Lisa Edelstein,Schauspielerin,0,8,8,32,,,nein,3.528,2017_Jan_25_1112,60.0283635777,textInputTest,001,2,
./img/GeorgeClooney6.jpg,"Batman & Robin" "Gravity" "Ocean's Eleven",George Clooney,Schauspieler,0,9,9,23,,,ja,6.259,2017_Jan_25_1112,60.0283635777,textInputTest,001,2,
./img/JanHofer1.jpg,"Tagesschau" in der ARD,Jan Hofer,Nachrichtensprecher,0,10,10,25,,,nein,2.401,2017_Jan_25_1112,60.0283635777,textInputTest,001,2,
./img/KatjaBurkard5.jpg,"Punkt 12" bei RTL,Katja Burkard,Moderatorin,0,11,11,8,,,ja,2.966,2017_Jan_25_1112,60.0283635777,textInputTest,001,2,
./img/JoachimLoew1.jpg,Bundestrainer der deutschen Fußballnationalmannschaft,Joachim Löw,Trainer,0,12,12,27,,,ja,1.899,2017_Jan_25_1112,60.0283635777,textInputTest,001,2,
./img/DannFlorek(DonaldDonCragen)1.jpg,"Law & Order: Special Victims Unit" (Donald 'Don' Cragen),Dann Florek,Schauspieler,0,13,13,20,,,nein,2.479,2017_Jan_25_1112,60.0283635777,textInputTest,001,2,
./img/SahraWagenknecht6.jpg,Fraktionsvorsitzende DIE LINKE,Sahra Wagenknecht,Politikerin  ,0,14,14,35,,,ja,1.73,2017_Jan_25_1112,60.0283635777,textInputTest,001,2,
./img/CarenMiosga4.jpg,"tagesthemen" früher "ttt - titel thesen temperamente",Caren Miosga,Moderatorin,0,15,15,3,,,nein,2.188,2017_Jan_25_1112,60.0283635777,textInputTest,001,2,
./img/RobertSeanLeonard(Wilson)2.jpg,"Dr. House" (Dr. James Wilson),Robert Sean Leonard,Schauspieler,0,16,16,12,,,nein,2.87,2017_Jan_25_1112,60.0283635777,textInputTest,001,2,
./img/OmarEpps(DrEricForeman)1.jpg,"Dr. House" (Dr. Eric Foreman),Omar Epps,Schauspieler,0,17,17,34,,,nein,2.688,2017_Jan_25_1112,60.0283635777,textInputTest,001,2,
./img/BastianSchweinsteiger1.jpg,Fußballspieler bei Manchester United früher FC Bayern München,Bastian Schweinsteiger,Sportler,0,18,18,14,,,ja,2.046,2017_Jan_25_1112,60.0283635777,textInputTest,001,2,
./img/Shakira1.jpg,"Hips Don't Lie" "Waka Waka" "Whenever Wherever",Shakira,Sängerin,0,19,19,36,,,ja,2.782,2017_Jan_25_1112,60.0283635777,textInputTest,001,2,
./img/BarackObama2.jpg,Präsident der USA Demokratische Partei,Barack Obama,Politiker,0,20,20,2,,,ja,1.719,2017_Jan_25_1112,60.0283635777,textInputTest,001,2,
./img/BenedictCumberbatch4.jpg,"Der Hobbit"-Filme (Stimme des Drachen Smaug) "Sherlock",Benedict Cumberbatch,Schauspieler,0,21,21,15,,,ja,4.05,2017_Jan_25_1112,60.0283635777,textInputTest,001,2,
./img/CobieSmulders(Robin)2.jpg,"How I Met Your Mother" (Robin Scherbatsky),Cobie Smulders,Schauspielerin,0,22,22,18,,,ja,4.501,2017_Jan_25_1112,60.0283635777,textInputTest,001,2,
./img/TaylorSwift1.jpg,"Blank Space" "I Knew You Were Trouble" "Shake It Off",Taylor Swift,Sängerin,0,23,23,38,,,ja,2.579,2017_Jan_25_1112,60.0283635777,textInputTest,001,2,
./img/JimParsons(SheldonCooper)1.jpg,"The Big Bang Theory" (Dr. Sheldon Cooper),Jim Parsons,Schauspieler,0,24,24,26,,,ja,2.455,2017_Jan_25_1112,60.0283635777,textInputTest,001,2,
./img/KaleyCuoco(Penny)2.jpg,"The Big Bang Theory" (Penny Hofstadter),Kaley Cuoco,Schauspielerin,0,25,25,30,,,ja,10.734,2017_Jan_25_1112,60.0283635777,textInputTest,001,2,
./img/JasonSegel(Marshall)2.jpg,"How I Met Your Mother" (Marshall Eriksen),Jason Segel,Schauspieler,0,26,26,7,,,ja,6.429,2017_Jan_25_1112,60.0283635777,textInputTest,001,2,
./img/Usher1.jpg,"DJ Got Us Fallin' in Love" "More" "OMG" "Yeah!",Usher,Sänger,0,27,27,41,,,ja,2.56,2017_Jan_25_1112,60.0283635777,textInputTest,001,2,
./img/NicoleKidman4.jpg,"Australia" "Moulin Rouge" "To Die For",Nicole Kidman,Schauspielerin,0,28,28,11,,,ja,1.788,2017_Jan_25_1112,60.0283635777,textInputTest,001,2,
./img/JudithRakers7.jpg,"Tagesschau" in der ARD,Judith Rakers,Nachrichtensprecherin,0,29,29,29,,,nein,2.148,2017_Jan_25_1112,60.0283635777,textInputTest,001,2,
./img/WillSmith4.jpg,"I Am Legend" "Independence Day" "Men in Black"-Filme,Will Smith,Schauspieler,0,30,30,13,,,ja,1.812,2017_Jan_25_1112,60.0283635777,textInputTest,001,2,
./img/CristinMilioti(Tracy_Mutter)1.jpg,"How I Met Your Mother" (Tracy Mosby die Mutter),Cristin Milioti,Schauspielerin,0,31,31,19,,,nein,8.058,2017_Jan_25_1112,60.0283635777,textInputTest,001,2,
./img/MariskaHargitay(Liv)1.jpg,"Law & Order: Special Victims Unit" (Olivia 'Liv' Benson),Mariska Hargitay,Schauspielerin,0,32,32,9,,,nein,2.679,2017_Jan_25_1112,60.0283635777,textInputTest,001,2,
./img/HughLaurie(DrHouse)9.jpg,"Dr. House" (Dr. Gregory House),Hugh Laurie,Schauspieler ,0,33,33,6,,,ja,2.092,2017_Jan_25_1112,60.0283635777,textInputTest,001,2,
./img/SigmarGabriel1.jpg,Bundesminister für Wirtschaft und Energie & Parteivorsitzender SPD,Sigmar Gabriel,Politiker,0,34,34,37,,,ja,2.242,2017_Jan_25_1112,60.0283635777,textInputTest,001,2,
./img/TomCruise2.jpg,"Knight and Day" "Mission: Impossible"-Filme "Oblivion",Tom Cruise,Schauspieler,0,35,35,39,,,ja,1.845,2017_Jan_25_1112,60.0283635777,textInputTest,001,2,
./img/EmilyDeschanel3.jpg,"Bones - Die Knochenjägerin" (Dr. Temperance 'Bones' Brennan),Emily Deschanel,Schauspielerin,0,36,36,4,,,nein,3.203,2017_Jan_25_1112,60.0283635777,textInputTest,001,2,
./img/BritneySpears5.jpg,"…Baby One More Time" "Oops! …I Did It Again" "Toxic",Britney Spears,Sängerin,0,37,37,17,,,ja,2.587,2017_Jan_25_1112,60.0283635777,textInputTest,001,2,
./img/EmmaWatson(HermioneGranger)1.jpg,"Harry Potter"-Filme (Hermione Granger),Emma Watson,Schauspielerin,0,38,38,22,,,ja,1.701,2017_Jan_25_1112,60.0283635777,textInputTest,001,2,
./img/UrsulavonderLeyen1.jpg,Bundesministerin der Verteidigung CDU,Ursula von der Leyen,Politikerin,0,39,39,40,,,ja,1.835,2017_Jan_25_1112,60.0283635777,textInputTest,001,2,
./img/Beyonce2.jpg,"Crazy in Love" "Halo" "If I Were a Boy" "Single Ladies",Beyoncé,Sängerin,0,40,40,16,,,ja,2.458,2017_Jan_25_1112,60.0283635777,textInputTest,001,2,
./img/LeonardoDiCaprio1.jpg,"Django Unchained" "The Great Gatsby" "Titanic",Leonardo DiCaprio,Schauspieler,0,41,41,31,,,ja,2.288,2017_Jan_25_1112,60.0283635777,textInputTest,001,2,
