img,descript,name,context,trials.thisRepN,trials.thisTrialN,trials.thisN,trials.thisIndex,key_resp_2.keys,key_resp_2.rt,ratingBekannt.response,ratingBekannt.rt,date,frameRate,expName,session,participant,
,,,,,,,,space,14.2255821361,,,2017_Jan_25_1522,59.9962471573,textInputTest,001,4,
./img/EmilyDeschanel3.jpg,"Bones - Die Knochenjägerin" (Dr. Temperance 'Bones' Brennan),Emily Deschanel,Schauspielerin,0,0,0,4,,,ja,15.514,2017_Jan_25_1522,59.9962471573,textInputTest,001,4,
./img/CobieSmulders(Robin)2.jpg,"How I Met Your Mother" (Robin Scherbatsky),Cobie Smulders,Schauspielerin,0,1,1,18,,,ja,7.784,2017_Jan_25_1522,59.9962471573,textInputTest,001,4,
./img/MariskaHargitay(Liv)1.jpg,"Law & Order: Special Victims Unit" (Olivia 'Liv' Benson),Mariska Hargitay,Schauspielerin,0,2,2,9,,,ja,10.938,2017_Jan_25_1522,59.9962471573,textInputTest,001,4,
./img/ElvisPresley1.jpg,"Hound Dog" "In the Ghetto" "Jailhouse Rock",Elvis Presley,Sänger,0,3,3,21,,,ja,2.72,2017_Jan_25_1522,59.9962471573,textInputTest,001,4,
./img/SahraWagenknecht6.jpg,Fraktionsvorsitzende DIE LINKE,Sahra Wagenknecht,Politikerin  ,0,4,4,35,,,ja,6.408,2017_Jan_25_1522,59.9962471573,textInputTest,001,4,
./img/WillSmith4.jpg,"I Am Legend" "Independence Day" "Men in Black"-Filme,Will Smith,Schauspieler,0,5,5,13,,,ja,2.891,2017_Jan_25_1522,59.9962471573,textInputTest,001,4,
./img/NicoleKidman4.jpg,"Australia" "Moulin Rouge" "To Die For",Nicole Kidman,Schauspielerin,0,6,6,11,,,ja,2.244,2017_Jan_25_1522,59.9962471573,textInputTest,001,4,
./img/JanHofer1.jpg,"Tagesschau" in der ARD,Jan Hofer,Nachrichtensprecher,0,7,7,25,,,ja,6.373,2017_Jan_25_1522,59.9962471573,textInputTest,001,4,
./img/BarackObama2.jpg,Präsident der USA Demokratische Partei,Barack Obama,Politiker,0,8,8,2,,,ja,4.179,2017_Jan_25_1522,59.9962471573,textInputTest,001,4,
./img/JoachimLoew1.jpg,Bundestrainer der deutschen Fußballnationalmannschaft,Joachim Löw,Trainer,0,9,9,27,,,ja,4.266,2017_Jan_25_1522,59.9962471573,textInputTest,001,4,
./img/TaylorSwift1.jpg,"Blank Space" "I Knew You Were Trouble" "Shake It Off",Taylor Swift,Sängerin,0,10,10,38,,,ja,2.315,2017_Jan_25_1522,59.9962471573,textInputTest,001,4,
./img/LisaEdelstein(DrLisaCuddy)2.jpg,"Dr. House" (Dr. Lisa Cuddy),Lisa Edelstein,Schauspielerin,0,11,11,32,,,ja,4.762,2017_Jan_25_1522,59.9962471573,textInputTest,001,4,
./img/RobertSeanLeonard(Wilson)2.jpg,"Dr. House" (Dr. James Wilson),Robert Sean Leonard,Schauspieler,0,12,12,12,,,ja,5.312,2017_Jan_25_1522,59.9962471573,textInputTest,001,4,
./img/CristinMilioti(Tracy_Mutter)1.jpg,"How I Met Your Mother" (Tracy Mosby die Mutter),Cristin Milioti,Schauspielerin,0,13,13,19,,,ja,4.496,2017_Jan_25_1522,59.9962471573,textInputTest,001,4,
./img/TomCruise2.jpg,"Knight and Day" "Mission: Impossible"-Filme "Oblivion",Tom Cruise,Schauspieler,0,14,14,39,,,ja,2.539,2017_Jan_25_1522,59.9962471573,textInputTest,001,4,
./img/GuentherJauch2.jpg,"Wer wird Millionär?" früher "stern TV",Günther Jauch,Moderator ,0,15,15,5,,,ja,2.39,2017_Jan_25_1522,59.9962471573,textInputTest,001,4,
./img/KatjaBurkard5.jpg,"Punkt 12" bei RTL,Katja Burkard,Moderatorin,0,16,16,8,,,ja,3.029,2017_Jan_25_1522,59.9962471573,textInputTest,001,4,
./img/CarenMiosga4.jpg,"tagesthemen" früher "ttt - titel thesen temperamente",Caren Miosga,Moderatorin,0,17,17,3,,,ja,5.889,2017_Jan_25_1522,59.9962471573,textInputTest,001,4,
./img/Usher1.jpg,"DJ Got Us Fallin' in Love" "More" "OMG" "Yeah!",Usher,Sänger,0,18,18,41,,,ja,2.434,2017_Jan_25_1522,59.9962471573,textInputTest,001,4,
./img/MilaKunis5.jpg,"Black Swan" "Freunde mit gewissen Vorzügen" "Ted",Mila Kunis,Schauspielerin,0,19,19,33,,,ja,2.343,2017_Jan_25_1522,59.9962471573,textInputTest,001,4,
./img/KaleyCuoco(Penny)2.jpg,"The Big Bang Theory" (Penny Hofstadter),Kaley Cuoco,Schauspielerin,0,20,20,30,,,ja,3.942,2017_Jan_25_1522,59.9962471573,textInputTest,001,4,
./img/Beyonce2.jpg,"Crazy in Love" "Halo" "If I Were a Boy" "Single Ladies",Beyoncé,Sängerin,0,21,21,16,,,ja,2.561,2017_Jan_25_1522,59.9962471573,textInputTest,001,4,
./img/BenedictCumberbatch4.jpg,"Der Hobbit"-Filme (Stimme des Drachen Smaug) "Sherlock",Benedict Cumberbatch,Schauspieler,0,22,22,15,,,ja,5.743,2017_Jan_25_1522,59.9962471573,textInputTest,001,4,
./img/GeorgeClooney6.jpg,"Batman & Robin" "Gravity" "Ocean's Eleven",George Clooney,Schauspieler,0,23,23,23,,,ja,2.355,2017_Jan_25_1522,59.9962471573,textInputTest,001,4,
./img/LeonardoDiCaprio1.jpg,"Django Unchained" "The Great Gatsby" "Titanic",Leonardo DiCaprio,Schauspieler,0,24,24,31,,,ja,2.129,2017_Jan_25_1522,59.9962471573,textInputTest,001,4,
./img/BritneySpears5.jpg,"…Baby One More Time" "Oops! …I Did It Again" "Toxic",Britney Spears,Sängerin,0,25,25,17,,,ja,2.027,2017_Jan_25_1522,59.9962471573,textInputTest,001,4,
./img/SigmarGabriel1.jpg,Bundesminister für Wirtschaft und Energie & Parteivorsitzender SPD,Sigmar Gabriel,Politiker,0,26,26,37,,,ja,3.594,2017_Jan_25_1522,59.9962471573,textInputTest,001,4,
./img/NeilPatrickHarris(Barney)4.jpg,"How I Met Your Mother" (Barney Stinson),Neil Patrick Harris,Schauspieler,0,27,27,10,,,ja,3.308,2017_Jan_25_1522,59.9962471573,textInputTest,001,4,
./img/AlysonHannigan(Lily)1.jpg,"How I Met Your Mother" (Lily Aldrin),Alyson Hannigan,Schauspielerin,0,28,28,0,,,ja,2.713,2017_Jan_25_1522,59.9962471573,textInputTest,001,4,
./img/OmarEpps(DrEricForeman)1.jpg,"Dr. House" (Dr. Eric Foreman),Omar Epps,Schauspieler,0,29,29,34,,,ja,2.534,2017_Jan_25_1522,59.9962471573,textInputTest,001,4,
./img/JoshRadnor(Ted)1.jpg,"How I Met Your Mother" (Ted Mosby),Josh Radnor,Schauspieler,0,30,30,28,,,ja,2.489,2017_Jan_25_1522,59.9962471573,textInputTest,001,4,
./img/HughLaurie(DrHouse)9.jpg,"Dr. House" (Dr. Gregory House),Hugh Laurie,Schauspieler ,0,31,31,6,,,ja,3.982,2017_Jan_25_1522,59.9962471573,textInputTest,001,4,
./img/JimParsons(SheldonCooper)1.jpg,"The Big Bang Theory" (Dr. Sheldon Cooper),Jim Parsons,Schauspieler,0,32,32,26,,,ja,3.196,2017_Jan_25_1522,59.9962471573,textInputTest,001,4,
./img/AngelaMerkel1.jpg,Bundeskanzlerin CDU,Angela Merkel,Politikerin,0,33,33,1,,,ja,2.432,2017_Jan_25_1522,59.9962471573,textInputTest,001,4,
./img/DannFlorek(DonaldDonCragen)1.jpg,"Law & Order: Special Victims Unit" (Donald 'Don' Cragen),Dann Florek,Schauspieler,0,34,34,20,,,ja,3.373,2017_Jan_25_1522,59.9962471573,textInputTest,001,4,
./img/JasonSegel(Marshall)2.jpg,"How I Met Your Mother" (Marshall Eriksen),Jason Segel,Schauspieler,0,35,35,7,,,ja,2.946,2017_Jan_25_1522,59.9962471573,textInputTest,001,4,
./img/JudithRakers7.jpg,"Tagesschau" in der ARD,Judith Rakers,Nachrichtensprecherin,0,36,36,29,,,nein,8.931,2017_Jan_25_1522,59.9962471573,textInputTest,001,4,
./img/Ice-T(OdafinFinTutuola)1.jpg,"Law & Order: Special Victims Unit" (Odafin 'Fin' Tutuola),Ice-T,Schauspieler und Musiker,0,37,37,24,,,ja,2.356,2017_Jan_25_1522,59.9962471573,textInputTest,001,4,
./img/Shakira1.jpg,"Hips Don't Lie" "Waka Waka" "Whenever Wherever",Shakira,Sängerin,0,38,38,36,,,ja,2.046,2017_Jan_25_1522,59.9962471573,textInputTest,001,4,
./img/UrsulavonderLeyen1.jpg,Bundesministerin der Verteidigung CDU,Ursula von der Leyen,Politikerin,0,39,39,40,,,ja,6.075,2017_Jan_25_1522,59.9962471573,textInputTest,001,4,
./img/BastianSchweinsteiger1.jpg,Fußballspieler bei Manchester United früher FC Bayern München,Bastian Schweinsteiger,Sportler,0,40,40,14,,,ja,2.477,2017_Jan_25_1522,59.9962471573,textInputTest,001,4,
./img/EmmaWatson(HermioneGranger)1.jpg,"Harry Potter"-Filme (Hermione Granger),Emma Watson,Schauspielerin,0,41,41,22,,,ja,2.179,2017_Jan_25_1522,59.9962471573,textInputTest,001,4,
