img,descript,name,context,trials.thisRepN,trials.thisTrialN,trials.thisN,trials.thisIndex,key_resp_2.keys,key_resp_2.rt,ratingBekannt.response,ratingBekannt.rt,date,frameRate,expName,session,participant,
,,,,,,,,space,10.6105407982,,,2017_Jan_30_1524,60.0006159055,textInputTest,001,7,
./img/CristinMilioti(Tracy_Mutter)1.jpg,"How I Met Your Mother" (Tracy Mosby die Mutter),Cristin Milioti,Schauspielerin,0,0,0,19,,,nein,10.157,2017_Jan_30_1524,60.0006159055,textInputTest,001,7,
./img/NicoleKidman4.jpg,"Australia" "Moulin Rouge" "To Die For",Nicole Kidman,Schauspielerin,0,1,1,11,,,ja,4.307,2017_Jan_30_1524,60.0006159055,textInputTest,001,7,
./img/JanHofer1.jpg,"Tagesschau" in der ARD,Jan Hofer,Nachrichtensprecher,0,2,2,25,,,ja,5.97,2017_Jan_30_1524,60.0006159055,textInputTest,001,7,
./img/Beyonce2.jpg,"Crazy in Love" "Halo" "If I Were a Boy" "Single Ladies",Beyoncé,Sängerin,0,3,3,16,,,ja,2.333,2017_Jan_30_1524,60.0006159055,textInputTest,001,7,
./img/NeilPatrickHarris(Barney)4.jpg,"How I Met Your Mother" (Barney Stinson),Neil Patrick Harris,Schauspieler,0,4,4,10,,,ja,4.299,2017_Jan_30_1524,60.0006159055,textInputTest,001,7,
./img/KatjaBurkard5.jpg,"Punkt 12" bei RTL,Katja Burkard,Moderatorin,0,5,5,8,,,ja,3.256,2017_Jan_30_1524,60.0006159055,textInputTest,001,7,
./img/JasonSegel(Marshall)2.jpg,"How I Met Your Mother" (Marshall Eriksen),Jason Segel,Schauspieler,0,6,6,7,,,ja,4.55,2017_Jan_30_1524,60.0006159055,textInputTest,001,7,
./img/AngelaMerkel1.jpg,Bundeskanzlerin CDU,Angela Merkel,Politikerin,0,7,7,1,,,ja,2.071,2017_Jan_30_1524,60.0006159055,textInputTest,001,7,
./img/LeonardoDiCaprio1.jpg,"Django Unchained" "The Great Gatsby" "Titanic",Leonardo DiCaprio,Schauspieler,0,8,8,31,,,ja,2.593,2017_Jan_30_1524,60.0006159055,textInputTest,001,7,
./img/Ice-T(OdafinFinTutuola)1.jpg,"Law & Order: Special Victims Unit" (Odafin 'Fin' Tutuola),Ice-T,Schauspieler und Musiker,0,9,9,24,,,nein,4.706,2017_Jan_30_1524,60.0006159055,textInputTest,001,7,
./img/GuentherJauch2.jpg,"Wer wird Millionär?" früher "stern TV",Günther Jauch,Moderator ,0,10,10,5,,,ja,1.847,2017_Jan_30_1524,60.0006159055,textInputTest,001,7,
./img/DannFlorek(DonaldDonCragen)1.jpg,"Law & Order: Special Victims Unit" (Donald 'Don' Cragen),Dann Florek,Schauspieler,0,11,11,20,,,nein,2.937,2017_Jan_30_1524,60.0006159055,textInputTest,001,7,
./img/EmmaWatson(HermioneGranger)1.jpg,"Harry Potter"-Filme (Hermione Granger),Emma Watson,Schauspielerin,0,12,12,22,,,ja,2.842,2017_Jan_30_1524,60.0006159055,textInputTest,001,7,
./img/BenedictCumberbatch4.jpg,"Der Hobbit"-Filme (Stimme des Drachen Smaug) "Sherlock",Benedict Cumberbatch,Schauspieler,0,13,13,15,,,nein,5.951,2017_Jan_30_1524,60.0006159055,textInputTest,001,7,
./img/LisaEdelstein(DrLisaCuddy)2.jpg,"Dr. House" (Dr. Lisa Cuddy),Lisa Edelstein,Schauspielerin,0,14,14,32,,,nein,4.025,2017_Jan_30_1524,60.0006159055,textInputTest,001,7,
./img/AlysonHannigan(Lily)1.jpg,"How I Met Your Mother" (Lily Aldrin),Alyson Hannigan,Schauspielerin,0,15,15,0,,,ja,4.233,2017_Jan_30_1524,60.0006159055,textInputTest,001,7,
./img/WillSmith4.jpg,"I Am Legend" "Independence Day" "Men in Black"-Filme,Will Smith,Schauspieler,0,16,16,13,,,ja,2.015,2017_Jan_30_1524,60.0006159055,textInputTest,001,7,
./img/SigmarGabriel1.jpg,Bundesminister für Wirtschaft und Energie & Parteivorsitzender SPD,Sigmar Gabriel,Politiker,0,17,17,37,,,ja,1.995,2017_Jan_30_1524,60.0006159055,textInputTest,001,7,
./img/SahraWagenknecht6.jpg,Fraktionsvorsitzende DIE LINKE,Sahra Wagenknecht,Politikerin  ,0,18,18,35,,,ja,4.963,2017_Jan_30_1524,60.0006159055,textInputTest,001,7,
./img/HughLaurie(DrHouse)9.jpg,"Dr. House" (Dr. Gregory House),Hugh Laurie,Schauspieler ,0,19,19,6,,,ja,2.762,2017_Jan_30_1524,60.0006159055,textInputTest,001,7,
./img/JimParsons(SheldonCooper)1.jpg,"The Big Bang Theory" (Dr. Sheldon Cooper),Jim Parsons,Schauspieler,0,20,20,26,,,ja,2.434,2017_Jan_30_1524,60.0006159055,textInputTest,001,7,
./img/RobertSeanLeonard(Wilson)2.jpg,"Dr. House" (Dr. James Wilson),Robert Sean Leonard,Schauspieler,0,21,21,12,,,nein,3.886,2017_Jan_30_1524,60.0006159055,textInputTest,001,7,
./img/KaleyCuoco(Penny)2.jpg,"The Big Bang Theory" (Penny Hofstadter),Kaley Cuoco,Schauspielerin,0,22,22,30,,,ja,2.999,2017_Jan_30_1524,60.0006159055,textInputTest,001,7,
./img/ElvisPresley1.jpg,"Hound Dog" "In the Ghetto" "Jailhouse Rock",Elvis Presley,Sänger,0,23,23,21,,,ja,3.347,2017_Jan_30_1524,60.0006159055,textInputTest,001,7,
./img/Usher1.jpg,"DJ Got Us Fallin' in Love" "More" "OMG" "Yeah!",Usher,Sänger,0,24,24,41,,,ja,2.021,2017_Jan_30_1524,60.0006159055,textInputTest,001,7,
./img/UrsulavonderLeyen1.jpg,Bundesministerin der Verteidigung CDU,Ursula von der Leyen,Politikerin,0,25,25,40,,,ja,1.438,2017_Jan_30_1524,60.0006159055,textInputTest,001,7,
./img/BastianSchweinsteiger1.jpg,Fußballspieler bei Manchester United früher FC Bayern München,Bastian Schweinsteiger,Sportler,0,26,26,14,,,ja,1.407,2017_Jan_30_1524,60.0006159055,textInputTest,001,7,
./img/JoshRadnor(Ted)1.jpg,"How I Met Your Mother" (Ted Mosby),Josh Radnor,Schauspieler,0,27,27,28,,,ja,2.584,2017_Jan_30_1524,60.0006159055,textInputTest,001,7,
./img/CobieSmulders(Robin)2.jpg,"How I Met Your Mother" (Robin Scherbatsky),Cobie Smulders,Schauspielerin,0,28,28,18,,,ja,3.14,2017_Jan_30_1524,60.0006159055,textInputTest,001,7,
./img/TomCruise2.jpg,"Knight and Day" "Mission: Impossible"-Filme "Oblivion",Tom Cruise,Schauspieler,0,29,29,39,,,ja,1.843,2017_Jan_30_1524,60.0006159055,textInputTest,001,7,
./img/MilaKunis5.jpg,"Black Swan" "Freunde mit gewissen Vorzügen" "Ted",Mila Kunis,Schauspielerin,0,30,30,33,,,ja,3.457,2017_Jan_30_1524,60.0006159055,textInputTest,001,7,
./img/JoachimLoew1.jpg,Bundestrainer der deutschen Fußballnationalmannschaft,Joachim Löw,Trainer,0,31,31,27,,,ja,1.271,2017_Jan_30_1524,60.0006159055,textInputTest,001,7,
./img/MariskaHargitay(Liv)1.jpg,"Law & Order: Special Victims Unit" (Olivia 'Liv' Benson),Mariska Hargitay,Schauspielerin,0,32,32,9,,,nein,3.166,2017_Jan_30_1524,60.0006159055,textInputTest,001,7,
./img/BritneySpears5.jpg,"…Baby One More Time" "Oops! …I Did It Again" "Toxic",Britney Spears,Sängerin,0,33,33,17,,,ja,2.442,2017_Jan_30_1524,60.0006159055,textInputTest,001,7,
./img/EmilyDeschanel3.jpg,"Bones - Die Knochenjägerin" (Dr. Temperance 'Bones' Brennan),Emily Deschanel,Schauspielerin,0,34,34,4,,,nein,2.445,2017_Jan_30_1524,60.0006159055,textInputTest,001,7,
./img/Shakira1.jpg,"Hips Don't Lie" "Waka Waka" "Whenever Wherever",Shakira,Sängerin,0,35,35,36,,,ja,5.556,2017_Jan_30_1524,60.0006159055,textInputTest,001,7,
./img/OmarEpps(DrEricForeman)1.jpg,"Dr. House" (Dr. Eric Foreman),Omar Epps,Schauspieler,0,36,36,34,,,nein,2.603,2017_Jan_30_1524,60.0006159055,textInputTest,001,7,
./img/GeorgeClooney6.jpg,"Batman & Robin" "Gravity" "Ocean's Eleven",George Clooney,Schauspieler,0,37,37,23,,,ja,1.967,2017_Jan_30_1524,60.0006159055,textInputTest,001,7,
./img/JudithRakers7.jpg,"Tagesschau" in der ARD,Judith Rakers,Nachrichtensprecherin,0,38,38,29,,,ja,5.894,2017_Jan_30_1524,60.0006159055,textInputTest,001,7,
./img/BarackObama2.jpg,Präsident der USA Demokratische Partei,Barack Obama,Politiker,0,39,39,2,,,ja,1.634,2017_Jan_30_1524,60.0006159055,textInputTest,001,7,
./img/TaylorSwift1.jpg,"Blank Space" "I Knew You Were Trouble" "Shake It Off",Taylor Swift,Sängerin,0,40,40,38,,,ja,1.638,2017_Jan_30_1524,60.0006159055,textInputTest,001,7,
./img/CarenMiosga4.jpg,"tagesthemen" früher "ttt - titel thesen temperamente",Caren Miosga,Moderatorin,0,41,41,3,,,nein,3.984,2017_Jan_30_1524,60.0006159055,textInputTest,001,7,
