img,descript,name,context,trials.thisRepN,trials.thisTrialN,trials.thisN,trials.thisIndex,key_resp_2.keys,key_resp_2.rt,ratingBekannt.response,ratingBekannt.rt,date,frameRate,expName,session,participant,
,,,,,,,,space,55.1410212597,,,2016_Nov_23_1453,59.9942652082,textInputTest,001,jb,
./img/Beyonce2.jpg,"Crazy in Love" "Halo" "If I Were a Boy" "Single Ladies",Beyoncé,Sängerin,0,0,0,16,,,ja,31.593,2016_Nov_23_1453,59.9942652082,textInputTest,001,jb,
./img/AlysonHannigan(Lily)1.jpg,"How I Met Your Mother" (Lily Aldrin),Alyson Hannigan,Schauspielerin,0,1,1,0,,,ja,4.787,2016_Nov_23_1453,59.9942652082,textInputTest,001,jb,
./img/RobertSeanLeonard(Wilson)2.jpg,"Dr. House" (Dr. James Wilson),Robert Sean Leonard,Schauspieler,0,2,2,12,,,ja,3.754,2016_Nov_23_1453,59.9942652082,textInputTest,001,jb,
./img/GuentherJauch2.jpg,"Wer wird Millionär?" früher "stern TV",Günther Jauch,Moderator ,0,3,3,5,,,ja,2.656,2016_Nov_23_1453,59.9942652082,textInputTest,001,jb,
./img/JimParsons(SheldonCooper)1.jpg,"The Big Bang Theory" (Dr. Sheldon Cooper),Jim Parsons,Schauspieler,0,4,4,26,,,ja,6.44,2016_Nov_23_1453,59.9942652082,textInputTest,001,jb,
./img/SigmarGabriel1.jpg,Bundesminister für Wirtschaft und Energie & Parteivorsitzender SPD,Sigmar Gabriel,Politiker,0,5,5,37,,,ja,4.57,2016_Nov_23_1453,59.9942652082,textInputTest,001,jb,
./img/Shakira1.jpg,"Hips Don't Lie" "Waka Waka" "Whenever Wherever",Shakira,Sängerin,0,6,6,36,,,ja,6.59,2016_Nov_23_1453,59.9942652082,textInputTest,001,jb,
./img/SahraWagenknecht6.jpg,Fraktionsvorsitzende DIE LINKE,Sahra Wagenknecht,Politikerin  ,0,7,7,35,,,ja,5.888,2016_Nov_23_1453,59.9942652082,textInputTest,001,jb,
./img/NicoleKidman4.jpg,"Australia" "Moulin Rouge" "To Die For",Nicole Kidman,Schauspielerin,0,8,8,11,,,ja,3.24,2016_Nov_23_1453,59.9942652082,textInputTest,001,jb,
./img/TaylorSwift1.jpg,"Blank Space" "I Knew You Were Trouble" "Shake It Off",Taylor Swift,Sängerin,0,9,9,38,,,nein,19.272,2016_Nov_23_1453,59.9942652082,textInputTest,001,jb,
./img/BritneySpears5.jpg,"…Baby One More Time" "Oops! …I Did It Again" "Toxic",Britney Spears,Sängerin,0,10,10,17,,,ja,3.94,2016_Nov_23_1453,59.9942652082,textInputTest,001,jb,
./img/EmmaWatson(HermioneGranger)1.jpg,"Harry Potter"-Filme (Hermione Granger),Emma Watson,Schauspielerin,0,11,11,22,,,nein,19.473,2016_Nov_23_1453,59.9942652082,textInputTest,001,jb,
./img/JudithRakers7.jpg,"Tagesschau" in der ARD,Judith Rakers,Nachrichtensprecherin,0,12,12,29,,,ja,3.626,2016_Nov_23_1453,59.9942652082,textInputTest,001,jb,
./img/BarackObama2.jpg,Präsident der USA Demokratische Partei,Barack Obama,Politiker,0,13,13,2,,,ja,3.174,2016_Nov_23_1453,59.9942652082,textInputTest,001,jb,
./img/CobieSmulders(Robin)2.jpg,"How I Met Your Mother" (Robin Scherbatsky),Cobie Smulders,Schauspielerin,0,14,14,18,,,ja,7.637,2016_Nov_23_1453,59.9942652082,textInputTest,001,jb,
./img/KatjaBurkard5.jpg,"Punkt 12" bei RTL,Katja Burkard,Moderatorin,0,15,15,8,,,ja,3.092,2016_Nov_23_1453,59.9942652082,textInputTest,001,jb,
./img/JoachimLoew1.jpg,Bundestrainer der deutschen Fußballnationalmannschaft,Joachim Löw,Trainer,0,16,16,27,,,ja,2.839,2016_Nov_23_1453,59.9942652082,textInputTest,001,jb,
./img/TomCruise2.jpg,"Knight and Day" "Mission: Impossible"-Filme "Oblivion",Tom Cruise,Schauspieler,0,17,17,39,,,ja,3.922,2016_Nov_23_1453,59.9942652082,textInputTest,001,jb,
./img/BastianSchweinsteiger1.jpg,Fußballspieler bei Manchester United früher FC Bayern München,Bastian Schweinsteiger,Sportler,0,18,18,14,,,ja,5.922,2016_Nov_23_1453,59.9942652082,textInputTest,001,jb,
./img/MariskaHargitay(Liv)1.jpg,"Law & Order: Special Victims Unit" (Olivia 'Liv' Benson),Mariska Hargitay,Schauspielerin,0,19,19,9,,,ja,4.605,2016_Nov_23_1453,59.9942652082,textInputTest,001,jb,
./img/Ice-T(OdafinFinTutuola)1.jpg,"Law & Order: Special Victims Unit" (Odafin 'Fin' Tutuola),Ice-T,Schauspieler und Musiker,0,20,20,24,,,ja,3.339,2016_Nov_23_1453,59.9942652082,textInputTest,001,jb,
./img/MilaKunis5.jpg,"Black Swan" "Freunde mit gewissen Vorzügen" "Ted",Mila Kunis,Schauspielerin,0,21,21,33,,,ja,13.172,2016_Nov_23_1453,59.9942652082,textInputTest,001,jb,
./img/JoshRadnor(Ted)1.jpg,"How I Met Your Mother" (Ted Mosby),Josh Radnor,Schauspieler,0,22,22,28,,,ja,3.757,2016_Nov_23_1453,59.9942652082,textInputTest,001,jb,
./img/EmilyDeschanel3.jpg,"Bones - Die Knochenjägerin" (Dr. Temperance 'Bones' Brennan),Emily Deschanel,Schauspielerin,0,23,23,4,,,ja,13.45,2016_Nov_23_1453,59.9942652082,textInputTest,001,jb,
./img/JanHofer1.jpg,"Tagesschau" in der ARD,Jan Hofer,Nachrichtensprecher,0,24,24,25,,,ja,9.693,2016_Nov_23_1453,59.9942652082,textInputTest,001,jb,
./img/BenedictCumberbatch4.jpg,"Der Hobbit"-Filme (Stimme des Drachen Smaug) "Sherlock",Benedict Cumberbatch,Schauspieler,0,25,25,15,,,nein,7.487,2016_Nov_23_1453,59.9942652082,textInputTest,001,jb,
./img/LisaEdelstein(DrLisaCuddy)2.jpg,"Dr. House" (Dr. Lisa Cuddy),Lisa Edelstein,Schauspielerin,0,26,26,32,,,ja,6.432,2016_Nov_23_1453,59.9942652082,textInputTest,001,jb,
./img/CarenMiosga4.jpg,"tagesthemen" früher "ttt - titel thesen temperamente",Caren Miosga,Moderatorin,0,27,27,3,,,ja,2.589,2016_Nov_23_1453,59.9942652082,textInputTest,001,jb,
./img/Usher1.jpg,"DJ Got Us Fallin' in Love" "More" "OMG" "Yeah!",Usher,Sänger,0,28,28,41,,,nein,9.318,2016_Nov_23_1453,59.9942652082,textInputTest,001,jb,
./img/OmarEpps(DrEricForeman)1.jpg,"Dr. House" (Dr. Eric Foreman),Omar Epps,Schauspieler,0,29,29,34,,,ja,3.643,2016_Nov_23_1453,59.9942652082,textInputTest,001,jb,
./img/GeorgeClooney6.jpg,"Batman & Robin" "Gravity" "Ocean's Eleven",George Clooney,Schauspieler,0,30,30,23,,,ja,3.689,2016_Nov_23_1453,59.9942652082,textInputTest,001,jb,
./img/DannFlorek(DonaldDonCragen)1.jpg,"Law & Order: Special Victims Unit" (Donald 'Don' Cragen),Dann Florek,Schauspieler,0,31,31,20,,,ja,6.052,2016_Nov_23_1453,59.9942652082,textInputTest,001,jb,
./img/UrsulavonderLeyen1.jpg,Bundesministerin der Verteidigung CDU,Ursula von der Leyen,Politikerin,0,32,32,40,,,ja,2.104,2016_Nov_23_1453,59.9942652082,textInputTest,001,jb,
./img/HughLaurie(DrHouse)9.jpg,"Dr. House" (Dr. Gregory House),Hugh Laurie,Schauspieler ,0,33,33,6,,,ja,3.589,2016_Nov_23_1453,59.9942652082,textInputTest,001,jb,
./img/KaleyCuoco(Penny)2.jpg,"The Big Bang Theory" (Penny Hofstadter),Kaley Cuoco,Schauspielerin,0,34,34,30,,,ja,4.087,2016_Nov_23_1453,59.9942652082,textInputTest,001,jb,
./img/WillSmith4.jpg,"I Am Legend" "Independence Day" "Men in Black"-Filme,Will Smith,Schauspieler,0,35,35,13,,,ja,2.854,2016_Nov_23_1453,59.9942652082,textInputTest,001,jb,
./img/CristinMilioti(Tracy_Mutter)1.jpg,"How I Met Your Mother" (Tracy Mosby die Mutter),Cristin Milioti,Schauspielerin,0,36,36,19,,,nein,12.938,2016_Nov_23_1453,59.9942652082,textInputTest,001,jb,
./img/AngelaMerkel1.jpg,Bundeskanzlerin CDU,Angela Merkel,Politikerin,0,37,37,1,,,ja,19.276,2016_Nov_23_1453,59.9942652082,textInputTest,001,jb,
./img/ElvisPresley1.jpg,"Hound Dog" "In the Ghetto" "Jailhouse Rock",Elvis Presley,Sänger,0,38,38,21,,,ja,6.419,2016_Nov_23_1453,59.9942652082,textInputTest,001,jb,
./img/LeonardoDiCaprio1.jpg,"Django Unchained" "The Great Gatsby" "Titanic",Leonardo DiCaprio,Schauspieler,0,39,39,31,,,ja,2.712,2016_Nov_23_1453,59.9942652082,textInputTest,001,jb,
./img/JasonSegel(Marshall)2.jpg,"How I Met Your Mother" (Marshall Eriksen),Jason Segel,Schauspieler,0,40,40,7,,,ja,3.18,2016_Nov_23_1453,59.9942652082,textInputTest,001,jb,
./img/NeilPatrickHarris(Barney)4.jpg,"How I Met Your Mother" (Barney Stinson),Neil Patrick Harris,Schauspieler,0,41,41,10,,,ja,2.508,2016_Nov_23_1453,59.9942652082,textInputTest,001,jb,
