num,pic,trials.thisRepN,trials.thisTrialN,trials.thisN,trials.thisIndex,key_resp_2.keys,key_resp_2.rt,ratingBekannt.response,ratingBekannt.rt,key_resp_5.keys,key_resp_5.rt,ratingK1.response,ratingK1.rt,ratingK2.response,ratingK2.rt,ratingK3.response,ratingK3.rt,key_resp_6.keys,key_resp_6.rt,inputText,key_resp_4.keys,key_resp_4.rt,date,frameRate,expName,session,participant,
,,,,,,space,13.5864289765,,,,,,,,,,,,,,,,2017_Feb_06_1253,60.0525128537,famFaceFilter,001,10,
28,./img/smoo15_HughLaurie(DrHouse)5_3.png,0,0,0,27,,,None,None,1,2.09935003362,None,None,None,None,None,None,1,0.866428732736,hugh laurie,"['h', 'u', 'g', 'h', 'space', 'l', 'a', 'u', 'r', 'i', 'e', 'return']","[0.6501341505977507, 0.7501947140431184, 0.9501817544919504, 1.000530250927568, 1.133912257425436, 1.4335877554058243, 1.550444730723484, 1.733601998080303, 1.8501612886666408, 1.933540600604374, 2.0835082658836654, 2.933181967490782]",2017_Feb_06_1253,60.0525128537,famFaceFilter,001,10,
12,./img/smoo15_MariskaHargitay(Liv)8_8.png,0,1,1,11,,,None,None,1,11.196065814,None,None,None,None,None,None,1,0.367063237476,,['return'],[0.8001460836494516],2017_Feb_06_1253,60.0525128537,famFaceFilter,001,10,
46,./img/smoo15_NeilPatrickHarris(Barney)1_1.png,0,2,2,45,,,None,None,1,3.41566604392,None,None,None,None,None,None,1,1.28318671505,,['return'],[0.5167922417199406],2017_Feb_06_1253,60.0525128537,famFaceFilter,001,10,
69,./img/smoo15_BritneySpears5_1.png,0,3,3,68,,,None,None,1,0.93333209298,None,None,None,None,None,None,2,2.08297673183,britney,"['b', 'r', 'i', 't', 'n', 'e', 'y', 'return']","[0.8663908805820029, 1.0998247894394808, 1.4832199479565134, 1.6830905449169222, 1.8830028434022097, 2.0162738596877716, 2.2497382427363846, 3.099095654315988]",2017_Feb_06_1253,60.0525128537,famFaceFilter,001,10,
60,./img/smoo15_LeonardoDiCaprio2_1.png,0,4,4,59,,,None,None,1,1.10021646299,None,None,None,None,None,None,1,0.533598918583,di caprio,"['d', 'i', 'space', 'c', 'a', 'p', 'r', 'i', 'o', 'return']","[0.7167407884539898, 0.8833935546126668, 1.1333932338316117, 1.349890228755612, 1.5831284612268064, 1.7496490656294554, 1.9162527523008066, 1.9996522734390965, 2.0494977853281853, 2.2993977016685676]",2017_Feb_06_1253,60.0525128537,famFaceFilter,001,10,
26,./img/smoo15_TomCruise4_1.png,0,5,5,25,,,None,None,1,1.38340863132,None,None,None,None,None,None,1,0.600036825655,cruise,"['c', 'r', 'u', 'i', 's', 'e', 'return']","[0.49998075314215384, 0.7667925625009957, 1.4498317824641163, 1.499797587213834, 1.6347199838837696, 1.8331521990176043, 2.1992992860700724]",2017_Feb_06_1253,60.0525128537,famFaceFilter,001,10,
21,./img/smoo15_NeilPatrickHarris(Barney)3_7.png,0,6,6,20,,,None,None,1,2.59931089834,None,None,None,None,None,None,2,1.59944113541,,['return'],[1.1167254551241967],2017_Feb_06_1253,60.0525128537,famFaceFilter,001,10,
13,./img/smoo15_GeorgeClooney3_1.png,0,7,7,12,,,None,None,1,1.19989978803,None,None,None,None,None,None,1,0.383282243619,cloney,"['c', 'l', 'o', 'n', 'e', 'y', 'return']","[0.5336553760321294, 0.700186566206412, 0.9167307159318625, 1.2000518382033079, 1.283209169715974, 1.5166077926678554, 1.7331715100312977]",2017_Feb_06_1253,60.0525128537,famFaceFilter,001,10,
3,./img/smoo15_JoshRadnor(Ted)3_1.png,0,8,8,2,,,None,None,1,3.13239528426,None,None,None,None,None,None,1,0.366809499736,,['return'],[0.6666518038155118],2017_Feb_06_1253,60.0525128537,famFaceFilter,001,10,
5,./img/smoo15_BarackObama1_3.png,0,9,9,4,,,None,None,1,1.94984717995,None,None,None,None,None,None,4,1.28319248911,obama,"['o', 'b', 'a', 'm', 'a', 'return']","[0.6167488721339396, 0.81653253745435, 0.9165639098323481, 1.2164944286764694, 1.3330601348820892, 1.5495375621671883]",2017_Feb_06_1253,60.0525128537,famFaceFilter,001,10,
25,./img/smoo15_JasonSegel(Marshall)6_1.png,0,10,10,24,,,None,None,2,3.23243114757,None,None,None,None,None,None,1,6.13129211854,,['return'],[0.9501038047187649],2017_Feb_06_1253,60.0525128537,famFaceFilter,001,10,
54,./img/smoo15_LisaEdelstein(DrLisaCuddy)6_3.png,0,11,11,53,,,None,None,1,1.54965143941,None,None,None,None,None,None,1,0.900045935834,lisa cuddie,"['l', 'i', 's', 'a', 'space', 'c', 'u', 'd', 'd', 'i', 'e', 'return']","[0.6335760789788765, 0.8501250404183338, 1.6832826927125097, 1.849751009818192, 1.916554286403425, 2.0830550023865726, 2.200171810282427, 2.3494956681738586, 2.4994796932819554, 2.549506446413943, 2.699279397650116, 2.7992674645984152]",2017_Feb_06_1253,60.0525128537,famFaceFilter,001,10,
2,./img/smoo15_WillSmith5_1.png,0,12,12,1,,,None,None,1,1.58300046962,None,None,None,None,None,None,1,0.250356066867,will smith,"['w', 'i', 'l', 'l', 'space', 's', 'm', 'i', 't', 'h', 'return']","[0.333786062195486, 0.5837106786698314, 0.8168068051754744, 0.9669345401539431, 1.0336547344700193, 1.1501020725013404, 1.2496612553054547, 1.4161363088119288, 1.4829004501198142, 1.5665344621402255, 1.8166223561233892]",2017_Feb_06_1253,60.0525128537,famFaceFilter,001,10,
23,./img/smoo15_JoachimLoew4_1.png,0,13,13,22,,,None,None,1,0.80020318266,None,None,None,None,None,None,5,1.44982247982,jog löw,"['j', 'o', 'g', 'space', 'l', u'\xf6', 'w', 'return']","[0.7002215313314082, 0.9500585746031902, 1.049867966556576, 1.1332755072189684, 1.316348409182865, 1.5164602334257324, 1.6663188331785932, 1.7992122902733172]",2017_Feb_06_1253,60.0525128537,famFaceFilter,001,10,
64,./img/smoo15_JoachimLoew8_1.png,0,14,14,63,,,None,None,1,1.14986661928,None,None,None,None,None,None,5,1.23334858112,jogi,"['j', 'o', 'g', 'i', 'return']","[0.4500903319185454, 0.5502253165468574, 0.8166823421629488, 0.9167223756271596, 1.583210260371743]",2017_Feb_06_1253,60.0525128537,famFaceFilter,001,10,
43,./img/smoo15_JoachimLoew1_1.png,0,15,15,42,,,None,None,1,1.21654447051,None,None,None,None,None,None,5,0.866656166436,jogi,"['j', 'o', 'g', 'i', 'return']","[0.8001566694210851, 1.0665463310356245, 1.250033361219721, 1.3164356616043733, 1.5829873176039655]",2017_Feb_06_1253,60.0525128537,famFaceFilter,001,10,
14,./img/smoo15_BritneySpears7_1.png,0,16,16,13,,,None,None,1,1.11675721244,None,None,None,None,None,None,2,0.833428391425,britney,"['b', 'r', 'i', 't', 'e', 'backspace', 'n', 'e', 'y', 'return']","[0.33360000923858024, 0.6501739274367537, 0.8666914523419109, 1.0165616002091156, 1.2333148991206144, 1.6164386769451085, 1.866404032601622, 2.366103140060659, 2.5826710275769074, 2.932660056867917]",2017_Feb_06_1253,60.0525128537,famFaceFilter,001,10,
45,./img/smoo15_RobertSeanLeonard(Wilson)2_6.png,0,17,17,44,,,None,None,1,0.833275699687,None,None,None,None,None,None,1,0.5335244974,wilson,"['w', 'i', 'l', 's', 'o', 'n', 'return']","[0.4002878046776459, 0.5001773918711478, 0.6668054578958618, 0.7335388042311024, 0.8834317275468493, 0.9834294179236167, 1.2996761395424983]",2017_Feb_06_1253,60.0525128537,famFaceFilter,001,10,
65,./img/smoo15_UrsulavonderLeyen4_1.png,0,18,18,64,,,None,None,1,6.44750130879,None,None,None,None,None,None,4,1.5660802363,hillary,"['h', 'i', 'l', 'l', 'a', 'r', 'y', 'return']","[2.8991945831639896, 2.999285300019892, 3.2157951261820017, 3.3658439490445744, 3.565627293583475, 3.8321221713531486, 4.065294002165501, 4.3153745181866725]",2017_Feb_06_1253,60.0525128537,famFaceFilter,001,10,
59,./img/smoo15_JoshRadnor(Ted)1_2.png,0,19,19,58,,,None,None,2,3.19910906296,None,None,None,None,None,None,1,0.583524304932,,['return'],[0.5169959376298721],2017_Feb_06_1253,60.0525128537,famFaceFilter,001,10,
7,./img/smoo15_LisaEdelstein(DrLisaCuddy)2_2.png,0,20,20,6,,,None,None,1,1.15007737237,None,None,None,None,None,None,1,0.383532773549,lisa cuddie,"['l', 'i', 's', 'a', 'space', 'c', 'u', 'd', 'd', 'i', 'e', 'return']","[0.6333634012021321, 0.849856225973781, 1.0167187828801616, 1.1665908554332418, 1.2832608154512855, 1.4164121804383285, 1.5664071120991139, 1.6663897257708413, 1.7830224751974129, 1.8496977601794242, 1.9997045607356085, 2.116232094007046]",2017_Feb_06_1253,60.0525128537,famFaceFilter,001,10,
32,./img/smoo15_TomCruise1_1.png,0,21,21,31,,,None,None,1,1.24995637379,None,None,None,None,None,None,1,0.366876542956,cruise,"['c', 'r', 'u', 'i', 's', 'e', 'return']","[0.583503774950259, 0.8334595071778494, 1.1332042938456652, 1.183219178082254, 1.2833403691292915, 1.449822479816703, 1.5497900167833905]",2017_Feb_06_1253,60.0525128537,famFaceFilter,001,10,
42,./img/smoo15_OmarEpps(DrEricForeman)1_5.png,0,22,22,41,,,None,None,1,1.84931442693,None,None,None,None,None,None,1,0.250280362559,omar epps,"['o', 'm', 'a', 'r', 'space', 'e', 'p', 'p', 's', 'return']","[0.3168882835398108, 0.516934668466547, 0.5835210971222295, 0.8168581301292761, 0.8835395099495145, 1.0332213593928827, 1.133302132038807, 1.2831681097532055, 1.3664646602032917, 1.4998803487019359]",2017_Feb_06_1253,60.0525128537,famFaceFilter,001,10,
8,./img/smoo15_AngelaMerkel4_1.png,0,23,23,7,,,None,None,1,0.9000414449,None,None,None,None,None,None,4,1.26645830874,merkel,"['m', 'e', 'r', 'k', 'e', 'l', 'return']","[0.5002030543478213, 0.6002725996604568, 0.7834773425993262, 0.8166034300465981, 0.9833950943611853, 1.0333114988425223, 1.2164524063705358]",2017_Feb_06_1253,60.0525128537,famFaceFilter,001,10,
40,./img/smoo15_NeilPatrickHarris(Barney)2_2.png,0,24,24,39,,,None,None,1,1.91677754995,None,None,None,None,None,None,1,0.366937491339,,['return'],[0.550319305368248],2017_Feb_06_1253,60.0525128537,famFaceFilter,001,10,
70,./img/smoo15_JasonSegel(Marshall)7_1.png,0,25,25,69,,,None,None,2,2.21624646499,None,None,None,None,None,None,2,3.63218421039,,['return'],[0.5669277395977588],2017_Feb_06_1253,60.0525128537,famFaceFilter,001,10,
33,./img/smoo15_Ice-T(OdafinFinTutuola)7_1.png,0,26,26,32,,,None,None,1,3.68227479893,None,None,None,None,None,None,1,0.850117020895,,['return'],[0.30019355923150215],2017_Feb_06_1253,60.0525128537,famFaceFilter,001,10,
20,./img/smoo15_NicoleKidman5_1.png,0,27,27,19,,,None,None,1,1.19992929988,None,None,None,None,None,None,1,0.266913817704,kidman,"['k', 'i', 'd', 'm', 'a', 'n', 'return']","[0.9001508312076112, 1.0998841339169303, 1.249987168761436, 1.3163076700011516, 1.4832671027579636, 1.5066748102258316, 1.7663332041656759]",2017_Feb_06_1253,60.0525128537,famFaceFilter,001,10,
17,./img/smoo15_GeorgeClooney11_1.png,0,28,28,16,,,None,None,1,0.966795000436,None,None,None,None,None,None,1,0.233543615946,cloney,"['c', 'l', 'o', 'n', 'e', 'y', 'return']","[0.45010123847123396, 0.7834805504089672, 0.9833543551790171, 1.1500295760047266, 1.2665388247614828, 1.466339812253409, 1.6663146630262418]",2017_Feb_06_1253,60.0525128537,famFaceFilter,001,10,
51,./img/smoo15_LeonardoDiCaprio1_1.png,0,29,29,50,,,None,None,1,1.01666521246,None,None,None,None,None,None,1,0.283558820963,dicaprio,"['d', 'i', 'c', 'a', 'p', 'r', 'i', 'o', 'return']","[1.0666743226388462, 1.3665695555769162, 1.5665469725972798, 1.766532088360691, 1.9163833101515593, 2.0829648629364783, 2.1997105272612316, 2.265906886269022, 2.4827589857159182]",2017_Feb_06_1253,60.0525128537,famFaceFilter,001,10,
58,./img/smoo15_EmilyDeschanel3_1.png,0,30,30,57,,,None,None,2,3.21571461016,None,None,None,None,None,None,1,0.999711938697,,['return'],[0.6835624137097511],2017_Feb_06_1253,60.0525128537,famFaceFilter,001,10,
6,./img/smoo15_AlysonHannigan(Lily)1_1.png,0,31,31,5,,,None,None,1,1.1499808173,None,None,None,None,None,None,1,0.250265285854,willow,"['w', 'i', 'l', 'l', 'o', 'w', 'return']","[0.5830088099282875, 0.7168158511985894, 0.9333616048284057, 1.066667265457454, 1.2666321720203086, 1.3498443570779273, 1.534426533461101]",2017_Feb_06_1253,60.0525128537,famFaceFilter,001,10,
27,./img/smoo15_JasonSegel(Marshall)9_1.png,0,32,32,26,,,None,None,2,2.21595134651,None,None,None,None,None,None,1,0.65014505715,,['return'],[0.2838273146271604],2017_Feb_06_1253,60.0525128537,famFaceFilter,001,10,
57,./img/smoo15_UrsulavonderLeyen5_1.png,0,33,33,56,,,None,None,1,4.0488058608,None,None,None,None,None,None,4,5.86458648768,von der leyen,"['v', 'o', 'n', 'space', 'd', 'e', 'r', 'space', 'l', 'e', 'y', 'e', 'n', 'return']","[0.3502684295076506, 0.8335454764751375, 1.5498031688025549, 1.6829824417336567, 1.8330761739302943, 2.0163678485091623, 2.082945936860142, 2.1660317342189046, 2.2328343692420276, 2.3827542381582134, 2.649285684957249, 2.8827969020258024, 2.949328477137442, 3.1825237249599923]",2017_Feb_06_1253,60.0525128537,famFaceFilter,001,10,
36,./img/smoo15_BastianSchweinsteiger6_2.png,0,34,34,35,,,None,None,1,1.21660509811,None,None,None,None,None,None,5,1.48297968302,schweini,"['s', 'c', 'h', 'w', 'e', 'i', 'n', 'i', 'return']","[0.41693858199414535, 0.6335921180266268, 0.7502094699671034, 0.900109771244388, 1.0833058530974995, 1.1668587075350842, 1.2334611752385172, 1.6498111241703555, 1.916459014458269]",2017_Feb_06_1253,60.0525128537,famFaceFilter,001,10,
16,./img/smoo15_WillSmith4_1.png,0,35,35,15,,,None,None,1,1.36677421383,None,None,None,None,None,None,1,0.233610659166,will smith,"['w', 'i', 'l', 'l', 'space', 's', 'm', 'i', 't', 'h', 'return']","[0.23364754897693274, 0.45017950902547454, 0.683430251954178, 0.8000883430768226, 0.8832716578472173, 0.9999765829898024, 1.0665886741226132, 1.2331609242596642, 1.366373558410487, 1.391919270980452, 1.6496529791570538]",2017_Feb_06_1253,60.0525128537,famFaceFilter,001,10,
67,./img/smoo15_GeorgeClooney4_2.png,0,36,36,66,,,None,None,1,1.10024372937,None,None,None,None,None,None,1,0.200182396054,clooney,"['c', 'l', 'o', 'o', 'n', 'e', 'y', 'return']","[0.2669410840853743, 0.38355041650174826, 0.5834659227966768, 0.750245076653755, 0.9334783690978838, 1.0332941766705517, 1.2500285495052594, 1.3832341264746901]",2017_Feb_06_1253,60.0525128537,famFaceFilter,001,10,
48,./img/smoo15_JoshRadnor(Ted)6_2.png,0,37,37,47,,,None,None,2,3.94886045772,None,None,None,None,None,None,2,2.23279908334,,['return'],[0.949859048846065],2017_Feb_06_1253,60.0525128537,famFaceFilter,001,10,
11,./img/smoo15_LeonardoDiCaprio3_1.png,0,38,38,10,,,None,None,1,0.950116315176,None,None,None,None,None,None,1,0.300213768432,dicaprio,"['d', 'i', 'c', 'a', 'p', 'r', 'i', 'o', 'return']","[0.4836360008621341, 0.6168005178687963, 0.9000619748812824, 1.0832699256297929, 1.216655460718357, 1.3831654793493726, 1.4997690377081199, 1.523886633442089, 2.1662142585851143]",2017_Feb_06_1253,60.0525128537,famFaceFilter,001,10,
15,./img/smoo15_LisaEdelstein(DrLisaCuddy)1_1.png,0,39,39,14,,,None,None,1,0.950011419802,None,None,None,None,None,None,1,0.233577939508,lisacuddie,"['l', 'i', 's', 'a', 'c', 'u', 'd', 'd', 'i', 'e', 'return']","[0.48362669821426607, 0.7168784034856799, 0.833344026031682, 0.9834412868190157, 1.3166265262757406, 1.4667176922243925, 1.5665168191871999, 1.7164565765228872, 1.7662825207735295, 1.966443103722213, 2.2329982883125012]",2017_Feb_06_1253,60.0525128537,famFaceFilter,001,10,
10,./img/smoo15_KatjaBurkard5_3.png,0,40,40,9,,,None,None,1,4.86516645966,None,None,None,None,None,None,3,1.3498036179,,['return'],[0.6666287075863693],2017_Feb_06_1253,60.0525128537,famFaceFilter,001,10,
39,./img/smoo15_BarackObama2_1.png,0,41,41,38,,,None,None,1,1.46654703675,None,None,None,None,None,None,4,0.983312974435,obama,"['o', 'b', 'a', 'm', 'a', 'return']","[0.48351634956406997, 0.8001338939729976, 0.9168532542589674, 1.0332941766710064, 1.149969589965167, 1.3166845876298794]",2017_Feb_06_1253,60.0525128537,famFaceFilter,001,10,
22,./img/smoo15_WillSmith1_1.png,0,42,42,21,,,None,None,1,0.883064433347,None,None,None,None,None,None,1,0.250252454616,will smith,"['w', 'i', 'l', 'l', 'space', 's', 'm', 'i', 't', 'h', 'return']","[0.2837227400341362, 0.48359750714689653, 0.7001403737481269, 0.8501397963427735, 0.9333988154198778, 1.033424413740704, 1.1165836699397005, 1.266707234765363, 1.3663296114186778, 1.399490984772001, 1.6331404584343545]",2017_Feb_06_1253,60.0525128537,famFaceFilter,001,10,
53,./img/smoo15_GuentherJauch4_1.png,0,43,43,52,,,None,None,1,1.26688943835,None,None,None,None,None,None,3,1.13298808748,jauch,"['j', 'a', 'u', 'c', 'h', 'return']","[0.6502197991144385, 0.7501244630129804, 0.8501465327426558, 0.9667346936157628, 1.0334221682742282, 1.2663963980148765]",2017_Feb_06_1253,60.0525128537,famFaceFilter,001,10,
68,./img/smoo15_AlysonHannigan(Lily)8_3.png,0,44,44,67,,,None,None,1,0.866895148252,None,None,None,None,None,None,1,0.199994418411,willow,"['w', 'i', 'l', 'l', 'o', 'w', 'return']","[0.20033380466747985, 0.2837490440729198, 0.5001844490520853, 0.650325015269118, 0.8335140399412921, 0.9165488331273082, 1.0999742733670246]",2017_Feb_06_1253,60.0525128537,famFaceFilter,001,10,
30,./img/smoo15_KatjaBurkard4_1.png,0,45,45,29,,,None,None,1,2.1498746388,None,None,None,None,None,None,3,1.11655447887,,['return'],[1.2499040864927338],2017_Feb_06_1253,60.0525128537,famFaceFilter,001,10,
9,./img/smoo15_EmilyDeschanel6_12.png,0,46,46,8,,,None,None,2,4.63188395941,None,None,None,None,None,None,1,0.79976563743,,['return'],[0.41694980932788894],2017_Feb_06_1253,60.0525128537,famFaceFilter,001,10,
31,./img/smoo15_BritneySpears1_1.png,0,47,47,30,,,None,None,1,1.28318607349,None,None,None,None,None,None,2,0.866575008854,britney,"['b', 'r', 'i', 't', 'n', 'e', 'y', 'return']","[1.0333031585373647, 1.3498687364308353, 1.4665030897622273, 1.7664634412353735, 1.9162174663947553, 2.0497018020191717, 2.2327419843250027, 2.4159730313031105]",2017_Feb_06_1253,60.0525128537,famFaceFilter,001,10,
1,./img/smoo15_Ice-T(OdafinFinTutuola)6_1.png,0,48,48,0,,,None,None,1,1.40026535001,None,None,None,None,None,None,1,0.483457967429,,['return'],[0.38366653920957106],2017_Feb_06_1253,60.0525128537,famFaceFilter,001,10,
62,./img/smoo15_RobertSeanLeonard(Wilson)1_1.png,0,49,49,61,,,None,None,1,1.01661645375,None,None,None,None,None,None,1,0.216942880459,wilson,"['w', 'i', 'l', 's', 'o', 'n', 'return']","[0.43348029378421415, 0.5502317321661394, 0.7501610320423424, 0.8501025857513014, 0.9499745299917777, 1.1167241720004313, 1.3498013724292832]",2017_Feb_06_1253,60.0525128537,famFaceFilter,001,10,
35,./img/smoo15_KatjaBurkard1_1.png,0,50,50,34,,,None,None,1,3.38263843623,None,None,None,None,None,None,3,0.966668291957,,['return'],[0.683534505766147],2017_Feb_06_1253,60.0525128537,famFaceFilter,001,10,
61,./img/smoo15_OmarEpps(DrEricForeman)3_1.png,0,51,51,60,,,None,None,1,2.23297551286,None,None,None,None,None,None,1,0.150477707006,omar epps,"['i', 'backspace', 'o', 'm', 'a', 'r', 'space', 'e', 'p', 'p', 's', 'return']","[0.20056476695890524, 0.550380253750518, 1.01680571452016, 1.1834591222404924, 1.2833698809772613, 1.4998399303008227, 1.5497964324026725, 1.7164482362181843, 1.949365687728914, 2.0998363375538247, 2.1996460502882655, 2.333050832234221]",2017_Feb_06_1253,60.0525128537,famFaceFilter,001,10,
24,./img/smoo15_BastianSchweinsteiger1_1.png,0,52,52,23,,,None,None,1,1.51642494752,None,None,None,None,None,None,5,1.73298385317,schweini,"['s', 'c', 'h', 'w', 'e', 'i', 'n', 'i', 'return']","[0.3003751212554562, 0.5335860873447018, 0.600227048763827, 0.8668438232984954, 1.083194862885648, 1.1665773826325676, 1.233265498853143, 1.5332191139259521, 1.8164491344045928]",2017_Feb_06_1253,60.0525128537,famFaceFilter,001,10,
52,./img/smoo15_BastianSchweinsteiger3_1.png,0,53,53,51,,,None,None,1,1.41649911208,None,None,None,None,None,None,5,0.3335602324,schweini,"['s', 'c', 'h', 'w', 'e', 'i', 'n', 'e', 'backspace', 'i', 'return']","[0.2334460985334772, 0.4335470162236561, 0.5335411780101822, 0.6668417061441687, 0.8169020771206306, 0.9165289447073519, 1.0000256624766735, 1.0998899079741022, 1.6830523719827397, 1.8663401971903113, 2.4994277267664984]",2017_Feb_06_1253,60.0525128537,famFaceFilter,001,10,
41,./img/smoo15_AngelaMerkel3_1.png,0,54,54,40,,,None,None,1,1.73299636363,None,None,None,None,None,None,4,1.31651136591,merkel,"['m', 'e', 'r', 'k', 'e', 'l', 'return']","[0.3834528990896615, 0.6001013026270812, 0.833353007898495, 1.016728727089685, 1.1665828359086845, 1.2332962938248784, 1.449883428198973]",2017_Feb_06_1253,60.0525128537,famFaceFilter,001,10,
4,./img/smoo15_UrsulavonderLeyen1_1.png,0,55,55,3,,,None,None,1,1.38327229941,None,None,None,None,None,None,4,1.59987835986,von der leyen,"['v', 'o', 'n', 'space', 'd', 'e', 'r', 'space', 'l', 'e', 'y', 'e', 'n', 'return']","[0.6337095238586699, 0.700325785143832, 0.8998294086854912, 0.9334995406420603, 0.9666294774606286, 1.1667743421426167, 1.249929428188807, 1.3333334402605033, 1.433209554653331, 1.583197429133179, 1.816524197149647, 2.066415773184872, 2.11621445105402, 2.349666644426179]",2017_Feb_06_1253,60.0525128537,famFaceFilter,001,10,
56,./img/smoo15_MariskaHargitay(Liv)6_5.png,0,56,56,55,,,None,None,1,3.21582977053,None,None,None,None,None,None,1,0.950006928869,,['return'],[0.616946793986699],2017_Feb_06_1253,60.0525128537,famFaceFilter,001,10,
37,./img/smoo15_Ice-T(OdafinFinTutuola)5_1.png,0,57,57,36,,,None,None,1,2.29947661378,None,None,None,None,None,None,1,0.833357178051,,['return'],[0.5177472066397968],2017_Feb_06_1253,60.0525128537,famFaceFilter,001,10,
55,./img/smoo15_MariskaHargitay(Liv)4_4.png,0,58,58,54,,,None,None,2,2.79968961234,None,None,None,None,None,None,1,1.49953454683,,['return'],[0.6334750329760936],2017_Feb_06_1253,60.0525128537,famFaceFilter,001,10,
71,./img/smoo15_AngelaMerkel1_1.png,0,59,59,70,,,None,None,1,1.16671114829,None,None,None,None,None,None,4,0.983153867079,merkel,"['m', 'e', 'r', 'k', 'e', 'l', 'return']","[0.41696873540468005, 0.550101495095987, 0.7168222668178714, 0.7665564677140537, 0.916725904217401, 0.9667789613881723, 1.1999742092107226]",2017_Feb_06_1253,60.0525128537,famFaceFilter,001,10,
18,./img/smoo15_HughLaurie(DrHouse)4_1.png,0,60,60,17,,,None,None,1,1.58315316136,None,None,None,None,None,None,1,0.266669382612,hugh laurie,"['h', 'u', 'g', 'h', 'space', 'l', 'a', 'u', 'r', 'i', 'e', 'return']","[1.0333307457003684, 1.1333146424958613, 1.266529842894215, 1.333218600676446, 1.4166049697951166, 1.5831137053023667, 1.6664022362283504, 1.8163047829721108, 1.8663058736274252, 1.9996112134758732, 2.066105898776641, 2.249515941530717]",2017_Feb_06_1253,60.0525128537,famFaceFilter,001,10,
38,./img/smoo15_AlysonHannigan(Lily)5_4.png,0,61,61,37,,,None,None,1,2.69932334464,None,None,None,None,None,None,1,0.150128697321,willow,"['w', 'i', 'l', 'l', 'o', 'w', 'return']","[0.1839204052621426, 0.2671146265856805, 0.4667953212174325, 0.6170067800267134, 0.8336301626491149, 0.9501175983004941, 1.083479395597351]",2017_Feb_06_1253,60.0525128537,famFaceFilter,001,10,
66,./img/smoo15_NicoleKidman3_1.png,0,62,62,65,,,None,None,1,1.64987207255,None,None,None,None,None,None,1,0.13354977494,kidman,"['k', 'i', 'd', 'm', 'a', 'n', 'return']","[0.20023179632198662, 0.4016729368649976, 0.483553239374487, 0.9332381041590452, 1.0166129251629172, 1.099920382165692, 1.3333485169655432]",2017_Feb_06_1253,60.0525128537,famFaceFilter,001,10,
44,./img/smoo15_GuentherJauch2_1.png,0,63,63,43,,,None,None,1,1.16656904233,None,None,None,None,None,None,3,1.11655479965,jauch,"['j', 'a', 'u', 'c', 'h', 'return']","[0.4002990320113895, 0.4836398502338852, 0.5668549223196351, 0.6667926266568429, 0.7167571482827952, 0.9667504118824581]",2017_Feb_06_1253,60.0525128537,famFaceFilter,001,10,
19,./img/smoo15_NicoleKidman7_1.png,0,64,64,18,,,None,None,1,1.88297044453,None,None,None,None,None,None,1,0.450240457408,kidman,"['k', 'i', 'd', 'm', 'a', 'n', 'return']","[0.4168468386396853, 0.6167052459236402, 0.716790830284026, 0.8500156541108481, 1.000073779620834, 1.0667112124492633, 1.2832893649565449]",2017_Feb_06_1253,60.0525128537,famFaceFilter,001,10,
47,./img/smoo15_BarackObama4_1.png,0,65,65,46,,,None,None,1,1.24977769879,None,None,None,None,None,None,4,1.14993815343,obama,"['o', 'b', 'a', 'm', 'a', 'return']","[0.3171064145926721, 0.6003893639294802, 0.7836277888695804, 0.8836097609796525, 0.9835314262691099, 1.1502807474962538]",2017_Feb_06_1253,60.0525128537,famFaceFilter,001,10,
34,./img/smoo15_EmilyDeschanel5_1.png,0,66,66,33,,,None,None,2,2.16593806618,None,None,None,None,None,None,1,0.349921344508,,['return'],[0.51688270195109],2017_Feb_06_1253,60.0525128537,famFaceFilter,001,10,
50,./img/smoo15_OmarEpps(DrEricForeman)2_2.png,0,67,67,49,,,None,None,1,1.21660958904,None,None,None,None,None,None,1,0.250296722389,omar epps,"['o', 'm', 'a', 'r', 'space', 'e', 'p', 'p', 's', 'return']","[0.4503402202867619, 0.6502980696686791, 0.733034857342318, 0.9334908795558476, 0.983329013482944, 1.1502076094375298, 1.233262291043502, 1.3834448795660137, 1.4500479888315567, 1.5998815676693994]",2017_Feb_06_1253,60.0525128537,famFaceFilter,001,10,
72,./img/smoo15_HughLaurie(DrHouse)2_1.png,0,68,68,71,,,None,None,1,1.06631665187,None,None,None,None,None,None,1,0.18352905249,hugh laurie,"['h', 'u', 'g', 'h', 'space', 'l', 'a', 'u', 'r', 'i', 'e', 'return']","[0.3837300538398267, 0.4669448051445215, 0.5501573109827405, 0.6168390115840339, 0.7168136057316588, 0.866857937660825, 0.9500864825467943, 1.1001458911805457, 1.1500106499279354, 1.3332750581253094, 1.4998861227591078, 1.6497197015964957]",2017_Feb_06_1253,60.0525128537,famFaceFilter,001,10,
49,./img/smoo15_TomCruise5_1.png,0,69,69,48,,,None,None,1,1.38316002607,None,None,None,None,None,None,1,0.133481448595,cruise,"['c', 'r', 'o', 'backspace', 'u', 'i', 's', 'e', 'return']","[0.45039314914492934, 0.6835871138437142, 0.7668682668077054, 1.166685806597343, 1.4165963087093587, 1.5165372208562076, 1.7162499935843698, 1.8830637917849344, 1.9497063571088802]",2017_Feb_06_1253,60.0525128537,famFaceFilter,001,10,
63,./img/smoo15_RobertSeanLeonard(Wilson)8_1.png,0,70,70,62,,,None,None,1,1.14996285356,None,None,None,None,None,None,1,0.133445521128,wilson,"['w', 'i', 'l', 's', 'o', 'n', 'return']","[0.20022987163611106, 0.28364992275601253, 0.4834675908577992, 0.6168964313760625, 0.7001926610450937, 0.8499373835566075, 1.1499407196783977]",2017_Feb_06_1253,60.0525128537,famFaceFilter,001,10,
29,./img/smoo15_GuentherJauch3_1.png,0,71,71,28,,,None,None,1,1.13326171364,None,None,None,None,None,None,3,1.43314379456,jauch,"['j', 'a', 'u', 'c', 'h', 'return']","[0.383516734501427, 0.500190223109712, 0.600108039027873, 0.6999928145064587, 0.7499624686279276, 0.9832270051379055]",2017_Feb_06_1253,60.0525128537,famFaceFilter,001,10,
34,./img/edges5_KatjaBurkard1_1.png,0,0,0,33,,,None,None,1,3.66554126013,None,None,None,None,None,None,3,0.416585081376,,['return'],[0.5669466656745499],2017_Feb_06_1253,60.0525128537,famFaceFilter,001,10,
29,./img/edges5_TomCruise4_1.png,0,1,1,28,,,None,None,1,1.84969391081,None,None,None,None,None,None,1,0.20008070849,cruise,"['c', 'r', 'u', 'i', 's', 'e', 'return']","[0.23366198412031736, 0.48358050575643574, 0.6502239692667899, 0.673540254161253, 0.7669170255139761, 0.950107333309461, 1.1000198242636543]",2017_Feb_06_1253,60.0525128537,famFaceFilter,001,10,
25,./img/edges5_JoachimLoew8_1.png,0,2,2,24,,,None,None,1,1.71634462397,None,None,None,None,None,None,5,1.33316214323,jogi,"['j', 'o', 'g', 'i', 'return']","[1.1500331045954226, 1.299331300009726, 1.4499187141045695, 1.5332271334500547, 1.7664451567206925]",2017_Feb_06_1253,60.0525128537,famFaceFilter,001,10,
32,./img/edges5_Ice-T(OdafinFinTutuola)7_1.png,0,3,3,31,,,None,None,1,1.6497870656,None,None,None,None,None,None,1,0.266931139876,,['return'],[0.21698329886021384],2017_Feb_06_1253,60.0525128537,famFaceFilter,001,10,
71,./img/edges5_HughLaurie(DrHouse)4_1.png,0,4,4,70,,,None,None,1,0.883414405375,None,None,None,None,None,None,1,0.217054512233,laurie,"['l', 'a', 'u', 'r', 'i', 'e', 'return']","[0.5669460241124398, 0.7669959376298721, 0.8836270831516231, 1.0001530125182398, 1.0835560622472258, 1.2002048507215477, 1.3500262398824816]",2017_Feb_06_1253,60.0525128537,famFaceFilter,001,10,
5,./img/edges5_AlysonHannigan(Lily)1_1.png,0,5,5,4,,,None,None,1,1.16646831711,None,None,None,None,None,None,1,0.183606681483,willow,"['w', 'i', 'l', 'l', 'o', 'w', 'return']","[0.8500175787967237, 0.9333891919909547, 1.1499881952604483, 1.3012736287255393, 1.4832160985847622, 1.6164293742972404, 1.733099334315284]",2017_Feb_06_1253,60.0525128537,famFaceFilter,001,10,
37,./img/edges5_JasonSegel(Marshall)9_1.png,0,6,6,36,,,None,None,2,2.53271131767,None,None,None,None,None,None,5,2.98225151024,,['return'],[0.13364280141877316],2017_Feb_06_1253,60.0525128537,famFaceFilter,001,10,
7,./img/edges5_AngelaMerkel3_1.png,0,7,7,6,,,None,None,1,2.09955308797,None,None,None,None,None,None,4,0.999973375181,merkel,"['m', 'e', 'k', 'r', 'l', 'e', 'backspace', 'backspace', 'backspace', 'backspace', 'r', 'k', 'e', 'l', 'return']","[0.2670440547740327, 0.3836463300090145, 0.5002428311872791, 0.5669450617697294, 0.683458159897782, 0.7501084239647753, 1.1498335788378427, 1.3167298177449993, 1.449941489552657, 1.8164193017751131, 2.0664757592244314, 2.332943049831556, 2.4494676960739525, 2.5495250517096792, 2.7993691521628534]",2017_Feb_06_1253,60.0525128537,famFaceFilter,001,10,
14,./img/edges5_AngelaMerkel4_1.png,0,8,8,13,,,None,None,1,1.41655492797,None,None,None,None,None,None,4,0.566795898623,merkel,"['m', 'e', 'r', 'k', 'e', 'l', 'return']","[0.7167581106259604, 0.8335589492758118, 0.9999868479808356, 1.0666297340858364, 1.1999033166189292, 1.2832101320591391, 1.5331806202111693]",2017_Feb_06_1253,60.0525128537,famFaceFilter,001,10,
45,./img/edges5_WillSmith4_1.png,0,9,9,44,,,None,None,1,1.08315989776,None,None,None,None,None,None,1,0.183513334223,will smith,"['w', 'i', 'l', 'l', 'space', 's', 'm', 'i', 't', 'h', 'return']","[0.5002341701010664, 0.6669514132322547, 0.8832315602271592, 1.0166154914104482, 1.1000804518648692, 1.3330270944429685, 1.4163566853317207, 1.583286606240108, 1.716410063283547, 1.7496894840301138, 2.016403775976869]",2017_Feb_06_1253,60.0525128537,famFaceFilter,001,10,
51,./img/edges5_Ice-T(OdafinFinTutuola)6_1.png,0,10,10,50,,,None,None,1,1.8161880187,None,None,None,None,None,None,1,0.250096234288,,['return'],[0.16693505340390402],2017_Feb_06_1253,60.0525128537,famFaceFilter,001,10,
4,./img/edges5_LeonardoDiCaprio1_1.png,0,11,11,3,,,None,None,1,1.18322623526,None,None,None,None,None,None,1,0.15032854386,di caprio,"['d', 'i', 'space', 'c', 'a', 'p', 'r', 'i', 'o', 'return']","[0.4502674030086382, 0.5335398948864167, 0.7334117749710458, 0.850113813085045, 1.050104702905628, 1.1666046490145163, 1.3499980111582772, 1.5664741553196109, 1.6498640530289777, 1.9659083618616933]",2017_Feb_06_1253,60.0525128537,famFaceFilter,001,10,
26,./img/edges5_NicoleKidman7_1.png,0,12,12,25,,,None,None,1,1.26661196282,None,None,None,None,None,None,1,0.150236158943,kdiman,"['k', 'd', 'i', 'm', 'a', 'n', 'return']","[0.367146319744279, 0.5002165271484955, 0.6165948972729893, 0.816253778799819, 0.8835783244453523, 1.000024700133963, 1.2665667327046322]",2017_Feb_06_1253,60.0525128537,famFaceFilter,001,10,
65,./img/edges5_LisaEdelstein(DrLisaCuddy)1_1.png,0,13,13,64,,,None,None,1,1.61652977874,None,None,None,None,None,None,1,0.183588717749,lisa cuddie,"['l', 'i', 's', 'a', 'space', 'c', 'u', 'd', 'd', 'i', 'e', 'return']","[0.3170153127998674, 0.5335244974003217, 1.050054981856647, 1.1832502938350444, 1.266532409141746, 1.466443745284323, 1.6496863403767748, 1.7331227513254817, 1.866437393821343, 1.949650220440617, 2.099537369698737, 2.2995507141868075]",2017_Feb_06_1253,60.0525128537,famFaceFilter,001,10,
40,./img/edges5_NicoleKidman3_1.png,0,14,14,39,,,None,None,1,1.11660997398,None,None,None,None,None,None,1,0.150277860468,kidman,"['k', 'i', 'd', 'm', 'a', 'n', 'return']","[0.250330725169988, 0.45024879771290216, 0.6002350682879296, 0.6835425252902496, 0.8334373732914173, 0.8834625225185846, 1.1833343384469117]",2017_Feb_06_1253,60.0525128537,famFaceFilter,001,10,
6,./img/edges5_GuentherJauch3_1.png,0,15,15,5,,,None,None,1,1.14969917162,None,None,None,None,None,None,3,0.866078119146,jauch,"['j', 'a', 'u', 'c', 'h', 'return']","[0.5172878483040222, 0.5840029101250366, 0.7339016074975007, 0.8172135554336819, 0.8838747260533637, 1.1337518669452038]",2017_Feb_06_1253,60.0525128537,famFaceFilter,001,10,
42,./img/edges5_JoachimLoew4_1.png,0,16,16,41,,,None,None,1,1.66637496985,None,None,None,None,None,None,5,0.866740531829,jogi,"['j', 'o', 'g', 'i', 'return']","[0.7167491287591474, 1.099926477003919, 1.19990524130435, 1.7996937824950692, 2.066376637907524]",2017_Feb_06_1253,60.0525128537,famFaceFilter,001,10,
46,./img/edges5_TomCruise5_1.png,0,17,17,45,,,None,None,1,1.4994861089,None,None,None,None,None,None,1,0.216582001879,cruise,"['c', 'r', 'u', 'i', 's', 'e', 'return']","[0.48349068708694176, 0.7333344667595156, 0.9664925039905938, 0.9925825818504563, 1.099941874490014, 1.2664291176724873, 1.4830464054566619]",2017_Feb_06_1253,60.0525128537,famFaceFilter,001,10,
62,./img/edges5_AlysonHannigan(Lily)5_4.png,0,18,18,61,,,None,None,1,0.96682611619,None,None,None,None,None,None,1,0.200034516031,willow,"['w', 'i', 'l', 'l', 'o', 'w', 'return']","[0.2503865410576509, 0.40023712128595434, 0.6168207270693529, 0.7667649753384467, 0.9833286927023437, 1.1000442036165623, 1.3998338996188977]",2017_Feb_06_1253,60.0525128537,famFaceFilter,001,10,
18,./img/edges5_JoshRadnor(Ted)6_2.png,0,19,19,17,,,None,None,2,2.03297660352,None,None,None,None,None,None,2,1.36656089449,,['return'],[0.8000100725221273],2017_Feb_06_1253,60.0525128537,famFaceFilter,001,10,
68,./img/edges5_MariskaHargitay(Liv)4_4.png,0,20,20,67,,,None,None,1,4.21547049585,None,None,None,None,None,None,1,0.416651803816,wolke hegenbarth,"['w', 'l', 'k', 'e', 'backspace', 'backspace', 'backspace', 'p', 'backspace', 'o', 'l', 'k', 'e', 'space', 'h', 'e', 'g', 'e', 'n', 'b', 'a', 'r', 't', 'h', 'return']","[0.7334987066114991, 1.050116251019972, 1.2667810143866518, 1.3998977350297537, 1.6665032822306785, 1.8165193854351855, 1.9497044324230046, 2.1329528015726282, 2.7826311224253004, 2.9993144910877163, 3.1992447533066297, 3.3657185236893383, 3.4657855027535334, 3.5657562475303166, 3.665824188937677, 3.765668225234549, 3.9988920225623588, 4.198918198288993, 4.448489314144808, 4.765295156977572, 4.848486812053125, 5.01517999661246, 5.215105447117367, 5.29854634899948, 5.59819586372214]",2017_Feb_06_1253,60.0525128537,famFaceFilter,001,10,
58,./img/edges5_HughLaurie(DrHouse)5_3.png,0,21,21,57,,,None,None,1,1.21644823622,None,None,None,None,None,None,1,0.166916448108,hugh laurie,"['h', 'u', 'g', 'h', 'space', 'l', 'a', 'u', 'r', 'i', 'e', 'return']","[0.26676786236703265, 0.35041759265459405, 0.46703494459507056, 0.5502776038433694, 0.6166962640568272, 0.8000851352671816, 0.9001116959307183, 1.0000333612201757, 1.0833177219933532, 1.1999584909440273, 1.3166412822001803, 1.4164237285526724]",2017_Feb_06_1253,60.0525128537,famFaceFilter,001,10,
9,./img/edges5_RobertSeanLeonard(Wilson)8_1.png,0,22,22,8,,,None,None,1,1.14994809764,None,None,None,None,None,None,1,0.116988174731,wilson,"['w', 'i', 'l', 's', 'o', 'n', 'return']","[0.23370240252097574, 0.3503720417579643, 0.5501739915930557, 0.700153525767746, 0.7667633714336262, 0.9334010608868084, 1.1833102798750588]",2017_Feb_06_1253,60.0525128537,famFaceFilter,001,10,
48,./img/edges5_GeorgeClooney3_1.png,0,23,23,47,,,None,None,1,1.48307238871,None,None,None,None,None,None,1,0.133635744237,clooney,"['c', 'o', 'backspace', 'l', 'o', 'o', 'n', 'e', 'y', 'return']","[0.24998428173330467, 0.3664085235350285, 0.8495367281370818, 1.0994068118479845, 1.283108765275756, 1.399675433824541, 1.5829023106493878, 1.6664416922862983, 1.8495842037191323, 2.0162863701452807]",2017_Feb_06_1253,60.0525128537,famFaceFilter,001,10,
27,./img/edges5_OmarEpps(DrEricForeman)2_2.png,0,24,24,26,,,None,None,1,1.24977545333,None,None,None,None,None,None,1,0.150383076623,omar epps,"['o', 'm', 'a', 'r', 'space', 'e', 'p', 'p', 's', 'return']","[0.40038371818491214, 0.6001587224191098, 0.6667573407512464, 0.8833832896216336, 0.9666820855381957, 1.1001481366474763, 1.183433138982764, 1.3500188619204891, 1.4165918177759522, 1.5999239107559333]",2017_Feb_06_1253,60.0525128537,famFaceFilter,001,10,
53,./img/edges5_KatjaBurkard4_1.png,0,25,25,52,,,None,None,1,2.24933983278,None,None,None,None,None,None,3,0.483443211505,,['return'],[0.8335361738272695],2017_Feb_06_1253,60.0525128537,famFaceFilter,001,10,
30,./img/edges5_MariskaHargitay(Liv)8_8.png,0,26,26,29,,,None,None,2,4.63193271812,None,None,None,None,None,None,1,2.2162496728,,['return'],[0.5002306415103703],2017_Feb_06_1253,60.0525128537,famFaceFilter,001,10,
55,./img/edges5_JoachimLoew1_1.png,0,27,27,54,,,None,None,1,1.46646395448,None,None,None,None,None,None,5,1.36634821671,jogi,"['j', 'o', 'g', 'i', 'return']","[2.1163321776666635, 2.232528664986603, 2.432605524104929, 2.5661238625107217, 2.9325368769791567]",2017_Feb_06_1253,60.0525128537,famFaceFilter,001,10,
24,./img/edges5_JasonSegel(Marshall)7_1.png,0,28,28,23,,,None,None,2,1.89979733059,None,None,None,None,None,None,2,1.04994623711,,['return'],[0.3501866303627139],2017_Feb_06_1253,60.0525128537,famFaceFilter,001,10,
47,./img/edges5_UrsulavonderLeyen5_1.png,0,29,29,46,,,None,None,1,1.58307585315,None,None,None,None,None,None,4,1.61635334921,von der leyen,"['v', 'o', 'n', 'space', 'd', 'e', 'r', 'space', 'l', 'e', 'y', 'e', 'n', 'return']","[0.6335363021394187, 0.7334143412185767, 0.9667828107594687, 1.0330686676552432, 1.1333236243626743, 1.3331185170168283, 1.399831333370912, 1.4664944286760146, 1.5500062231503762, 1.6997496625381245, 1.9162293352901543, 2.21635745520598, 2.2993851912110586, 2.5993606193892447]",2017_Feb_06_1253,60.0525128537,famFaceFilter,001,10,
15,./img/edges5_LisaEdelstein(DrLisaCuddy)6_3.png,0,30,30,14,,,None,None,1,0.983396698266,None,None,None,None,None,None,1,0.266859284941,lisa cuddie,"['l', 'i', 's', 'a', 'space', 'd', 'u', 'backspace', 'backspace', 'c', 'u', 'd', 'd', 'i', 'e', 'return']","[0.45030974609517216, 0.700214153368961, 0.916805457895407, 1.0996464352251678, 1.1665796280990435, 1.3332333566004309, 1.3999275676587786, 2.049569961044199, 2.1996672218315325, 2.3161758290261787, 2.499489958272534, 2.6493905803308735, 2.7992835036466204, 2.882721839280748, 3.049261048979133, 3.248932440963472]",2017_Feb_06_1253,60.0525128537,famFaceFilter,001,10,
57,./img/edges5_BritneySpears5_1.png,0,31,31,56,,,None,None,1,1.94964059701,None,None,None,None,None,None,2,0.350208764249,britney ,"['2', 'backspace', 'b', 'r', 'i', 't', 'n', 'e', 'y', 'space', 'return']","[0.2003806386874203, 0.8166980604296441, 1.5163380158796826, 1.6497687810833668, 1.7331192227347856, 1.8662709085028837, 2.149647846661537, 2.2661134692075393, 2.4660071623970907, 2.582731013616467, 3.0989176208827303]",2017_Feb_06_1253,60.0525128537,famFaceFilter,001,10,
64,./img/edges5_EmilyDeschanel3_1.png,0,32,32,63,,,None,None,1,1.99941104616,None,None,None,None,None,None,1,0.266745728481,,['return'],[0.2336228488429697],2017_Feb_06_1253,60.0525128537,famFaceFilter,001,10,
36,./img/edges5_AngelaMerkel1_1.png,0,33,33,35,,,None,None,1,1.05000686471,None,None,None,None,None,None,4,1.08323207348,merkel,"['m', 'e', 'r', 'k', 'e', 'l', 'return']","[0.2004072635072589, 0.3169909334469594, 0.4668492124187651, 0.5668629418437376, 0.7000900111374904, 0.7664615165499526, 1.0168047521774497]",2017_Feb_06_1253,60.0525128537,famFaceFilter,001,10,
23,./img/edges5_UrsulavonderLeyen1_1.png,0,34,34,22,,,None,None,1,1.34991909904,None,None,None,None,None,None,4,0.350275165908,von der leyen,"['v', 'o', 'n', 'space', 'd', 'e', 'r', 'space', 'l', 'e', 'y', 'e', 'n', 'return']","[0.4169421105843867, 0.5002415480630589, 0.700211266340375, 0.7668130924821526, 0.8000453584277238, 1.0167887131292446, 1.0667371957069918, 1.1333438335632309, 1.2666482110685138, 1.400048822862118, 1.60000635146298, 1.8498520558209748, 1.8774591068431619, 2.1330172785455943]",2017_Feb_06_1253,60.0525128537,famFaceFilter,001,10,
12,./img/edges5_UrsulavonderLeyen4_1.png,0,35,35,11,,,None,None,1,2.23276796758,None,None,None,None,None,None,4,0.350262976232,von der leyen,"['v', 'o', 'n', 'space', 'd', 'e', 'r', 'space', 'l', 'e', 'y', 'e', 'n', 'return']","[0.8667642696204894, 0.9502224936741186, 1.1499410404594528, 1.2332061543752388, 1.2997868089737494, 1.5164615165499526, 1.5427633098438491, 1.633026260412862, 1.7662979182600793, 1.93313032175638, 2.1496914728722913, 2.3825832619063476, 2.4326991921452645, 2.6660538681053367]",2017_Feb_06_1253,60.0525128537,famFaceFilter,001,10,
49,./img/edges5_RobertSeanLeonard(Wilson)2_6.png,0,36,36,48,,,None,None,1,2.08298090198,None,None,None,None,None,None,1,0.450105087843,wilson,"['w', 'i', 's', 'backspace', 'l', 's', 'o', 'n', 'return']","[0.6004041198539198, 0.7500564574493183, 0.9334299311731229, 1.2832896857376, 1.4831551502024922, 1.5995149150317047, 1.682985970323898, 1.8164196225561682, 2.0495141451574455]",2017_Feb_06_1253,60.0525128537,famFaceFilter,001,10,
50,./img/edges5_WillSmith5_1.png,0,37,37,49,,,None,None,1,0.983115373363,None,None,None,None,None,None,1,0.150381472718,will smith,"['w', 'i', 'l', 'l', 's', 'space', 'backspace', 'backspace', 'space', 's', 'm', 'i', 't', 'h', 'return']","[0.6171264313247775, 0.7334948572397479, 0.9503479190298094, 1.083549967408544, 1.2003639580775598, 1.2836335629267523, 1.566796860965951, 1.733261328700337, 1.7833438977195328, 1.8999038298679807, 1.9832478559001174, 2.2161489475820417, 2.283000982873091, 2.383200765254969, 2.7495942120849577]",2017_Feb_06_1253,60.0525128537,famFaceFilter,001,10,
17,./img/edges5_NeilPatrickHarris(Barney)3_7.png,0,38,38,16,,,None,None,2,2.31607991552,None,None,None,None,None,None,1,0.266751823319,,['return'],[0.2837227400341362],2017_Feb_06_1253,60.0525128537,famFaceFilter,001,10,
60,./img/edges5_TomCruise1_1.png,0,39,39,59,,,None,None,1,3.53226286588,None,None,None,None,None,None,1,0.733056670448,cruise,"['c', 'r', 'i', 'backspace', 'u', 'i', 's', 'e', 'return']","[0.6167536838488559, 0.8836043077035356, 1.1833920790199954, 1.5499253863486047, 1.7665718652001487, 1.8497041757982515, 1.9830242715706845, 2.1493572191116073, 2.2328013288033617]",2017_Feb_06_1253,60.0525128537,famFaceFilter,001,10,
41,./img/edges5_OmarEpps(DrEricForeman)3_1.png,0,40,40,40,,,None,None,1,1.09995213948,None,None,None,None,None,None,1,0.116947435549,omar epps,"['o', 'm', 'a', 'r', 'space', 'e', 'p', 'p', 's', 'return']","[0.16699407710029845, 0.6669061831171348, 0.8167307800877097, 1.033252475145673, 1.0832038447520063, 1.2832325867261716, 1.3076565282772208, 1.4666163254410094, 1.5832198838002114, 1.7164302724841036]",2017_Feb_06_1253,60.0525128537,famFaceFilter,001,10,
33,./img/edges5_BarackObama2_1.png,0,41,41,32,,,None,None,1,1.53326594795,None,None,None,None,None,None,4,0.949992172945,obama,"['o', 'b', 'a', 'm', 'a', 'return']","[0.5668648665296132, 0.9000180278899279, 1.0166806099455243, 1.1496048620128931, 1.216416158121774, 1.3998361450853736]",2017_Feb_06_1253,60.0525128537,famFaceFilter,001,10,
67,./img/edges5_LeonardoDiCaprio2_1.png,0,42,42,66,,,None,None,1,1.2996617044,None,None,None,None,None,None,1,0.100285430899,di caprio,"['d', 'i', 'space', 'c', 'a', 'p', 'r', 'o', 'i', 'backspace', 'backspace', 'i', 'o', 'return']","[0.25024924680656113, 0.5995723348237334, 0.6660894747919883, 0.7833227261762659, 1.0000301534105347, 1.216554735497084, 1.4832177024900375, 1.6329688406208334, 1.9161600466031814, 2.2161848750497484, 2.366027114973349, 2.582875044267894, 2.665750730097443, 2.9493089094989955]",2017_Feb_06_1253,60.0525128537,famFaceFilter,001,10,
22,./img/edges5_JasonSegel(Marshall)6_1.png,0,43,43,21,,,None,None,2,1.74958747568,None,None,None,None,None,None,1,0.850039071121,,['return'],[0.6501768144653397],2017_Feb_06_1253,60.0525128537,famFaceFilter,001,10,
66,./img/edges5_BritneySpears1_1.png,0,44,44,65,,,None,None,2,3.7322656246,None,None,None,None,None,None,2,0.982984494732,,['return'],[0.41695301713752997],2017_Feb_06_1253,60.0525128537,famFaceFilter,001,10,
20,./img/edges5_JoshRadnor(Ted)1_2.png,0,45,45,19,,,None,None,2,3.18255965243,None,None,None,None,None,None,1,0.383398366327,,['return'],[0.43347195347905654],2017_Feb_06_1253,60.0525128537,famFaceFilter,001,10,
28,./img/edges5_Ice-T(OdafinFinTutuola)5_1.png,0,46,46,27,,,None,None,1,1.38331945421,None,None,None,None,None,None,1,0.316918116169,,['return'],[0.25029479770228136],2017_Feb_06_1253,60.0525128537,famFaceFilter,001,10,
54,./img/edges5_KatjaBurkard5_3.png,0,47,47,53,,,None,None,1,1.63325529802,None,None,None,None,None,None,3,1.13320397306,die von rtl,"['d', 'i', 'e', 'space', 'v', 'o', 'n', 'space', 'r', 't', 'l', 'lshift', 'return']","[4.865159402475001, 5.031715292783247, 5.131686037559575, 5.231746921785998, 5.381693415522022, 5.407185236890655, 5.581601223073903, 5.664762724739376, 5.6930405287498616, 5.9147922365878, 5.981246503487455, 6.230883379440456, 6.547907674107137]",2017_Feb_06_1253,60.0525128537,famFaceFilter,001,10,
39,./img/edges5_AlysonHannigan(Lily)8_3.png,0,48,48,38,,,None,None,1,1.49992172945,None,None,None,None,None,None,1,0.200208700093,willow,"['w', 'i', 'l', 'l', 'o', 'w', 'return']","[0.23361418775675702, 0.30008577682883697, 0.5335697275154416, 0.6997304156807331, 0.8834009325742045, 1.083255490486863, 1.2332741599384462]",2017_Feb_06_1253,60.0525128537,famFaceFilter,001,10,
72,./img/edges5_EmilyDeschanel6_12.png,0,49,49,71,,,None,None,2,2.58281409589,None,None,None,None,None,None,2,0.566627488618,,['return'],[0.5003467642181931],2017_Feb_06_1253,60.0525128537,famFaceFilter,001,10,
52,./img/edges5_BarackObama4_1.png,0,50,50,51,,,None,None,1,0.916515151127,None,None,None,None,None,None,4,1.09966985224,obama,"['o', 'b', 'a', 'm', 'a', 'return']","[0.16701428630085502, 0.46676901717864894, 0.600098736380005, 0.7002417405319648, 0.8000880222957676, 0.9666208163748706]",2017_Feb_06_1253,60.0525128537,famFaceFilter,001,10,
1,./img/edges5_BastianSchweinsteiger6_2.png,0,51,51,0,,,None,None,1,1.33328019062,None,None,None,None,None,None,5,0.48335788377,schweini,"['s', 'c', 'h', 'w', 'e', 'i', 'n', 'i', 'return']","[0.41688148298317174, 0.650137679187992, 0.7165213742769083, 0.8668162361359464, 1.0167547103474135, 1.1166208805307178, 1.1499420028021632, 1.3331817108660289, 1.6664487494672358]",2017_Feb_06_1253,60.0525128537,famFaceFilter,001,10,
3,./img/edges5_NicoleKidman5_1.png,0,52,52,2,,,None,None,1,1.49968627622,None,None,None,None,None,None,1,0.167009474586,kidman,"['k', 'i', 'd', 'm', 'a', 'n', 'return']","[0.30020574890795615, 0.5333955434539348, 0.7168809697336656, 0.8168279767187414, 0.9499960223160997, 1.0000500418295815, 1.2500256624766735]",2017_Feb_06_1253,60.0525128537,famFaceFilter,001,10,
19,./img/edges5_HughLaurie(DrHouse)2_1.png,0,53,53,18,,,None,None,1,0.799847436575,None,None,None,None,None,None,1,0.150240970658,laurie,"['l', 'a', 'u', 'r', 'i', 'e', 'return']","[0.48369245831145236, 0.6335735127313455, 0.7501337656603937, 0.8668194439455874, 0.9667324481488322, 1.0833267038601662, 1.2665923951817604]",2017_Feb_06_1253,60.0525128537,famFaceFilter,001,10,
21,./img/edges5_JoshRadnor(Ted)3_1.png,0,54,54,20,,,None,None,2,1.9162511484,None,None,None,None,None,None,1,0.866667714551,,['return'],[0.45019201948252885],2017_Feb_06_1253,60.0525128537,famFaceFilter,001,10,
59,./img/edges5_BastianSchweinsteiger3_1.png,0,55,55,58,,,None,None,1,2.63261726469,None,None,None,None,None,None,5,0.800067171533,schweini,"['s', 'c', 'h', 'w', 'e', 'i', 'n', 'i', 'return']","[0.23372646109282869, 0.4336009074249887, 0.516980540143777, 0.6498544296000546, 0.816830222185672, 0.9164506741531113, 0.9832622910430473, 1.083292059516225, 1.3499219860705125]",2017_Feb_06_1253,60.0525128537,famFaceFilter,001,10,
38,./img/edges5_GeorgeClooney11_1.png,0,56,56,37,,,None,None,1,1.06662043144,None,None,None,None,None,None,1,0.133612968789,clooney,"['c', 'l', 'o', 'o', 'n', 'e', 'y', 'return']","[0.2838452783607863, 0.4669351817160532, 0.6501533974551421, 0.800153140830389, 0.9501092579948818, 1.0499183291672125, 1.2666687410501254, 1.4498218382545929]",2017_Feb_06_1253,60.0525128537,famFaceFilter,001,10,
35,./img/edges5_WillSmith1_1.png,0,57,57,34,,,None,None,1,1.38333003998,None,None,None,None,None,None,1,0.166867368621,will smith,"['w', 'i', 'l', 'l', 'space', 's', 'm', 'i', 't', 'h', 'return']","[0.41692029747946435, 0.5335947484309145, 0.7334348712001884, 0.8666693184559335, 0.9667330897109423, 1.0499709372447796, 1.1333579479255604, 1.2999516903873882, 1.3999201896972409, 1.4665922668691564, 1.6831838921766575]",2017_Feb_06_1253,60.0525128537,famFaceFilter,001,10,
16,./img/edges5_BritneySpears7_1.png,0,58,58,15,,,None,None,1,1.78301862583,None,None,None,None,None,None,2,0.202021754082,britney,"['b', 'r', 'u', 't', 'backspace', 'backspace', 'i', 't', 'n', 'e', 'y', 'return']","[0.7002751017516857, 0.8336407484202937, 0.9332297638538876, 1.0667519516314314, 1.300009110179417, 1.4332605588260776, 1.63332619061066, 1.7496102511331628, 1.8498119582009167, 1.983028762504091, 2.1663329475409228, 2.433044673239692]",2017_Feb_06_1253,60.0525128537,famFaceFilter,001,10,
11,./img/edges5_RobertSeanLeonard(Wilson)1_1.png,0,59,59,10,,,None,None,1,1.05006685075,None,None,None,None,None,None,1,0.716760997655,wilson,"['w', 'i', 'l', 's', 'o', 'n', 'return']","[0.6499169818875998, 1.1165493463768144, 1.299865400309045, 1.3998358243043185, 1.4831375072494666, 1.649858920533461, 1.9328958308738038]",2017_Feb_06_1253,60.0525128537,famFaceFilter,001,10,
44,./img/edges5_EmilyDeschanel5_1.png,0,60,60,43,,,None,None,1,5.99796560715,None,None,None,None,None,None,2,0.483553239374,,['return'],[0.167023268167668],2017_Feb_06_1253,60.0525128537,famFaceFilter,001,10,
8,./img/edges5_LeonardoDiCaprio3_1.png,0,61,61,7,,,None,None,1,0.866713586228,None,None,None,None,None,None,1,0.233543295165,di caprio,"['d', 'i', 'space', 'p', 'backspace', 'c', 'a', 'p', 'r', 'i', 'o', 'return']","[0.43366891298865085, 0.566827335157086, 0.7834911361806007, 1.0334616243321761, 1.3499980111578225, 1.5832288656670244, 1.7664547801496155, 1.8497946360289461, 2.032964093062219, 2.1163321776662087, 2.1827578950610587, 2.716137720248298]",2017_Feb_06_1253,60.0525128537,famFaceFilter,001,10,
43,./img/edges5_BarackObama1_3.png,0,62,62,42,,,None,None,1,1.13327550722,None,None,None,None,None,None,4,0.949865464465,obama,"['o', 'b', 'a', 'm', 'a', 'return']","[0.6002899218319726, 0.9833700734457125, 1.1499400781162876, 1.1997766081390182, 1.333310664811961, 1.4664825597806157]",2017_Feb_06_1253,60.0525128537,famFaceFilter,001,10,
13,./img/edges5_MariskaHargitay(Liv)6_5.png,0,63,63,12,,,None,None,1,3.38241388956,None,None,None,None,None,None,5,3.58176867074,katharina witt,"['k', 'a', 't', 'h', 'a', 'r', 'i', 'n', 'space', 'a', 'w', 'i', 'i', 't', 't', 'backspace', 'backspace', 'backspace', 'backspace', 'backspace', 'backspace', 'backspace', 'a', 'space', 'w', 'i', 't', 't', 'return']","[0.8007045633016787, 0.9173164619655836, 1.1505052941693066, 1.4004982369879144, 1.4832719144724251, 1.667045081273045, 1.7336491528817533, 1.8666805457896771, 2.0501345355351077, 2.28318254489659, 2.3167189111927655, 2.499957015351356, 2.6167219265335007, 2.8165190646541305, 3.1997416430144767, 3.3663841441821205, 3.516360791328225, 3.666091720258464, 3.8328702325534323, 3.965981179139817, 4.116047644954506, 4.38253001226667, 4.565929469248658, 4.682512176845194, 4.748987615289025, 4.948967919337974, 5.098669657200844, 5.1487746808870725]",2017_Feb_06_1253,60.0525128537,famFaceFilter,001,10,
56,./img/edges5_NeilPatrickHarris(Barney)1_1.png,0,64,64,55,,,None,None,2,1.6663201163,None,None,None,None,None,None,1,0.0670477116769,,['return'],[0.8333097024692506],2017_Feb_06_1253,60.0525128537,famFaceFilter,001,10,
10,./img/edges5_GuentherJauch4_1.png,0,65,65,9,,,None,None,1,1.14986597771,None,None,None,None,None,None,3,1.03321718924,jauch,"['j', 'a', 'u', 'c', 'h', 'return']","[0.3002737544716183, 0.40025989673404183, 0.5168980994367303, 0.6167969892781002, 0.6667310367129176, 0.9333757191907353]",2017_Feb_06_1253,60.0525128537,famFaceFilter,001,10,
2,./img/edges5_OmarEpps(DrEricForeman)1_5.png,0,66,66,1,,,None,None,1,1.19999249373,None,None,None,None,None,None,1,0.150223648486,omar ebbs,"['o', 'm', 'a', 'space', 'backspace', 'r', 'space', 'e', 'b', 'b', 's', 'return']","[0.18341100509678654, 0.4168596698782494, 0.5335100622573918, 1.4997594142796515, 1.8332121850571639, 2.067597851024402, 2.1662149001472244, 2.299515428281211, 2.7994066835353806, 2.9660562418844165, 3.0658624260281613, 3.2492192191421054]",2017_Feb_06_1253,60.0525128537,famFaceFilter,001,10,
70,./img/edges5_BastianSchweinsteiger1_1.png,0,67,67,69,,,None,None,1,1.24981426782,None,None,None,None,None,None,5,1.79967164861,schweini,"['s', 'c', 'h', 'w', 'e', 'i', 'n', 'i', 'return']","[0.2504057879150423, 0.46684536304701396, 0.5668911705683968, 0.750205941376862, 0.8500608842264228, 0.9667773574833518, 1.0333002715092334, 1.633029468222503, 1.932882037292984]",2017_Feb_06_1253,60.0525128537,famFaceFilter,001,10,
63,./img/edges5_LisaEdelstein(DrLisaCuddy)2_2.png,0,68,68,62,,,None,None,1,1.41657577873,None,None,None,None,None,None,1,0.150407455976,lisa cuddie,"['l', 'i', 's', 'a', 'space', 'c', 'u', 'd', 'd', 'i', 'e', 'return']","[0.16697258477597643, 0.3836200259706857, 0.6001513444571174, 0.7500917433549148, 0.8835032617012075, 1.03307508327498, 1.1166349948935022, 1.250021492324322, 1.3830756606807881, 1.4498324240262264, 1.616156068919281, 1.733047367799827]",2017_Feb_06_1253,60.0525128537,famFaceFilter,001,10,
69,./img/edges5_GuentherJauch2_1.png,0,69,69,68,,,None,None,1,1.00009046023,None,None,None,None,None,None,3,0.500272022255,jauch,"['j', 'a', 'u', 'c', 'h', 'return']","[0.4005174838457606, 0.4834274932381959, 0.5668100129851155, 0.6836108516349668, 0.7502534169589126, 0.9833408823787977]",2017_Feb_06_1253,60.0525128537,famFaceFilter,001,10,
31,./img/edges5_GeorgeClooney4_2.png,0,70,70,30,,,None,None,1,1.2666376253,None,None,None,None,None,None,1,0.133590834903,clooney,"['c', 'l', 'o', 'o', 'n', 'e', 'y', 'return']","[0.2670613769460033, 0.35032584929967925, 0.5335729353255374, 0.6834921626796131, 0.8501651380383919, 0.9333840594958929, 1.133313680153151, 1.2831498252385245]",2017_Feb_06_1253,60.0525128537,famFaceFilter,001,10,
61,./img/edges5_NeilPatrickHarris(Barney)2_2.png,0,71,71,60,,,None,None,2,1.81637920416,None,None,None,None,None,None,1,0.166973547119,,['return'],[0.8835087149773244],2017_Feb_06_1253,60.0525128537,famFaceFilter,001,10,
68,./img/gray_Ice-T(OdafinFinTutuola)7_1.png,0,0,0,67,,,None,None,1,1.16680449555,None,None,None,None,None,None,1,0.716807510894,,['return'],[0.9167919850951876],2017_Feb_06_1253,60.0525128537,famFaceFilter,001,10,
72,./img/gray_WillSmith4_1.png,0,1,1,71,,,None,None,1,1.10001822036,None,None,None,None,None,None,1,0.150263425325,will smithh,"['w', 'i', 'l', 'l', 'l', 'backspace', 'space', 'm', 'i', 'backspace', 'backspace', 's', 'm', 'i', 't', 'h', 'h', 'return']","[0.21699516775561278, 0.33343384470072124, 0.5835634402087635, 0.683510126413239, 0.8999811380795109, 1.249999679218945, 1.43320634684369, 1.5496642706466446, 1.7997733361730752, 2.0830668712819715, 2.232929961968239, 2.349319238645421, 2.4661579294484, 2.6327228016239133, 2.7160774134276835, 2.7993383571906634, 3.182415300995217, 3.715680607379454]",2017_Feb_06_1253,60.0525128537,famFaceFilter,001,10,
20,./img/gray_WillSmith1_1.png,0,2,2,19,,,None,None,1,1.11658238682,None,None,None,None,None,None,1,0.14997793027,will smith,"['w', 'i', 'l', 'l', 'space', 's', 'm', 'i', 't', 'h', 'return']","[0.25032302642739523, 0.3669047716807654, 0.583531362112808, 0.7167526573493888, 0.8001175341437374, 0.8831908210454458, 0.9667696587403043, 1.1167485513533393, 1.25006158994438, 1.5164910283979225]",2017_Feb_06_1253,60.0525128537,famFaceFilter,001,10,
69,./img/gray_OmarEpps(DrEricForeman)3_1.png,0,3,3,68,,,None,None,1,0.883424670365,None,None,None,None,None,None,1,0.216928124535,omar epps,"['o', 'm', 'a', 'r', 'space', 'e', 'p', 'p', 's', 'return']","[0.3170502779244089, 0.5335296298953836, 0.6333181710865574, 0.866759137124518, 0.9168044955526966, 1.100024315196606, 1.14991666110609, 1.2999548981965745, 1.3997896318460334, 1.5499087057382894]",2017_Feb_06_1253,60.0525128537,famFaceFilter,001,10,
50,./img/gray_BastianSchweinsteiger3_1.png,0,4,4,49,,,None,None,1,1.11662344678,None,None,None,None,None,None,5,0.433594171025,schweini,"['s', 'c', 'h', 'w', 'e', 'i', 'n', 'i', 'return']","[0.3668386908029788, 0.5501707837829599, 0.6168005178687963, 0.8002156931174795, 0.9666445541656685, 1.2165419042580652, 1.3164760800050317, 1.4665303561437213, 1.7328266704985253]",2017_Feb_06_1253,60.0525128537,famFaceFilter,001,10,
1,./img/gray_JoachimLoew8_1.png,0,5,5,0,,,None,None,1,1.05005915201,None,None,None,None,None,None,5,0.433179080462,jogi,"['j', 'o', 'g', 'i', 'return']","[0.8001172133631371, 1.0000205299816116, 1.16650809394514, 1.2332459312142419, 1.4831352617829907]",2017_Feb_06_1253,60.0525128537,famFaceFilter,001,10,
38,./img/gray_MariskaHargitay(Liv)4_4.png,0,6,6,37,,,None,None,1,6.03126074616,None,None,None,None,None,None,4,0.999953486761,,['return'],[1.2833073286901708],2017_Feb_06_1253,60.0525128537,famFaceFilter,001,10,
9,./img/gray_RobertSeanLeonard(Wilson)8_1.png,0,7,7,8,,,None,None,1,7.01426288385,None,None,None,None,None,None,1,0.133659161248,wilson,"['w', 'i', 'l', 's', 'o', 'm', 'backspace', 'n', 'return']","[0.23356510827034072, 0.4669313323447568, 0.6500597294152612, 0.7502774755312203, 0.8834070274128862, 1.033329462576603, 1.6331497610826773, 1.9830691809052041, 2.2829717918057213]",2017_Feb_06_1253,60.0525128537,famFaceFilter,001,10,
13,./img/gray_NeilPatrickHarris(Barney)2_2.png,0,8,8,12,,,None,None,2,1.61643803538,None,None,None,None,None,None,1,0.200043818679,,['return'],[0.3668354829933378],2017_Feb_06_1253,60.0525128537,famFaceFilter,001,10,
14,./img/gray_JoshRadnor(Ted)6_2.png,0,9,9,13,,,None,None,2,0.933260558826,None,None,None,None,None,None,2,0.633588268655,,['return'],[0.28348728680930435],2017_Feb_06_1253,60.0525128537,famFaceFilter,001,10,
5,./img/gray_OmarEpps(DrEricForeman)2_2.png,0,10,10,4,,,None,None,1,0.766749577852,None,None,None,None,None,None,1,0.183608285387,omar epps,"['o', 'm', 'a', 'r', 'space', 'e', 'p', 'p', 's', 'return']","[0.5003281589224571, 0.6666915806545148, 0.750212036215089, 0.9334142129059728, 1.0001055369361893, 1.1666729753587788, 1.2332654988526883, 1.3831965951026177, 1.466416158121774, 1.5998719442404763]",2017_Feb_06_1253,60.0525128537,famFaceFilter,001,10,
6,./img/gray_NicoleKidman3_1.png,0,11,11,5,,,None,None,1,0.750126708479,None,None,None,None,None,None,1,0.200013665269,kidman,"['k', 'i', 'd', 'm', 'a', 'n', 'return']","[0.4501204853290801, 0.6501752105609739, 0.8166448107908764, 0.933139303623193, 1.0665928442749646, 1.1333120762483304, 1.3664675472318777]",2017_Feb_06_1253,60.0525128537,famFaceFilter,001,10,
16,./img/gray_JoshRadnor(Ted)1_2.png,0,12,12,15,,,None,None,2,1.13345578612,None,None,None,None,None,None,1,0.200007249649,,['return'],[0.6168313128409864],2017_Feb_06_1253,60.0525128537,famFaceFilter,001,10,
3,./img/gray_KatjaBurkard1_1.png,0,13,13,2,,,None,None,1,1.4833354291,None,None,None,None,None,None,3,0.300274716815,,['return'],[0.4665714161069445],2017_Feb_06_1253,60.0525128537,famFaceFilter,001,10,
58,./img/gray_GeorgeClooney3_1.png,0,14,14,57,,,None,None,1,0.983551956251,None,None,None,None,None,None,1,0.150279785154,clooney,"['o', 'backspace', 'c', 'l', 'o', 'o', 'n', 'e', 'y', 'return']","[0.33384187808269417, 0.6168749390517405, 0.7167866601312198, 1.2666527020019203, 1.432982441733202, 1.666528944707352, 1.932783236756677, 2.049681592818615, 2.2661625486944104, 2.682633111267478]",2017_Feb_06_1253,60.0525128537,famFaceFilter,001,10,
12,./img/gray_BarackObama2_1.png,0,15,15,11,,,None,None,1,1.14999044073,None,None,None,None,None,None,4,0.733270631348,obama,"['o', 'b', 'a', 'm', 'a', 'return']","[0.5002816456835717, 0.7668211120067099, 0.9000424072432907, 0.9834005476373022, 1.0833892561477114, 1.2500285495057142]",2017_Feb_06_1253,60.0525128537,famFaceFilter,001,10,
63,./img/gray_JoshRadnor(Ted)3_1.png,0,16,16,62,,,None,None,2,0.999987810324,None,None,None,None,None,None,1,0.166995360224,,['return'],[0.4170030589675662],2017_Feb_06_1253,60.0525128537,famFaceFilter,001,10,
64,./img/gray_LisaEdelstein(DrLisaCuddy)2_2.png,0,17,17,63,,,None,None,1,1.19982215904,None,None,None,None,None,None,1,0.150274331877,lisa cuddie,"['l', 'i', 's', 'a', 'space', 'c', 'u', 'd', 'i', 'backspace', 'd', 'i', 'e', 'return']","[0.21697078840270478, 0.3835831361602686, 0.5666563589052203, 0.7168848191054167, 0.800147045992162, 0.9501570543584421, 1.0332576076411897, 1.1499856290129173, 1.2997771855448264, 1.7165380548867688, 1.7830988210657779, 1.8496271883677764, 1.982958190692898, 2.132936441743823]",2017_Feb_06_1253,60.0525128537,famFaceFilter,001,10,
2,./img/gray_BastianSchweinsteiger1_1.png,0,18,18,1,,,None,None,1,1.28324830499,None,None,None,None,None,None,5,0.400220119895,schweinsteiger,"['s', 'c', 'h', 'w', 'e', 'n', 'i', 'backspace', 'backspace', 'i', 'n', 'backspace', 'n', 's', 't', 'e', 'i', 'g', 'e', 'r', 'return']","[0.583531362112808, 0.7999318019678867, 0.8667783839823642, 1.049883364042671, 1.1332328433509247, 1.199907807551881, 1.2832329075072266, 2.1329746146780053, 2.299404758849505, 2.6327231224049683, 2.865900085712383, 3.2990878272607915, 3.682405036004184, 3.8655982308287093, 4.049066976498125, 4.165478707842794, 4.26536316254078, 4.365247617238765, 4.58185046988001, 4.648388460610477, 4.981650045935567]",2017_Feb_06_1253,60.0525128537,famFaceFilter,001,10,
40,./img/gray_BritneySpears1_1.png,0,19,19,39,,,None,None,1,1.14995355092,None,None,None,None,None,None,2,0.600220633145,britney,"['v', 'backspace', 'b', 'r', 'i', 't', 'n', 'e', 'y', 'return']","[0.9167303951508075, 1.299582471501708, 1.383107738776289, 1.58318491867567, 1.6998247252831789, 1.8497259889031739, 2.0662034161887277, 2.1997108480422867, 2.3993514450539806, 2.666026922504443]",2017_Feb_06_1253,60.0525128537,famFaceFilter,001,10,
30,./img/gray_BarackObama4_1.png,0,20,20,29,,,None,None,1,0.949967472811,None,None,None,None,None,None,4,0.79990581871,obama,"['o', 'b', 'a', 'm', 'a', 'return']","[0.6332697331617965, 1.0166716280787114, 1.1165496671578694, 1.249941938646316, 1.3500323347207086, 1.5330603273505403]",2017_Feb_06_1253,60.0525128537,famFaceFilter,001,10,
29,./img/gray_UrsulavonderLeyen4_1.png,0,21,21,28,,,None,None,1,1.86616857938,None,None,None,None,None,None,4,0.600339001319,von der leyen,"['v', 'o', 'n', 'space', 'd', 'e', 'r', 'space', 'l', 'e', 'y', 'n', 'e', 'backspace', 'backspace', 'e', 'n', 'return']","[0.48349068708694176, 0.666986699138306, 0.8502033109725744, 0.9334780483172835, 0.9667465625111618, 1.1668474802013407, 1.3166967773063334, 1.3833021320383523, 1.4333494151519517, 1.5499532942922087, 1.7331493761453203, 1.8665804621300595, 1.999736318050509, 2.44932141995605, 2.5662919517340015, 2.7828431586403894, 2.866192637948643, 3.0993567700179483]",2017_Feb_06_1253,60.0525128537,famFaceFilter,001,10,
42,./img/gray_NicoleKidman5_1.png,0,22,22,41,,,None,None,1,1.08313359372,None,None,None,None,None,None,1,0.133720751192,kidman,"['k', 'i', 'd', 'm', 'a', 'n', 'return']","[0.21685883584723342, 0.4169982472526499, 0.5003288004845672, 0.6003434922522501, 0.7334964611441137, 0.8168562054434005, 1.0501367810015836]",2017_Feb_06_1253,60.0525128537,famFaceFilter,001,10,
56,./img/gray_GuentherJauch2_1.png,0,23,23,55,,,None,None,1,1.08270663426,None,None,None,None,None,None,3,0.233563504365,jauch,"['j', 'a', 'u', 'c', 'h', 'return']","[0.6168922612237111, 0.7167568275021949, 0.8168404871767052, 0.9167095443885955, 0.9833617331410096, 1.2333768098465043]",2017_Feb_06_1253,60.0525128537,famFaceFilter,001,10,
44,./img/gray_BritneySpears5_1.png,0,24,24,43,,,None,None,1,1.23333029661,None,None,None,None,None,None,2,0.20027125238,britney,"['b', 'i', 'backspace', 'r', 'i', 't', 'n', 'e', 'y', 'return']","[0.26700716496361565, 0.5335206480285706, 1.0500094309600172, 1.1499452106118042, 1.3831962743215627, 1.7995725272921845, 1.9330642408781387, 2.0995835621570222, 2.2661532460465423, 2.466115586361866]",2017_Feb_06_1253,60.0525128537,famFaceFilter,001,10,
11,./img/gray_EmilyDeschanel6_12.png,0,25,25,10,,,None,None,1,2.88278920328,None,None,None,None,None,None,1,0.250235132444,,['return'],[0.25022294276777757],2017_Feb_06_1253,60.0525128537,famFaceFilter,001,10,
10,./img/gray_HughLaurie(DrHouse)2_1.png,0,26,26,9,,,None,None,1,0.866831633622,None,None,None,None,None,None,1,0.166922542946,hugh laurie,"['h', 'u', 'g', 'h', 'space', 'l', 'a', 'u', 'r', 'i', 'e', 'return']","[0.7000720474038644, 0.8001508953639132, 0.9333946452675264, 1.0166472487258034, 1.0833154765264226, 1.249914030702712, 1.3165280465209435, 1.46641904515036, 1.532908597956066, 1.6330952283192346, 1.7329896272267433, 1.8827080456999283]",2017_Feb_06_1253,60.0525128537,famFaceFilter,001,10,
60,./img/gray_EmilyDeschanel3_1.png,0,27,27,59,,,None,None,1,1.56634616372,None,None,None,None,None,None,1,0.18379979162,,['return'],[0.5002431519678794],2017_Feb_06_1253,60.0525128537,famFaceFilter,001,10,
15,./img/gray_GeorgeClooney11_1.png,0,28,28,14,,,None,None,1,0.8322848073,None,None,None,None,None,None,1,0.333549325847,clooney,"['c', 'l', 'o', 'o', 'n', 'e', 'y', 'return']","[0.8833743077548206, 1.033433395607517, 1.216554093934974, 1.3500467698640932, 1.499984602513905, 1.5664443226901312, 1.766440665787286, 1.9164516364962765]",2017_Feb_06_1253,60.0525128537,famFaceFilter,001,10,
7,./img/gray_OmarEpps(DrEricForeman)1_5.png,0,29,29,6,,,None,None,1,0.933307713628,None,None,None,None,None,None,1,0.133680332791,omar ebbs,"['o', 'm', 'a', 'r', 'space', 'e', 'b', 'b', 's', 'return']","[0.2338769073635376, 0.45028664986648437, 0.5335819171923504, 0.7836797553854922, 0.866928188690963, 1.0669258149118832, 1.1503288646408691, 1.7165062975718683, 1.8332538865820425, 1.9998979916545068]",2017_Feb_06_1253,60.0525128537,famFaceFilter,001,10,
21,./img/gray_HughLaurie(DrHouse)4_1.png,0,30,30,20,,,None,None,1,1.14986854396,None,None,None,None,None,None,1,0.100334189604,hugh laurie,"['h', 'u', 'g', 'h', 'space', 'l', 'a', 'u', 'r', 'i', 'e', 'return']","[0.28367590601374104, 0.3338062713960426, 0.4502388535033788, 0.5336316382413315, 0.616940378367417, 0.783402921416382, 0.8667081329522262, 0.9834098502851703, 1.0666653407720332, 1.1833057889416523, 1.2499258995981108, 1.3998271632185606]",2017_Feb_06_1253,60.0525128537,famFaceFilter,001,10,
57,./img/gray_UrsulavonderLeyen5_1.png,0,31,31,56,,,None,None,1,3.09912901554,None,None,None,None,None,None,4,0.666631915396,von der leyen,"['v', 'o', 'n', 'space', 'd', 'e', 'r', 'space', 'l', 'e', 'y', 'e', 'n', 'return']","[1.050106627591049, 1.1499301339067642, 1.3166284509616162, 1.3997893110649784, 1.4254440891618287, 1.5664622864237572, 1.649711682072848, 1.7664445151585824, 1.832979298079863, 1.9330125951437367, 2.1495285161440734, 2.3659581470665216, 2.416067020124501, 2.699411238625089]",2017_Feb_06_1253,60.0525128537,famFaceFilter,001,10,
23,./img/gray_TomCruise4_1.png,0,32,32,22,,,None,None,1,1.13315810139,None,None,None,None,None,None,1,0.366651033941,cruise,"['c', 'r', 'u', 'i', 's', 'e', 'return']","[0.5501861812695097, 0.8330890051684037, 0.9833428070642185, 1.0666505848475936, 1.1666161971288602, 1.3497901450955396, 1.6497203431586058]",2017_Feb_06_1253,60.0525128537,famFaceFilter,001,10,
22,./img/gray_GuentherJauch4_1.png,0,33,33,21,,,None,None,1,0.983336712226,None,None,None,None,None,None,3,0.216905669868,jauch,"['j', 'a', 'u', 'c', 'h', 'return']","[0.6501540390172522, 0.7002298716365658, 0.8502203123639447, 0.9000452942718766, 1.0333653900443096, 1.316572955855463]",2017_Feb_06_1253,60.0525128537,famFaceFilter,001,10,
59,./img/gray_AlysonHannigan(Lily)5_4.png,0,34,34,58,,,None,None,1,1.04994752023,None,None,None,None,None,None,1,0.200260345828,willow,"['w', 'i', 'l', 'l', 'o', 'w', 'return']","[0.7003479190298094, 0.8500480529878587, 1.099990312414775, 1.2165107885052748, 1.3999233975064271, 1.483230854509202, 1.649816256665872]",2017_Feb_06_1253,60.0525128537,famFaceFilter,001,10,
54,./img/gray_LeonardoDiCaprio3_1.png,0,35,35,53,,,None,None,1,0.91702070192,None,None,None,None,None,None,1,0.13329250861,die caprio,"['d', 'i', 'e', 'space', 'c', 'a', 'p', 'r', 'i', 'o', 'return']","[0.36690156387157913, 0.45020068056919627, 0.5835050580744792, 0.6667801161997886, 0.8166476978194623, 1.000227754482239, 1.083304569973734, 1.250033682000776, 1.5664160939659268, 1.783102991218584, 2.0330301739404604]",2017_Feb_06_1253,60.0525128537,famFaceFilter,001,10,
34,./img/gray_RobertSeanLeonard(Wilson)2_6.png,0,36,36,33,,,None,None,1,0.91687699205,None,None,None,None,None,None,1,0.150051068329,wilson,"['w', 'i', 'l', 's', 'o', 'n', 'return']","[0.25037210591381154, 0.3335891026858917, 0.5335408572291271, 0.6835540734045935, 0.7335025559823407, 0.8832790358092097, 1.1333030943815174]",2017_Feb_06_1253,60.0525128537,famFaceFilter,001,10,
62,./img/gray_LisaEdelstein(DrLisaCuddy)1_1.png,0,37,37,61,,,None,None,1,0.949988965135,None,None,None,None,None,None,1,0.133594363494,lisa cuddie,"['l', 'i', 's', 'a', 'space', 'd', 'backspace', 'c', 'u', 'd', 'd', 'i', 'e', 'return']","[0.11706067122759123, 0.30027247134785284, 0.38364280141877316, 0.5168676252455953, 0.6335417554159903, 0.8834339730133252, 1.216698124585946, 1.2999459163302163, 1.7829759619580727, 2.032949337138234, 2.2161175110477416, 2.282795362277284, 2.449398407386525, 2.5494345914789847]",2017_Feb_06_1253,60.0525128537,famFaceFilter,001,10,
19,./img/gray_JasonSegel(Marshall)9_1.png,0,38,38,18,,,None,None,2,1.33320352397,None,None,None,None,None,None,1,2.03287716142,,['return'],[0.23351763268783543],2017_Feb_06_1253,60.0525128537,famFaceFilter,001,10,
8,./img/gray_BastianSchweinsteiger6_2.png,0,39,39,7,,,None,None,1,1.0667355918,None,None,None,None,None,None,5,0.550129082259,schweinsteiger,"['s', 'c', 'h', 'w', 'e', 'i', 'n', 's', 't', 'e', 'i', 'g', 'e', 'r', 'return']","[0.5835910273713125, 0.8000745494950934, 0.8501150962083557, 1.0165821301907272, 1.166738093893855, 1.2999305188436665, 1.3245777239435483, 1.916391329675207, 2.0996627950539732, 2.2160430898647974, 2.299591453368521, 2.432896472435914, 2.5995380112603925, 2.6659967690939084, 2.7493484938690926]",2017_Feb_06_1253,60.0525128537,famFaceFilter,001,10,
28,./img/gray_GeorgeClooney4_2.png,0,40,40,27,,,None,None,1,0.966411667188,None,None,None,None,None,None,1,0.0836696187066,clooney,"['c', 'l', 'o', 'o', 'n', 'e', 'y', 'return']","[0.24990536961649923, 0.30016404738307756, 0.48356799529847194, 0.61687333514692, 0.7498543654437526, 0.8335024918264935, 1.0331110107422319, 1.1165342696713196]",2017_Feb_06_1253,60.0525128537,famFaceFilter,001,10,
43,./img/gray_LisaEdelstein(DrLisaCuddy)6_3.png,0,41,41,42,,,None,None,1,0.900095336101,None,None,None,None,None,None,1,0.116606445388,lisa cuddie,"['l', 'i', 's', 'a', 'space', 'c', 'u', 'd', 'd', 'i', 'e', 'return']","[0.18378567725858375, 0.3669981189405007, 0.4170640073498362, 0.5668963030634586, 0.6835053146992323, 0.8334729799780689, 0.9667472040732719, 1.1168107828593747, 1.2333277303591785, 1.2999398214919893, 1.4498096485781389, 1.583191655076007]",2017_Feb_06_1253,60.0525128537,famFaceFilter,001,10,
46,./img/gray_GuentherJauch3_1.png,0,42,42,45,,,None,None,1,1.41660913995,None,None,None,None,None,None,3,0.833294625764,jauch,"['j', 'a', 'u', 'c', 'h', 'return']","[0.31700055687588247, 0.4335078809467632, 0.533608862793244, 0.6169368497771757, 0.6834501403741342, 0.9333282436091395]",2017_Feb_06_1253,60.0525128537,famFaceFilter,001,10,
36,./img/gray_TomCruise5_1.png,0,43,43,35,,,None,None,1,0.850276769813,None,None,None,None,None,None,1,0.116917282138,cruise,"['c', 'u', 'backspace', 'r', 'u', 'i', 's', 'e', 'return']","[0.25033232907526326, 0.6334458419091789, 0.933479652222104, 1.050088984638478, 1.1833154123705754, 1.2499682426850995, 1.333222450048197, 1.499960543942052, 1.616560573710558]",2017_Feb_06_1253,60.0525128537,famFaceFilter,001,10,
25,./img/gray_MariskaHargitay(Liv)8_8.png,0,44,44,24,,,None,None,1,3.94914338652,None,None,None,None,None,None,1,0.13377335927,,['return'],[0.3504240082738761],2017_Feb_06_1253,60.0525128537,famFaceFilter,001,10,
4,./img/gray_AngelaMerkel1_1.png,0,45,45,3,,,None,None,1,0.799880477014,None,None,None,None,None,None,4,1.16643078573,merkel,"['m', 'e', 'r', 'k', 'e', 'l', 'return']","[0.38348946811947826, 0.5168589641598373, 0.7000412524316744, 0.7500907810117496, 0.8833727038500001, 0.93317619343361, 1.1498816959820033]",2017_Feb_06_1253,60.0525128537,famFaceFilter,001,10,
53,./img/gray_Ice-T(OdafinFinTutuola)5_1.png,0,46,46,52,,,None,None,1,1.0335363663,None,None,None,None,None,None,1,0.133519300749,,['return'],[0.15049310449285258],2017_Feb_06_1253,60.0525128537,famFaceFilter,001,10,
33,./img/gray_KatjaBurkard4_1.png,0,47,47,32,,,None,None,1,0.916570646232,None,None,None,None,None,None,3,0.283535724734,,['return'],[0.8169075303972022],2017_Feb_06_1253,60.0525128537,famFaceFilter,001,10,
35,./img/gray_JoachimLoew4_1.png,0,48,48,34,,,None,None,1,0.849886700164,None,None,None,None,None,None,5,1.48286773046,jogi,"['j', 'o', 'g', 'i', 'return']","[0.3832594681707633, 0.5668420910815257, 0.7001814337113501, 0.800088984638478, 1.0167223114708577]",2017_Feb_06_1253,60.0525128537,famFaceFilter,001,10,
45,./img/gray_NicoleKidman7_1.png,0,49,49,44,,,None,None,1,0.933066486345,None,None,None,None,None,None,1,0.100301469947,kidman,"['k', 'i', 'd', 'm', 'a', 'n', 'return']","[0.2003151993717438, 0.36694294461540267, 0.4503844880591714, 0.5836673732401323, 0.7166846517857266, 0.7835078167904612, 1.0167572765953992]",2017_Feb_06_1253,60.0525128537,famFaceFilter,001,10,
67,./img/gray_AngelaMerkel4_1.png,0,50,50,66,,,None,None,1,1.34977057746,None,None,None,None,None,None,4,0.550148970678,merkel,"['m', 'e', 'r', 'k', 'l', 'e', 'backspace', 'backspace', 'e', 'l', 'return']","[0.13358666475050995, 0.23374378326479928, 0.4168927103164606, 0.5167300102134504, 0.6001879134864794, 0.7000643486603622, 1.216655460718357, 1.316464852671288, 1.5830700790916126, 1.6069291253711526, 2.0658678793038234]",2017_Feb_06_1253,60.0525128537,famFaceFilter,001,10,
70,./img/gray_WillSmith5_1.png,0,51,51,69,,,None,None,1,0.816607279418,None,None,None,None,None,None,1,0.133586985532,will smith,"['w', 'i', 'l', 'l', 'space', 's', 'm', 'i', 't', 'h', 'return']","[0.30044922165734533, 0.4003275815171037, 0.6000826973317999, 0.7500330404391207, 0.8168469027955325, 0.9498266499690544, 1.0166292849921774, 1.1499808172984558, 1.3166178651899827, 1.3416673296142108, 1.6164473380313211]",2017_Feb_06_1253,60.0525128537,famFaceFilter,001,10,
18,./img/gray_JasonSegel(Marshall)7_1.png,0,52,52,17,,,None,None,2,1.31665635891,None,None,None,None,None,None,1,0.216886102229,,['return'],[0.4670590031669235],2017_Feb_06_1253,60.0525128537,famFaceFilter,001,10,
51,./img/gray_AlysonHannigan(Lily)1_1.png,0,53,53,50,,,None,None,1,0.883359872611,None,None,None,None,None,None,1,0.133720430411,willow,"['w', 'i', 'l', 'l', 'o', 'w', 'return']","[0.25034548109442767, 0.43363555176892987, 0.633559719150071, 0.7835023635143443, 0.9333667373239223, 1.0167633714336262, 1.1832705030360557]",2017_Feb_06_1253,60.0525128537,famFaceFilter,001,10,
52,./img/gray_EmilyDeschanel5_1.png,0,54,54,51,,,None,None,1,1.83322148771,None,None,None,None,None,None,1,0.133634461114,,['return'],[0.13358987256015098],2017_Feb_06_1253,60.0525128537,famFaceFilter,001,10,
26,./img/gray_BarackObama1_3.png,0,55,55,25,,,None,None,1,1.01672327381,None,None,None,None,None,None,4,0.633421462556,obama,"['o', 'b', 'a', 'm', 'a', 'return']","[0.2502672105401871, 0.5835884611237816, 0.716900216591057, 0.8168975861872241, 0.9002101756850607, 1.0501146471151515]",2017_Feb_06_1253,60.0525128537,famFaceFilter,001,10,
66,./img/gray_NeilPatrickHarris(Barney)3_7.png,0,56,56,65,,,None,None,1,1.9329898197,None,None,None,None,None,None,1,0.600228331888,,['return'],[0.4503424657532378],2017_Feb_06_1253,60.0525128537,famFaceFilter,001,10,
39,./img/gray_UrsulavonderLeyen1_1.png,0,57,57,38,,,None,None,1,1.06665411344,None,None,None,None,None,None,4,0.916469921011,v d leyen,"['v', 'space', 'd', 'space', 'l', 'e', 'y', 'e', 'n', 'return']","[1.849819336163364, 2.1830632785354283, 2.316322105144536, 2.5021117010633134, 2.766066314406544, 2.9159855417606195, 3.1326653818323393, 3.349291651483327, 3.3764403065129045, 3.6323657724151417]",2017_Feb_06_1253,60.0525128537,famFaceFilter,001,10,
17,./img/gray_JasonSegel(Marshall)6_1.png,0,58,58,16,,,None,None,2,1.61663178708,None,None,None,None,None,None,1,0.949976133897,,['return'],[0.3502761282506981],2017_Feb_06_1253,60.0525128537,famFaceFilter,001,10,
31,./img/gray_AngelaMerkel3_1.png,0,59,59,30,,,None,None,1,0.966770941864,None,None,None,None,None,None,4,1.19981863044,merkel,"['m', 'e', 'r', 'k', 'e', 'l', 'return']","[0.11684189861261984, 0.2503823709048447, 0.40022364848528014, 0.46700703665101173, 0.6001936875436513, 0.6666688052064274, 0.8999962147845508]",2017_Feb_06_1253,60.0525128537,famFaceFilter,001,10,
41,./img/gray_RobertSeanLeonard(Wilson)1_1.png,0,60,60,40,,,None,None,1,1.15000519665,None,None,None,None,None,None,1,0.11694101993,wilson,"['w', 'i', 'l', 's', 'o', 'n', 'return']","[0.2004553806518743, 0.2835652365824899, 0.46693550249710825, 0.5668254104716652, 0.6668176475723158, 0.8333539702421149, 1.0833805950614988]",2017_Feb_06_1253,60.0525128537,famFaceFilter,001,10,
55,./img/gray_Ice-T(OdafinFinTutuola)6_1.png,0,61,61,54,,,None,None,1,2.13262528421,None,None,None,None,None,None,1,0.183591604778,,['return'],[0.16707555546418007],2017_Feb_06_1253,60.0525128537,famFaceFilter,001,10,
37,./img/gray_TomCruise1_1.png,0,62,62,36,,,None,None,1,1.39984223992,None,None,None,None,None,None,1,0.450032270564,cruise,"['c', 'r', 'u', 'i', 's', 'e', 'return']","[0.4166293491484794, 0.6335398307305695, 0.7335131417544289, 0.783414790311781, 0.9000212356995689, 1.0667025513635053, 1.1665966294904138]",2017_Feb_06_1253,60.0525128537,famFaceFilter,001,10,
47,./img/gray_HughLaurie(DrHouse)5_3.png,0,63,63,46,,,None,None,1,0.79975890103,None,None,None,None,None,None,1,0.166712752198,laurie,"['l', 'a', 'u', 'r', 'i', 'e', 'return']","[0.8000998911911665, 0.9001270934168133, 0.9999855648566154, 1.1165259293666168, 1.2333867540560277, 1.3332269409816035, 1.4663927411120312]",2017_Feb_06_1253,60.0525128537,famFaceFilter,001,10,
61,./img/gray_AlysonHannigan(Lily)8_3.png,0,64,64,60,,,None,None,1,1.54967196939,None,None,None,None,None,None,1,0.11692113151,willow,"['w', 'i', 'l', 'l', 'o', 'w', 'return']","[0.21701954710852078, 0.300389235617331, 0.5169266489424444, 0.6500850711108797, 0.8334819618448819, 1.0001462761179027, 1.2334935741159825]",2017_Feb_06_1253,60.0525128537,famFaceFilter,001,10,
24,./img/gray_JoachimLoew1_1.png,0,65,65,23,,,None,None,1,1.16674226405,None,None,None,None,None,None,5,0.816704476049,jogi,"['j', 'o', 'g', 'i', 'return']","[0.8336308042107703, 1.0001459553368477, 1.1669199766984093, 1.2333338251974055, 1.4674570923384636]",2017_Feb_06_1253,60.0525128537,famFaceFilter,001,10,
49,./img/gray_NeilPatrickHarris(Barney)1_1.png,0,66,66,48,,,None,None,1,6.4145022506,None,None,None,None,None,None,1,0.650116507645,gr bruder malcom mittendrin,"['g', 'r', 'space', 'b', 'r', 'u', 'd', 'e', 'r', 'space', 'm', 'a', 'l', 'c', 'o', 'm', 'space', 'm', 'i', 't', 't', 'e', 'n', 'd', 'r', 'i', 'n', 'return']","[1.0500848144856718, 1.2499297489694072, 1.3499948033481814, 1.5997571046568737, 1.7164155165601187, 1.783084065141793, 1.9162880382064031, 2.066355145583202, 2.1327632200250264, 2.232865805775873, 2.2579807095162323, 2.3826875157183167, 2.549545902472346, 2.849254761672455, 2.899287930423725, 3.065794099683444, 3.165729237773121, 3.2825403414135508, 3.465112504298304, 3.648823118812288, 3.782310983026946, 3.9654480411832083, 4.065438032816928, 4.18221064274212, 4.348582725560391, 4.415370283878474, 4.481926559123622, 4.731973713925072]",2017_Feb_06_1253,60.0525128537,famFaceFilter,001,10,
71,./img/gray_BritneySpears7_1.png,0,67,67,70,,,None,None,1,1.14973028737,None,None,None,None,None,None,2,0.166878595955,britney,"['b', 'r', 'i', 't', 'n', 'e', 'y', 'return']","[0.38347631610031385, 0.616704283580475, 1.249944825674902, 1.4330449940207473, 1.5498599470324734, 1.6831287178511047, 1.849533841108041, 2.0163255054226283]",2017_Feb_06_1253,60.0525128537,famFaceFilter,001,10,
27,./img/gray_LeonardoDiCaprio1_1.png,0,68,68,26,,,None,None,1,1.06656333243,None,None,None,None,None,None,1,0.133698938087,die caprio,"['d', 'i', 'e', 'space', 'c', 'a', 'p', 'r', 'i', 'o', 'return']","[0.2670113351159671, 0.41680706180022753, 0.5003891073051818, 0.6002568813933067, 0.8665342696713196, 1.0333637861390343, 1.0833151557453675, 1.2667245569373335, 1.3332362436294716, 1.3832492031801848, 2.1495872190598675]",2017_Feb_06_1253,60.0525128537,famFaceFilter,001,10,
65,./img/gray_KatjaBurkard5_3.png,0,69,69,64,,,None,None,1,1.99963591361,None,None,None,None,None,None,3,0.93328525896,,['return'],[0.3170749780583719],2017_Feb_06_1253,60.0525128537,famFaceFilter,001,10,
48,./img/gray_LeonardoDiCaprio2_1.png,0,70,70,47,,,None,None,1,0.933008745772,None,None,None,None,None,None,1,0.133548491816,dicaprio,"['d', 'i', 'e', 'c', 'backspace', 'backspace', 'c', 'p', 'a', 'backspace', 'backspace', 'a', 'p', 'r', 'o', 'e', 'backspace', 'backspace', 'i', 'o', 'return']","[0.40019445741836535, 0.5668125792331011, 0.6833869465244788, 1.016781335167252, 1.2833769381586535, 1.4165167550313527, 1.4830990135346838, 1.6163899182392925, 1.7163779851875915, 2.4328278253105964, 2.5825943609274873, 2.682581144752021, 2.8156154246885308, 3.1658196980042703, 3.2825550973379904, 3.58226491888081, 3.832228670632503, 3.9821706734346662, 4.482144369395883, 4.507339147595303, 4.798458134235261]",2017_Feb_06_1253,60.0525128537,famFaceFilter,001,10,
32,./img/gray_MariskaHargitay(Liv)6_5.png,0,71,71,31,,,None,None,1,6.64779950677,None,None,None,None,None,None,1,0.716496674143,regina mills,"['r', 'e', 'g', 'i', 'n', 'a', 'space', 'm', 'i', 'l', 'l', 's', 'return']","[0.5335424611344024, 0.7334560427434553, 0.9000042343086534, 0.9667099934817998, 1.1499660613744709, 1.2831414849338216, 1.5164903868362671, 1.6497617239024294, 1.883016957764994, 2.082774319046166, 2.2162435779650878, 2.282909881080286, 2.466305167909468]",2017_Feb_06_1253,60.0525128537,famFaceFilter,001,10,
