num,pic,trials.thisRepN,trials.thisTrialN,trials.thisN,trials.thisIndex,key_resp_2.keys,key_resp_2.rt,ratingBekannt.response,ratingBekannt.rt,key_resp_5.keys,ratingK1.response,ratingK1.rt,ratingK2.response,ratingK2.rt,ratingK3.response,ratingK3.rt,key_resp_6.keys,inputText,key_resp_4.keys,key_resp_4.rt,date,frameRate,expName,session,participant,
,,,,,,space,12.0937855362,,,,,,,,,,,,,,2017_Feb_07_1055,60.02936555,famFaceFilter,001,11,
10,./img/smoo15_KatjaBurkard5_3.png,0,0,0,9,,,2.nein,11.413,None,act,2.882,None,None,None,None,None,,['return'],[0.766635305273212],2017_Feb_07_1055,60.02936555,famFaceFilter,001,11,
41,./img/smoo15_AngelaMerkel3_1.png,0,1,1,40,,,1.ja,1.637,None,None,None,None,None,polit,1.441,None,Frau Merkel,"['lshift', 'f', 'r', 'a', 'u', 'space', 'lshift', 'm', 'e', 'r', 'k', 'e', 'l', 'return']","[1.1498113344332523, 1.2830843187366554, 1.4496492453217797, 1.6494698662772862, 1.899286942636536, 3.1657241675093246, 3.8318388822044653, 3.9988496901769395, 4.215299120651707, 4.465227506968404, 4.681765792942315, 4.781757420637405, 4.898426295325862, 5.114852950564]",2017_Feb_07_1055,60.02936555,famFaceFilter,001,11,
36,./img/smoo15_BastianSchweinsteiger6_2.png,0,2,2,35,,,1.ja,1.834,None,None,None,None,None,sport,1.108,None,Fußballspieler,"['lshift', 'f', 'u', u'\xdf', 'b', 'a', 'l', 'l', 's', 'p', 'i', 'e', 'l', 'e', 'r', 'return']","[0.916711923092862, 1.133262398629995, 1.3497458315705444, 1.7001184633068078, 2.11595674758064, 2.2494411245706942, 2.4494939887813416, 2.582603055538584, 2.8658698969438774, 3.0490726148314025, 3.2158919183516446, 3.365571733814704, 3.5990034711385306, 3.732227376411629, 3.9987768735759346, 4.232038919350543]",2017_Feb_07_1055,60.02936555,famFaceFilter,001,11,
25,./img/smoo15_JasonSegel(Marshall)6_1.png,0,3,3,24,,,2.nein,1.623,None,None,None,None,None,sport,1.424,None,,['return'],[0.6834344799754035],2017_Feb_07_1055,60.02936555,famFaceFilter,001,11,
60,./img/smoo15_LeonardoDiCaprio2_1.png,0,4,4,59,,,1.ja,1.116,None,act,1.491,None,None,None,None,None,Titanic,"['lshift', 't', 'i', 't', 'a', 'n', 'i', 'c', 'return']","[0.8832810839471676, 1.1332242260509702, 1.333194329543403, 1.5164679393637925, 1.6997883827689293, 2.132847953484543, 2.282659287917795, 2.9491839568668183, 3.149146040910182]",2017_Feb_07_1055,60.02936555,famFaceFilter,001,11,
67,./img/smoo15_GeorgeClooney4_2.png,0,5,5,66,,,2.nein,1.59,None,None,None,None,None,polit,0.708,None,,['return'],[1.1832777799340874],2017_Feb_07_1055,60.02936555,famFaceFilter,001,11,
31,./img/smoo15_BritneySpears1_1.png,0,6,6,30,,,1.ja,3.855,None,None,None,music,2.024,None,None,None,Brithny Spears,"['lshift', 'b', 'r', 'i', 't', 'h', 'n', 'y', 'space', 'lshift', 's', 'p', 'e', 'a', 'r', 'c', 'backspace', 's', 'return']","[1.0999505681138544, 1.2999312572796953, 1.749783234282404, 1.9163536140931683, 2.1496185468690783, 2.3328369828777795, 2.6827711111204735, 2.966017743513021, 3.2990407776169377, 4.198781300312021, 4.615293539114646, 4.881975517583214, 5.364945254426402, 5.814806213212705, 6.0980069743545755, 6.847756206171653, 7.864150206211889, 8.047300637289482, 8.213801408279323]",2017_Feb_07_1055,60.02936555,famFaceFilter,001,11,
70,./img/smoo15_JasonSegel(Marshall)7_1.png,0,7,7,69,,,2.nein,1.66,None,None,None,None,None,sport,0.725,None,,['return'],[0.6001178538285785],2017_Feb_07_1055,60.02936555,famFaceFilter,001,11,
62,./img/smoo15_RobertSeanLeonard(Wilson)1_1.png,0,8,8,61,,,2.nein,1.733,None,None,None,None,None,sport,1.324,None,,['return'],[0.5001493221479905],2017_Feb_07_1055,60.02936555,famFaceFilter,001,11,
51,./img/smoo15_LeonardoDiCaprio1_1.png,0,9,9,50,,,1.ja,1.334,None,act,0.974,None,None,None,None,None,Titanic,"['lshift', 't', 'i', 't', 'a', 'n', 'i', 'c', 'return']","[0.8667071274621776, 1.1499467027392711, 1.5162838128057956, 1.7830325130935307, 1.9661762078335414, 2.299438863085925, 2.4994343080388717, 3.0325486997107873, 3.299073817748649]",2017_Feb_07_1055,60.02936555,famFaceFilter,001,11,
49,./img/smoo15_TomCruise5_1.png,0,10,10,48,,,1.ja,3.747,None,dummy,3.174,None,None,None,None,None,Vergessen,"['lshift', 'v', 'e', 'r', 'g', 'e', 's', 's', 'e', 'n', 'return']","[2.865962281000975, 2.982437405791643, 3.8154336549346226, 4.032388631499998, 4.198494845579262, 4.348724474493338, 4.648533836142178, 4.8152270739178675, 5.0316572577139596, 5.18147821548655, 5.398185230676063]",2017_Feb_07_1055,60.02936555,famFaceFilter,001,11,
66,./img/smoo15_NicoleKidman3_1.png,0,11,11,65,,,2.nein,1.878,None,dummy,0.492,None,None,None,None,None,,['return'],[0.6169455456929427],2017_Feb_07_1055,60.02936555,famFaceFilter,001,11,
9,./img/smoo15_EmilyDeschanel6_12.png,0,12,12,8,,,2.nein,1.283,None,None,None,music,0.924,None,None,None,,['return'],[0.40063116274632193],2017_Feb_07_1055,60.02936555,famFaceFilter,001,11,
13,./img/smoo15_GeorgeClooney3_1.png,0,13,13,12,,,2.nein,1.682,None,None,None,None,None,polit,0.775,None,,['return'],[0.6669185843038576],2017_Feb_07_1055,60.02936555,famFaceFilter,001,11,
55,./img/smoo15_MariskaHargitay(Liv)4_4.png,0,14,14,54,,,2.nein,1.391,None,None,None,host,0.608,None,None,None,,['return'],[0.4834037494451877],2017_Feb_07_1055,60.02936555,famFaceFilter,001,11,
40,./img/smoo15_NeilPatrickHarris(Barney)2_2.png,0,15,15,39,,,2.nein,1.333,None,None,None,None,None,polit,0.625,None,,['return'],[0.6168002332697142],2017_Feb_07_1055,60.02936555,famFaceFilter,001,11,
37,./img/smoo15_Ice-T(OdafinFinTutuola)5_1.png,0,16,16,36,,,2.nein,1.549,None,None,None,music,1.041,None,None,None,,['return'],[0.6001826509800594],2017_Feb_07_1055,60.02936555,famFaceFilter,001,11,
42,./img/smoo15_OmarEpps(DrEricForeman)1_5.png,0,17,17,41,,,2.nein,1.213,None,None,None,music,0.508,None,None,None,,['return'],[0.5834823079717353],2017_Feb_07_1055,60.02936555,famFaceFilter,001,11,
69,./img/smoo15_BritneySpears5_1.png,0,18,18,68,,,1.ja,1.933,None,None,None,music,1.324,None,None,None,Brithni spears,"['lshift', 'b', 'r', 'i', 't', 'h', 'n', 'i', 'space', 's', 'p', 'e', 'a', 'r', 's', 'return']","[1.1164135354192695, 1.2665219102582341, 1.8495528836174344, 1.9828303588124072, 2.249523885288454, 2.4160766223103565, 2.6158885822605953, 2.7824438855063818, 2.9825355638522524, 3.348922394504825, 3.515521965111475, 3.698929980903813, 3.965196551893314, 4.265267668370598, 4.531934891052515, 4.698526121431769]",2017_Feb_07_1055,60.02936555,famFaceFilter,001,11,
30,./img/smoo15_KatjaBurkard4_1.png,0,19,19,29,,,2.nein,1.224,None,None,None,None,None,polit,0.714,None,,['return'],[0.6336439640331264],2017_Feb_07_1055,60.02936555,famFaceFilter,001,11,
12,./img/smoo15_MariskaHargitay(Liv)8_8.png,0,20,20,11,,,2.nein,1.255,None,dummy,0.658,None,None,None,None,None,,['return'],[0.5501720813454085],2017_Feb_07_1055,60.02936555,famFaceFilter,001,11,
44,./img/smoo15_GuentherJauch2_1.png,0,21,21,43,,,2.nein,1.017,None,None,None,None,None,polit,0.741,None,,['return'],[0.533466605889771],2017_Feb_07_1055,60.02936555,famFaceFilter,001,11,
14,./img/smoo15_BritneySpears7_1.png,0,22,22,13,,,2.nein,1.592,None,None,None,music,1.007,None,None,None,,['return'],[0.4169869902075334],2017_Feb_07_1055,60.02936555,famFaceFilter,001,11,
46,./img/smoo15_NeilPatrickHarris(Barney)1_1.png,0,23,23,45,,,2.nein,1.018,None,None,None,None,None,sport,0.658,None,,['return'],[0.3834656916728818],2017_Feb_07_1055,60.02936555,famFaceFilter,001,11,
20,./img/smoo15_NicoleKidman5_1.png,0,24,24,19,,,2.nein,1.004,None,dummy,0.408,None,None,None,None,None,,['return'],[0.468313711879091],2017_Feb_07_1055,60.02936555,famFaceFilter,001,11,
56,./img/smoo15_MariskaHargitay(Liv)6_5.png,0,25,25,55,,,2.nein,1.245,None,None,None,host,1.024,None,None,None,,['return'],[0.6169022406661497],2017_Feb_07_1055,60.02936555,famFaceFilter,001,11,
5,./img/smoo15_BarackObama1_3.png,0,26,26,4,,,2.nein,8.138,None,None,None,None,None,polit,1.531,None,,['return'],[0.7169560992883817],2017_Feb_07_1055,60.02936555,famFaceFilter,001,11,
8,./img/smoo15_AngelaMerkel4_1.png,0,27,27,7,,,1.ja,7.132,None,None,None,None,None,polit,1.133,None,Frau Merkel,"['lshift', 'f', 'r', 'a', 'u', 'space', 'lshift', 'm', 'e', 'r', 'k', 'e', 'l', 'return']","[1.0330224887816257, 1.1498167876588923, 1.3499421476917632, 1.516422709669314, 1.84967221302486, 2.0497247564571808, 2.3493839940128964, 2.532833390164342, 2.732564834842833, 2.9492230917799134, 3.0989978575239547, 3.2158405938753276, 3.3658023731795765, 3.548970767823903]",2017_Feb_07_1055,60.02936555,famFaceFilter,001,11,
59,./img/smoo15_JoshRadnor(Ted)1_2.png,0,28,28,58,,,2.nein,1.393,None,act,0.824,None,None,None,None,None,,"['num_decimal', 'return']","[0.40026900441080215, 1.0333374927540717]",2017_Feb_07_1055,60.02936555,famFaceFilter,001,11,
38,./img/smoo15_AlysonHannigan(Lily)5_4.png,0,29,29,37,,,2.nein,1.688,None,None,None,host,0.591,None,None,None,,['return'],[0.6832763364332095],2017_Feb_07_1055,60.02936555,famFaceFilter,001,11,
11,./img/smoo15_LeonardoDiCaprio3_1.png,0,30,30,10,,,1.ja,1.451,None,act,1.091,None,None,None,None,None,Titanic,"['lshift', 't', 'i', 't', 'a', 'n', 'i', 'c', 'return']","[0.8831271105182168, 1.049898618120551, 1.24984434248654, 1.4498279186545915, 1.6330906220237011, 1.999434147649481, 2.1661985981359066, 2.699270647114645, 3.3490798964912756]",2017_Feb_07_1055,60.02936555,famFaceFilter,001,11,
17,./img/smoo15_GeorgeClooney11_1.png,0,31,31,16,,,1.ja,4.773,None,act,2.1,None,None,None,None,None,vergessen,"['v', 'e', 'r', 'g', 'e', 's', 's', 'e', 'n', 'return']","[2.1837627962340775, 2.349554968674056, 2.5995276223516157, 2.766142269523243, 2.9326488145165968, 3.2325216902045213, 3.399148206161499, 3.6157156829312953, 3.7490361423751892, 4.0157020819451645]",2017_Feb_07_1055,60.02936555,famFaceFilter,001,11,
57,./img/smoo15_UrsulavonderLeyen5_1.png,0,32,32,56,,,2.nein,1.259,None,None,None,host,1.441,None,None,None,,['return'],[0.4170081615543495],2017_Feb_07_1055,60.02936555,famFaceFilter,001,11,
47,./img/smoo15_BarackObama4_1.png,0,33,33,46,,,1.ja,1.191,None,None,None,None,None,polit,1.591,None,Herr Obama,"['lshift', 'o', 'backspace', 'lshift', 'h', 'e', 'r', 'r', 'space', 'lshift', 'o', 'b', 'a', 'm', 'a', 'return']","[0.6833940619503664, 1.0333644381043996, 1.6497069212018687, 1.9162451911370226, 2.100190189262321, 2.3994256791111184, 2.66590075578506, 2.816034151306667, 3.0490536889305986, 3.299090498203441, 3.498901816597936, 3.798633870754202, 3.9322061409093294, 4.049234607709423, 4.215478435540263, 4.398618280944447]",2017_Feb_07_1055,60.02936555,famFaceFilter,001,11,
26,./img/smoo15_TomCruise4_1.png,0,34,34,25,,,1.ja,2.799,None,None,None,music,8.755,None,None,None,vergessen,"['v', 'e', 'r', 'g', 'e', 's', 's', 'e', 'n', 'return']","[3.232603167810794, 3.4158822308568233, 3.6324862763162855, 3.7991933075450106, 3.932303657414195, 4.215582046826512, 4.365524579452085, 4.582212027185506, 4.698729173891024, 4.948595008502252]",2017_Feb_07_1055,60.02936555,famFaceFilter,001,11,
2,./img/smoo15_WillSmith5_1.png,0,35,35,1,,,1.ja,1.455,None,act,1.291,None,None,None,None,None,vergessen,"['v', 'e', 'r', 'g', 'e', 's', 's', 'e', 'n', 'return']","[0.9498418724965632, 1.1832857993836114, 1.3998513514857223, 1.5496533833575086, 1.6993777869593032, 1.9661935298440767, 2.099489289383655, 2.332733692369402, 2.4667422205725416, 2.7156854977238254]",2017_Feb_07_1055,60.02936555,famFaceFilter,001,11,
61,./img/smoo15_OmarEpps(DrEricForeman)3_1.png,0,36,36,60,,,2.nein,1.249,None,None,None,music,0.958,None,None,None,,['return'],[0.5336064650878143],2017_Feb_07_1055,60.02936555,famFaceFilter,001,11,
23,./img/smoo15_JoachimLoew4_1.png,0,37,37,22,,,1.ja,1.198,None,None,None,None,None,sport,1.141,None,Fußballtrainer,"['lshift', 'f', 'u', u'\xdf', 'b', 'a', 'l', 'l', 't', 'r', 'a', 'i', 'n', 'e', 'r', 'return']","[0.7334681456241015, 0.9333862830844737, 1.1665690966988222, 1.5164486926851168, 1.9829836906851597, 2.1661620294466957, 2.533539422490321, 2.6492822111608803, 2.9489969433066108, 3.1325082496073264, 3.2823904759734432, 3.4324164108729747, 3.6489412241721766, 3.815376556454794, 4.0655342990248755, 4.2484832815330265]",2017_Feb_07_1055,60.02936555,famFaceFilter,001,11,
3,./img/smoo15_JoshRadnor(Ted)3_1.png,0,38,38,2,,,2.nein,1.113,None,None,None,None,None,sport,0.591,None,,['return'],[0.43350352743527765],2017_Feb_07_1055,60.02936555,famFaceFilter,001,11,
53,./img/smoo15_GuentherJauch4_1.png,0,39,39,52,,,1.ja,5.784,None,None,None,host,0.984,None,None,None,weiss ich nicht,"['w', 'e', 'i', 's', 's', 'space', 'i', 'c', 'h', 'space', 'n', 'i', 'c', 'h', 't', 'return']","[5.36487853260769, 5.5814450470438715, 5.747988481504763, 6.264484007774627, 6.447772052603796, 6.547614197761959, 6.747641078956349, 6.880674762889157, 6.964225877737135, 7.11417867525779, 7.263733708087784, 7.414035191268795, 7.597434546055865, 7.680339293281577, 7.880543243918964, 8.130578128523666]",2017_Feb_07_1055,60.02936555,famFaceFilter,001,11,
71,./img/smoo15_AngelaMerkel1_1.png,0,40,40,70,,,1.ja,1.333,None,None,None,None,None,polit,0.741,None,Merkel,"['lshift', 'm', 'e', 'r', 'k', 'e', 'l', 'return']","[0.8833234266403451, 1.049955075044636, 1.266725604273688, 1.4831994138748996, 1.6330694506773398, 1.7330652484861275, 1.8329035443080102, 2.065916024816943]",2017_Feb_07_1055,60.02936555,famFaceFilter,001,11,
63,./img/smoo15_RobertSeanLeonard(Wilson)8_1.png,0,41,41,62,,,2.nein,1.391,None,None,None,music,1.657,None,None,None,,['return'],[0.41700463299639523],2017_Feb_07_1055,60.02936555,famFaceFilter,001,11,
34,./img/smoo15_EmilyDeschanel5_1.png,0,42,42,33,,,2.nein,1.445,None,dummy,0.675,None,None,None,None,None,,['return'],[0.3835596796197933],2017_Feb_07_1055,60.02936555,famFaceFilter,001,11,
48,./img/smoo15_JoshRadnor(Ted)6_2.png,0,43,43,47,,,2.nein,0.881,None,None,None,None,None,sport,0.708,None,,['return'],[0.46679097882497445],2017_Feb_07_1055,60.02936555,famFaceFilter,001,11,
50,./img/smoo15_OmarEpps(DrEricForeman)2_2.png,0,44,44,49,,,2.nein,1.183,None,None,None,music,0.558,None,None,None,,['return'],[0.9500420379540628],2017_Feb_07_1055,60.02936555,famFaceFilter,001,11,
32,./img/smoo15_TomCruise1_1.png,0,45,45,31,,,2.nein,0.995,None,dummy,1.658,None,None,None,None,None,,['return'],[0.4169921226553015],2017_Feb_07_1055,60.02936555,famFaceFilter,001,11,
39,./img/smoo15_BarackObama2_1.png,0,46,46,38,,,1.ja,1.272,None,None,None,None,None,polit,0.841,None,Herr Obama,"['lshift', 'h', 'e', 'r', 'r', 'space', 'lshift', 'o', 'b', 'a', 'm', 'a', 'return']","[0.8833308045336707, 1.03345553905001, 1.2999168222709159, 1.5827810873156523, 1.7328031728793576, 1.9329564405961719, 2.182681453676196, 2.349409014695084, 2.849210292738917, 2.9659195854524114, 3.0490116670157477, 3.199203764906997, 3.3490529511414024]",2017_Feb_07_1055,60.02936555,famFaceFilter,001,11,
33,./img/smoo15_Ice-T(OdafinFinTutuola)7_1.png,0,47,47,32,,,2.nein,1.3,None,None,None,music,0.725,None,None,None,,['return'],[0.6501200832353788],2017_Feb_07_1055,60.02936555,famFaceFilter,001,11,
24,./img/smoo15_BastianSchweinsteiger1_1.png,0,48,48,23,,,1.ja,1.242,None,None,None,None,None,sport,2.19,None,Fußballspieler,"['lshift', 'f', 'u', u'\xdf', 'b', 'a', 'l', 'l', 's', 'p', 'i', 'e', 'l', 'e', 'r', 'return']","[0.7836682950423892, 1.000255339269188, 1.2668754075884863, 1.6168130643886798, 1.999978507875312, 2.1664677308581304, 2.582996650115547, 3.4492530845204783, 4.0491646781101736, 4.24894616415304, 4.482261459071196, 4.648765117062794, 5.098732574137102, 5.281973143826235, 5.5152146598097715, 5.698433416596345]",2017_Feb_07_1055,60.02936555,famFaceFilter,001,11,
52,./img/smoo15_BastianSchweinsteiger3_1.png,0,49,49,51,,,1.ja,1.485,None,None,None,None,None,sport,1.091,None,Fußballspieler,"['lshift', 'f', 'u', u'\xdf', 'b', 'a', 'l', 'l', 's', 'p', 'i', 'e', 'l', 'e', 'r', 'return']","[0.6830703969726528, 0.9500564729628422, 1.21659634678781, 1.9995948574160138, 2.366121868044047, 2.5659909264741145, 2.732627065769975, 3.632157478890349, 4.048728740840488, 4.265549311433915, 4.448606716898212, 4.631811680231749, 4.748643510132297, 4.898401916199418, 5.114916785381411, 5.281727107118513]",2017_Feb_07_1055,60.02936555,famFaceFilter,001,11,
1,./img/smoo15_Ice-T(OdafinFinTutuola)6_1.png,0,50,50,0,,,2.nein,1.282,None,None,None,music,0.558,None,None,None,,['return'],[0.9167462463365155],2017_Feb_07_1055,60.02936555,famFaceFilter,001,11,
18,./img/smoo15_HughLaurie(DrHouse)4_1.png,0,51,51,17,,,2.nein,1.068,None,act,2.657,None,None,None,None,None,,['return'],[0.5335621977269511],2017_Feb_07_1055,60.02936555,famFaceFilter,001,11,
45,./img/smoo15_RobertSeanLeonard(Wilson)2_6.png,0,52,52,44,,,2.nein,1.2,None,act,0.409,None,None,None,None,None,,['return'],[0.6002734311473432],2017_Feb_07_1055,60.02936555,famFaceFilter,001,11,
29,./img/smoo15_GuentherJauch3_1.png,0,53,53,28,,,1.ja,7.694,None,None,None,host,1.318,None,None,None,vergessen,"['v', 'e', 'r', 'g', 'e', 's', 's', 'e', 'n', 'return']","[2.333037148335279, 2.5327894435818052, 2.766153496752395, 2.932367171453734, 3.08269239220499, 3.3658764728920687, 3.5158036081747923, 3.748980968563501, 3.8990200553598697, 4.13203574364843]",2017_Feb_07_1055,60.02936555,famFaceFilter,001,11,
4,./img/smoo15_UrsulavonderLeyen1_1.png,0,54,54,3,,,2.nein,1.552,None,None,None,None,None,polit,0.808,None,,['return'],[0.4502567988088231],2017_Feb_07_1055,60.02936555,famFaceFilter,001,11,
35,./img/smoo15_KatjaBurkard1_1.png,0,55,55,34,,,2.nein,1.087,None,dummy,0.542,None,None,None,None,None,,"['num_decimal', 'return']","[0.46828195485932156, 0.9168264408303912]",2017_Feb_07_1055,60.02936555,famFaceFilter,001,11,
72,./img/smoo15_HughLaurie(DrHouse)2_1.png,0,56,56,71,,,2.nein,1.081,None,None,None,music,2.473,None,None,None,,['return'],[0.7500802746885711],2017_Feb_07_1055,60.02936555,famFaceFilter,001,11,
7,./img/smoo15_LisaEdelstein(DrLisaCuddy)2_2.png,0,57,57,6,,,2.nein,1.108,None,None,None,host,1.59,None,None,None,,['return'],[0.6002509766885851],2017_Feb_07_1055,60.02936555,famFaceFilter,001,11,
15,./img/smoo15_LisaEdelstein(DrLisaCuddy)1_1.png,0,58,58,14,,,2.nein,1.118,None,dummy,0.508,None,None,None,None,None,,['return'],[0.43353656756653436],2017_Feb_07_1055,60.02936555,famFaceFilter,001,11,
54,./img/smoo15_LisaEdelstein(DrLisaCuddy)6_3.png,0,59,59,53,,,2.nein,0.905,None,None,None,host,0.741,None,None,None,,['return'],[0.4668878537740966],2017_Feb_07_1055,60.02936555,famFaceFilter,001,11,
16,./img/smoo15_WillSmith4_1.png,0,60,60,15,,,1.ja,1.058,None,act,1.391,None,None,None,None,None,vergessen,"['v', 'e', 'r', 'g', 'e', 's', 's', 'e', 'n', 'return']","[0.9832342182849061, 1.1164988623609133, 1.3664028695516208, 1.46630243396703, 1.6163030274065022, 1.9827341254199382, 2.14948606556527, 2.3827978319259273, 2.4828812021219164, 2.6825199419649834]",2017_Feb_07_1055,60.02936555,famFaceFilter,001,11,
58,./img/smoo15_EmilyDeschanel3_1.png,0,61,61,57,,,2.nein,1.132,None,act,0.908,None,None,None,None,None,,['return'],[0.4503636178751549],2017_Feb_07_1055,60.02936555,famFaceFilter,001,11,
43,./img/smoo15_JoachimLoew1_1.png,0,62,62,42,,,1.ja,1.078,None,None,None,None,None,sport,2.29,None,Fußballspieler,"['lshift', 'f', 'u', u'\xdf', 'b', 'a', 'l', 'l', 's', 'p', 'i', 'e', 'l', 'e', 'r', 'return']","[0.9334173985484995, 1.0830545505405098, 1.2998998210382524, 1.5830479745918637, 1.89944508617873, 2.0493901850281873, 2.2510199937705693, 2.3660403904382292, 2.6493473290906877, 2.7658115474300757, 2.9326950065456003, 3.098906756578799, 3.233848427915291, 3.3657010073393394, 3.5988401951485685, 3.7322360374168966]",2017_Feb_07_1055,60.02936555,famFaceFilter,001,11,
27,./img/smoo15_JasonSegel(Marshall)9_1.png,0,63,63,26,,,2.nein,2.099,None,None,None,None,None,polit,0.658,None,,['return'],[0.6834691239969288],2017_Feb_07_1055,60.02936555,famFaceFilter,001,11,
21,./img/smoo15_NeilPatrickHarris(Barney)3_7.png,0,64,64,20,,,2.nein,1.035,None,None,None,music,0.541,None,None,None,,['return'],[0.4334669587456119],2017_Feb_07_1055,60.02936555,famFaceFilter,001,11,
6,./img/smoo15_AlysonHannigan(Lily)1_1.png,0,65,65,5,,,2.nein,1.128,None,None,None,host,0.608,None,None,None,,['return'],[0.7000770829477005],2017_Feb_07_1055,60.02936555,famFaceFilter,001,11,
65,./img/smoo15_UrsulavonderLeyen4_1.png,0,66,66,64,,,2.nein,0.853,None,dummy,0.891,None,None,None,None,None,,['return'],[0.3838753251484377],2017_Feb_07_1055,60.02936555,famFaceFilter,001,11,
68,./img/smoo15_AlysonHannigan(Lily)8_3.png,0,67,67,67,,,2.nein,0.758,None,None,None,host,0.724,None,None,None,,['return'],[0.683498314793269],2017_Feb_07_1055,60.02936555,famFaceFilter,001,11,
64,./img/smoo15_JoachimLoew8_1.png,0,68,68,63,,,1.ja,1.137,None,None,None,None,None,sport,1.107,None,Fußballspieler,"['lshift', 'f', 'u', '0', 'backspace', u'\xdf', 'b', 'a', 'l', 'l', 's', 'p', 'i', 'e', 'l', 'e', 'r', 'return']","[0.966606371099715, 1.1001080701003048, 1.283290258197212, 1.566446751978674, 1.9997356789472178, 2.182855636116983, 2.5826890240359717, 2.7660104297751786, 2.8992324103801366, 3.065795733075447, 3.2655342348689373, 3.465797208654294, 3.6322530707270744, 3.8152729451685445, 3.932075584272752, 4.064969729786299, 4.265396941895233, 4.415329530403142]",2017_Feb_07_1055,60.02936555,famFaceFilter,001,11,
19,./img/smoo15_NicoleKidman7_1.png,0,69,69,18,,,1.ja,1.819,None,None,None,music,2.123,None,None,None,Nicol kidman,"['lshift', 'n', 'i', 'c', 'o', 'l', 'space', 'k', 'i', 'd', 'm', 'a', 'n', 'return']","[0.8335518365984171, 0.9500500574035868, 1.1500005934394721, 1.4334162758254934, 1.5999998075335498, 1.766482614956658, 2.0995730124359397, 2.332926479933576, 2.516056701998423, 2.8491361930264247, 2.96598117482381, 3.1327045657294548, 3.215938751936392, 3.399276196574192]",2017_Feb_07_1055,60.02936555,famFaceFilter,001,11,
28,./img/smoo15_HughLaurie(DrHouse)5_3.png,0,70,70,27,,,2.nein,1.696,None,None,None,None,None,sport,1.141,None,,['return'],[0.7167472728256143],2017_Feb_07_1055,60.02936555,famFaceFilter,001,11,
22,./img/smoo15_WillSmith1_1.png,0,71,71,21,,,1.ja,1.471,None,act,1.091,None,None,None,None,None,Vergessen,"['lshift', 'v', 'e', 'r', 'g', 'e', 's', 's', 'e', 'n', 'return']","[0.7166750977808078, 0.9168091188194012, 1.1499264937265252, 1.3665510689761504, 1.6496912030806925, 1.8329818141337455, 2.1496586441162435, 2.299523869249242, 2.5327053997516487, 2.632781712832184, 2.8659443174337866]",2017_Feb_07_1055,60.02936555,famFaceFilter,001,11,
13,./img/edges5_MariskaHargitay(Liv)6_5.png,0,0,0,12,,,2.nein,3.327,None,None,None,host,0.705,None,None,None,,['return'],[0.48353558919416173],2017_Feb_07_1055,60.02936555,famFaceFilter,001,11,
23,./img/edges5_UrsulavonderLeyen1_1.png,0,1,1,22,,,2.nein,1.039,None,dummy,5.388,None,None,None,None,None,,['return'],[0.5503507546782203],2017_Feb_07_1055,60.02936555,famFaceFilter,001,11,
28,./img/edges5_Ice-T(OdafinFinTutuola)5_1.png,0,2,2,27,,,2.nein,1.189,None,None,None,music,2.172,None,None,None,,['return'],[0.4502959337219181],2017_Feb_07_1055,60.02936555,famFaceFilter,001,11,
32,./img/edges5_Ice-T(OdafinFinTutuola)7_1.png,0,3,3,31,,,2.nein,1.184,None,None,None,music,0.824,None,None,None,,['return'],[0.5501355126561975],2017_Feb_07_1055,60.02936555,famFaceFilter,001,11,
31,./img/edges5_GeorgeClooney4_2.png,0,4,4,30,,,2.nein,3.06,None,dummy,1.623,None,None,None,None,None,,['return'],[0.5835329908923086],2017_Feb_07_1055,60.02936555,famFaceFilter,001,11,
15,./img/edges5_LisaEdelstein(DrLisaCuddy)6_3.png,0,5,5,14,,,2.nein,1.356,None,None,None,host,0.939,None,None,None,,['return'],[0.48325105912863364],2017_Feb_07_1055,60.02936555,famFaceFilter,001,11,
1,./img/edges5_BastianSchweinsteiger6_2.png,0,6,6,0,,,1.ja,1.73,None,None,None,None,None,sport,1.173,None,Fußballspieler,"['lshift', 'f', 'u', u'\xdf', 'b', 'a', 'l', 'l', 's', 'p', 'i', 'e', 'l', 'e', 'r', 'return']","[0.8999134220243832, 1.0334006860157388, 1.2499213292012428, 1.5498028658948897, 1.8828672803579138, 2.0828877459925934, 2.399335540499578, 2.5826027347607123, 2.949308739499884, 3.2490934012444086, 3.4154873531679186, 3.582210102517365, 3.6656393217344885, 3.7822186993671494, 4.015741537636586, 4.165422636211133]",2017_Feb_07_1055,60.02936555,famFaceFilter,001,11,
62,./img/edges5_AlysonHannigan(Lily)5_4.png,0,7,7,61,,,2.nein,1.329,None,None,None,host,0.656,None,None,None,,['return'],[0.5669205410499671],2017_Feb_07_1055,60.02936555,famFaceFilter,001,11,
7,./img/edges5_AngelaMerkel3_1.png,0,8,8,6,,,1.ja,3.402,None,None,None,None,None,polit,1.373,None,Frau Merkel,"['lshift', 'f', 'r', 'a', 'u', 'space', 'lshift', 'm', 'e', 'r', 'k', 'e', 'l', 'return']","[1.1171612688822279, 1.3669382479943124, 1.5504235712792251, 1.7166712484454365, 1.9000847174638693, 2.1332197351594004, 4.932032279246414, 5.115571814008945, 5.348790554756761, 5.581893494654651, 5.715455179136825, 5.848588304242639, 5.981978693285328, 6.19830526579517]",2017_Feb_07_1055,60.02936555,famFaceFilter,001,11,
26,./img/edges5_NicoleKidman7_1.png,0,9,9,25,,,2.nein,2.307,None,act,0.84,None,None,None,None,None,,"['num_decimal', 'return']","[0.7500372904401047, 1.0168177477476092]",2017_Feb_07_1055,60.02936555,famFaceFilter,001,11,
68,./img/edges5_MariskaHargitay(Liv)4_4.png,0,10,10,67,,,2.nein,1.013,None,dummy,0.624,None,None,None,None,None,,['return'],[0.36696358945391694],2017_Feb_07_1055,60.02936555,famFaceFilter,001,11,
59,./img/edges5_BastianSchweinsteiger3_1.png,0,11,11,58,,,1.ja,1.163,None,None,None,None,None,sport,1.057,None,Fußballspieler,"['lshift', 'f', 'u', u'\xdf', 'b', 'a', 'l', 'l', 's', 'p', 'i', 'e', 'l', 'e', 'r', 'return']","[0.8842562489953707, 1.0334148002466463, 1.216562665100355, 1.51657122987217, 1.8996061167226799, 2.0329381241735973, 2.216158805627856, 2.382821248717846, 2.5492915457998606, 2.732600441197974, 2.932479764523123, 3.099044691108247, 3.182432850744135, 3.3157590841915408, 3.548939652359877, 3.6819932245275595]",2017_Feb_07_1055,60.02936555,famFaceFilter,001,11,
71,./img/edges5_HughLaurie(DrHouse)4_1.png,0,12,12,70,,,2.nein,1.248,None,None,None,None,None,sport,0.856,None,,['return'],[0.5998731002327986],2017_Feb_07_1055,60.02936555,famFaceFilter,001,11,
21,./img/edges5_JoshRadnor(Ted)3_1.png,0,13,13,20,,,2.nein,1.149,None,None,None,music,0.523,None,None,None,,['return'],[0.4501278460620597],2017_Feb_07_1055,60.02936555,famFaceFilter,001,11,
48,./img/edges5_GeorgeClooney3_1.png,0,14,14,47,,,1.ja,2.717,None,act,2.573,None,None,None,None,None,vergessen,"['v', 'e', 'r', 'g', 'e', 's', 's', 'e', 'n', 'return']","[4.815300211296744, 4.981940841484175, 5.215135844661745, 5.331646896585426, 5.498514958358555, 5.748261784340684, 5.931520638373968, 6.1313287489883805, 6.231410836072882, 6.481065277997459]",2017_Feb_07_1055,60.02936555,famFaceFilter,001,11,
10,./img/edges5_GuentherJauch4_1.png,0,15,15,9,,,1.ja,2.709,None,None,None,host,0.773,None,None,None,,['return'],[5.664721896721858],2017_Feb_07_1055,60.02936555,famFaceFilter,001,11,
44,./img/edges5_EmilyDeschanel5_1.png,0,16,16,43,,,2.nein,1.72,None,dummy,0.406,None,None,None,None,None,,['return'],[0.4502064366670311],2017_Feb_07_1055,60.02936555,famFaceFilter,001,11,
5,./img/edges5_AlysonHannigan(Lily)1_1.png,0,17,17,4,,,2.nein,1.006,None,None,None,host,2.328,None,None,None,,['return'],[0.5169269726484345],2017_Feb_07_1055,60.02936555,famFaceFilter,001,11,
2,./img/edges5_OmarEpps(DrEricForeman)1_5.png,0,18,18,1,,,2.nein,1.239,None,None,None,music,0.672,None,None,None,,['return'],[0.5834887235314454],2017_Feb_07_1055,60.02936555,famFaceFilter,001,11,
27,./img/edges5_OmarEpps(DrEricForeman)2_2.png,0,19,19,26,,,2.nein,1.655,None,None,None,music,0.573,None,None,None,,['return'],[0.6668903558424972],2017_Feb_07_1055,60.02936555,famFaceFilter,001,11,
55,./img/edges5_JoachimLoew1_1.png,0,20,20,54,,,1.ja,1.338,None,None,None,None,None,sport,1.489,None,Fußballtrainer,"['lshift', 'f', 'u', u'\xdf', 'b', 'a', 'l', 'l', 't', 'r', 'a', 'i', 'n', 'e', 'r', 'return']","[0.9830234671539984, 1.0848008658435901, 1.2665623282832712, 1.5332305132992587, 1.9329731210509635, 2.149323110352725, 2.3160320662495906, 2.482777911613084, 2.8160780978892035, 2.9991201060106505, 3.2658354453888023, 3.349076688711193, 3.598989677685495, 3.7655459432648968, 4.015895511065082, 4.165228565535017]",2017_Feb_07_1055,60.02936555,famFaceFilter,001,11,
56,./img/edges5_NeilPatrickHarris(Barney)1_1.png,0,21,21,55,,,2.nein,1.125,None,None,None,host,0.906,None,None,None,,['return'],[0.6002195404471422],2017_Feb_07_1055,60.02936555,famFaceFilter,001,11,
35,./img/edges5_WillSmith1_1.png,0,22,22,34,,,1.ja,1.167,None,act,1.174,None,None,None,None,None,vergessen,"['v', 'e', 'r', 'g', 'e', 's', 's', 'e', 'n', 'return']","[0.7501226173812938, 0.8667587727159116, 1.0998825631827458, 1.2166171973562996, 1.3498016469379763, 1.633050524776536, 1.799611922803706, 2.0160767506213233, 2.132816838020517, 2.366189872974701]",2017_Feb_07_1055,60.02936555,famFaceFilter,001,11,
54,./img/edges5_KatjaBurkard5_3.png,0,23,23,53,,,2.nein,1.222,None,dummy,0.424,None,None,None,None,None,,['return'],[0.46698087938739263],2017_Feb_07_1055,60.02936555,famFaceFilter,001,11,
66,./img/edges5_BritneySpears1_1.png,0,24,24,65,,,2.nein,1.456,None,None,None,host,1.239,None,None,None,,['return'],[0.516585985659276],2017_Feb_07_1055,60.02936555,famFaceFilter,001,11,
72,./img/edges5_EmilyDeschanel6_12.png,0,25,25,71,,,2.nein,1.272,None,dummy,0.639,None,None,None,None,None,,['return'],[0.5833065216411342],2017_Feb_07_1055,60.02936555,famFaceFilter,001,11,
51,./img/edges5_Ice-T(OdafinFinTutuola)6_1.png,0,26,26,50,,,2.nein,1.156,None,None,None,music,0.872,None,None,None,,['return'],[0.5168624962748254],2017_Feb_07_1055,60.02936555,famFaceFilter,001,11,
67,./img/edges5_LeonardoDiCaprio2_1.png,0,27,27,66,,,1.ja,1.11,None,act,0.89,None,None,None,None,None,Titanic,"['lshift', 't', 'i', 't', 'a', 'n', 'i', 'c', 'return']","[0.8167097097248188, 0.966559216737096, 1.1998867012184746, 1.366536633967371, 1.5331467902474287, 1.866417785727208, 2.0330151108878454, 2.7326969953687694, 2.915931470276064]",2017_Feb_07_1055,60.02936555,famFaceFilter,001,11,
11,./img/edges5_RobertSeanLeonard(Wilson)1_1.png,0,28,28,10,,,2.nein,1.539,None,None,None,music,0.706,None,None,None,,['return'],[0.5333681270512898],2017_Feb_07_1055,60.02936555,famFaceFilter,001,11,
37,./img/edges5_JasonSegel(Marshall)9_1.png,0,29,29,36,,,2.nein,1.263,None,dummy,0.574,None,None,None,None,None,,['return'],[0.5834094913711851],2017_Feb_07_1055,60.02936555,famFaceFilter,001,11,
64,./img/edges5_EmilyDeschanel3_1.png,0,30,30,63,,,2.nein,1.489,None,None,None,host,0.556,None,None,None,,['return'],[0.9001071719221727],2017_Feb_07_1055,60.02936555,famFaceFilter,001,11,
14,./img/edges5_AngelaMerkel4_1.png,0,31,31,13,,,1.ja,1.612,None,None,None,None,None,polit,0.907,None,Frau Merkel,"['lshift', 'f', 'r', 'a', 'u', 'space', 'lshift', 'm', 'e', 'r', 'k', 'e', 'l', 'return']","[0.9331556437196014, 1.0498488975340479, 1.233054181645457, 1.382969768921157, 1.5497050286116973, 1.7329359749610376, 2.349261777603715, 2.5325905612362476, 2.7826424470740676, 3.0158977565106397, 3.1492008939439984, 3.282459764016494, 3.3823814621123347, 3.6155334810405293]",2017_Feb_07_1055,60.02936555,famFaceFilter,001,11,
49,./img/edges5_RobertSeanLeonard(Wilson)2_6.png,0,32,32,48,,,2.nein,1.25,None,None,None,None,None,sport,0.889,None,,['return'],[1.0333702121079114],2017_Feb_07_1055,60.02936555,famFaceFilter,001,11,
70,./img/edges5_BastianSchweinsteiger1_1.png,0,33,33,69,,,1.ja,1.564,None,None,None,None,None,sport,1.039,None,Fußballspieler,"['lshift', 'f', 'u', u'\xdf', 'b', 'a', 'l', 'l', 's', 'p', 'i', 'e', 'l', 'e', 'r', 'return']","[0.8167453160804143, 0.9500170172718754, 1.166586739487684, 1.433218355814006, 1.8333250465689162, 2.0162419512798806, 2.1828492205577277, 2.3327936778509866, 2.532756082672222, 2.6826617258307124, 2.8492715613324435, 3.0158669618253953, 3.1324100915471718, 3.2504952010012857, 3.465706749264882, 3.632328774329835]",2017_Feb_07_1055,60.02936555,famFaceFilter,001,11,
58,./img/edges5_HughLaurie(DrHouse)5_3.png,0,34,34,57,,,2.nein,1.126,None,None,None,None,None,sport,2.156,None,,['return'],[0.9500093186002232],2017_Feb_07_1055,60.02936555,famFaceFilter,001,11,
4,./img/edges5_LeonardoDiCaprio1_1.png,0,35,35,3,,,1.ja,1.289,None,act,0.823,None,None,None,None,None,Titanic,"['lshift', 't', 'i', 't', 'a', 'n', 'i', 'k', 'backspace', 'c', 'return']","[0.883315727968693, 1.033338455088142, 1.2665231933701762, 1.4330730433907775, 1.549863492932218, 1.9662493452119634, 2.1501500759763985, 2.8658859358424706, 3.6155001201314008, 3.765654686999369, 3.8820816950933477]",2017_Feb_07_1055,60.02936555,famFaceFilter,001,11,
36,./img/edges5_AngelaMerkel1_1.png,0,36,36,35,,,1.ja,1.2,None,None,None,None,None,polit,0.924,None,Frau Merkel,"['lshift', 'f', 'r', 'a', 'u', 'space', 'lshift', 'm', 'e', 'r', 'k', 'e', 'l', 'return']","[0.8000417652924625, 1.0333743822216093, 1.216567797548123, 1.3499110322281922, 1.4830727065736937, 1.6494124470195857, 1.8496731753589302, 1.9828518509370952, 2.2160875929175745, 2.449392302162778, 2.5661192376646795, 2.6992870067920194, 2.7992879370481205, 2.9992211510734705]",2017_Feb_07_1055,60.02936555,famFaceFilter,001,11,
30,./img/edges5_MariskaHargitay(Liv)8_8.png,0,37,37,29,,,2.nein,1.514,None,None,None,host,0.672,None,None,None,,['return'],[0.5168358717028241],2017_Feb_07_1055,60.02936555,famFaceFilter,001,11,
20,./img/edges5_JoshRadnor(Ted)1_2.png,0,38,38,19,,,2.nein,1.28,None,None,None,music,1.29,None,None,None,,['return'],[0.5002243841945528],2017_Feb_07_1055,60.02936555,famFaceFilter,001,11,
38,./img/edges5_GeorgeClooney11_1.png,0,39,39,37,,,1.ja,2.81,None,dummy,1.84,None,None,None,None,None,berad pit,"['v', 'e', 'r', 'g', 'e', 's', 's', 'e', 'n', 'backspace', 'backspace', 'backspace', 'backspace', 'backspace', 'backspace', 'backspace', 'backspace', 'backspace', 'b', 'e', 'r', 'a', 'd', 'space', 'p', 'i', 't', 'return']","[1.366605280454678, 1.566503208902759, 1.7832182435417963, 1.8997453343645248, 2.049568537583127, 2.3328097167500346, 2.4827589857131898, 2.7161037922055584, 2.815955560702605, 8.81358404912271, 9.030164998568125, 9.213110452518322, 9.380090145027225, 9.546730775214655, 9.696566809552223, 9.863276086226506, 10.046423951080214, 10.263005542081373, 11.579201525877124, 11.745633008823916, 12.162110924382887, 12.462085486689375, 12.728691440777766, 12.895013859212668, 13.211825095167114, 13.34502494209164, 13.628211268224732, 13.778253883579055]",2017_Feb_07_1055,60.02936555,famFaceFilter,001,11,
53,./img/edges5_KatjaBurkard4_1.png,0,40,40,52,,,2.nein,3.94,None,None,None,host,0.856,None,None,None,,['return'],[0.4669744638276825],2017_Feb_07_1055,60.02936555,famFaceFilter,001,11,
8,./img/edges5_LeonardoDiCaprio3_1.png,0,41,41,7,,,1.ja,1.173,None,act,0.89,None,None,None,None,None,Titanic,"['lshift', 't', 'i', 't', 'a', 'n', 'i', 'c', 'return']","[0.8831951154497801, 1.0666804387346929, 1.2330772776599588, 1.3998510307078504, 1.5332641949867138, 1.9163000441712938, 2.066271446814426, 2.482729474138978, 2.6826094390203252]",2017_Feb_07_1055,60.02936555,famFaceFilter,001,11,
22,./img/edges5_JasonSegel(Marshall)6_1.png,0,42,42,21,,,2.nein,1.248,None,None,None,None,None,polit,1.873,None,,['return'],[0.6000854552530654],2017_Feb_07_1055,60.02936555,famFaceFilter,001,11,
41,./img/edges5_OmarEpps(DrEricForeman)3_1.png,0,43,43,40,,,2.nein,5.337,None,None,None,music,0.799,None,None,None,,['return'],[0.5682700539969119],2017_Feb_07_1055,60.02936555,famFaceFilter,001,11,
40,./img/edges5_NicoleKidman3_1.png,0,44,44,39,,,1.ja,1.539,None,None,None,music,2.422,None,None,None,Nicol kidman,"['lshift', 'n', 'i', 'c', 'o', 'l', 'space', 'k', 'i', 'd', 'a', 'backspace', 'm', 'a', 'n', 'return']","[0.9999910182168605, 1.133236415614192, 1.2832864088618408, 1.5830925627305987, 1.7664948045198798, 1.9662791775640471, 2.232888980987809, 2.4493185232281576, 2.632608171947595, 2.8491503072573323, 3.18249379855979, 3.6654789327462822, 4.1654312972168555, 4.34864492155566, 4.465238413419684, 4.731891201092367]",2017_Feb_07_1055,60.02936555,famFaceFilter,001,11,
19,./img/edges5_HughLaurie(DrHouse)2_1.png,0,45,45,18,,,2.nein,1.303,None,None,None,None,None,sport,0.73,None,,['return'],[0.6501835972749177],2017_Feb_07_1055,60.02936555,famFaceFilter,001,11,
61,./img/edges5_NeilPatrickHarris(Barney)2_2.png,0,46,46,60,,,2.nein,1.877,None,None,None,None,None,sport,0.707,None,,['return'],[0.6001627627451853],2017_Feb_07_1055,60.02936555,famFaceFilter,001,11,
43,./img/edges5_BarackObama1_3.png,0,47,47,42,,,1.ja,1.198,None,None,None,None,None,polit,1.189,None,Herr Obama,"['lshift', 'h', 'e', 'r', 'r', 'space', 'lshift', 'o', 'b', 'a', 'm', 'a', 'return']","[0.8165249416101688, 0.9500006575945008, 1.1998498117513918, 1.4664438970544325, 1.5830069150106283, 1.7995849774538328, 2.082757510133888, 2.2160798942459223, 2.5492591472243475, 2.682635742814, 2.7661592707559066, 2.9325387876706372, 3.115820416940551]",2017_Feb_07_1055,60.02936555,famFaceFilter,001,11,
65,./img/edges5_LisaEdelstein(DrLisaCuddy)1_1.png,0,48,48,64,,,2.nein,1.182,None,None,None,host,0.423,None,None,None,,['return'],[0.5169061220799449],2017_Feb_07_1055,60.02936555,famFaceFilter,001,11,
18,./img/edges5_JoshRadnor(Ted)6_2.png,0,49,49,17,,,2.nein,0.998,None,None,None,None,None,sport,0.657,None,,['return'],[0.5500251650323662],2017_Feb_07_1055,60.02936555,famFaceFilter,001,11,
47,./img/edges5_UrsulavonderLeyen5_1.png,0,50,50,46,,,2.nein,1.507,None,None,None,host,0.94,None,None,None,,['return'],[0.5170004308047282],2017_Feb_07_1055,60.02936555,famFaceFilter,001,11,
34,./img/edges5_KatjaBurkard1_1.png,0,51,51,33,,,2.nein,1.039,None,dummy,0.473,None,None,None,None,None,,['return'],[0.499959421586027],2017_Feb_07_1055,60.02936555,famFaceFilter,001,11,
33,./img/edges5_BarackObama2_1.png,0,52,52,32,,,1.ja,1.073,None,None,None,None,None,polit,0.855,None,Herr Obama,"['lshift', 'h', 'e', 'r', 'r', 'space', 'lshift', 'o', 'b', 'a', 'm', 'a', 'return']","[0.9333647909602405, 1.116701914820169, 1.333119909053039, 1.5997463929320475, 1.749659093205537, 1.9330340688666183, 2.166197635802291, 2.266076349649211, 2.516049324105097, 2.6661002796863613, 2.749259083069319, 2.882471119557067, 3.0324813363354224]",2017_Feb_07_1055,60.02936555,famFaceFilter,001,11,
60,./img/edges5_TomCruise1_1.png,0,53,53,59,,,2.nein,1.334,None,act,3.639,None,None,None,None,None,,['return'],[0.38357860552014245],2017_Feb_07_1055,60.02936555,famFaceFilter,001,11,
45,./img/edges5_WillSmith4_1.png,0,54,54,44,,,1.ja,1.422,None,act,0.873,None,None,None,None,None,vergessen,"['v', 'e', 'r', 'g', 'e', 's', 's', 'e', 'n', 'return']","[0.7831386906036641, 0.9333975103136254, 1.1499531182985265, 1.2498186802486089, 1.4164763116691574, 1.6829157819875036, 1.8497771074230513, 2.0494841729750988, 2.1661947488000806, 2.3992794043538197]",2017_Feb_07_1055,60.02936555,famFaceFilter,001,11,
6,./img/edges5_GuentherJauch3_1.png,0,55,55,5,,,1.ja,1.539,None,None,None,host,0.606,None,None,None,weiss ich nicht,"['w', 'e', 'i', 's', 's', 'space', 'i', 'c', 'h', 'space', 'n', 'i', 'c', 'h', 't', 'return']","[3.7656354403206933, 3.948825968645451, 4.11559555157919, 4.265285952715203, 4.465414841306483, 4.599946237611221, 4.798622964302922, 4.96453607004014, 5.0484769301292545, 5.181600111117405, 5.3482670450989644, 5.498213106282492, 5.648134146783377, 5.714806886846418, 5.948021778258408, 6.147962690954955]",2017_Feb_07_1055,60.02936555,famFaceFilter,001,11,
29,./img/edges5_TomCruise4_1.png,0,56,56,28,,,2.nein,1.667,None,None,None,music,0.489,None,None,None,,['return'],[0.7835274735111852],2017_Feb_07_1055,60.02936555,famFaceFilter,001,11,
12,./img/edges5_UrsulavonderLeyen4_1.png,0,57,57,11,,,2.nein,1.162,None,None,None,host,0.807,None,None,None,,['return'],[0.40032289511100316],2017_Feb_07_1055,60.02936555,famFaceFilter,001,11,
50,./img/edges5_WillSmith5_1.png,0,58,58,49,,,1.ja,1.116,None,act,1.09,None,None,None,None,None,vegessen,"['v', 'e', 'g', 'e', 's', 's', 'e', 'n', 'return']","[1.0333195291877928, 1.2164670732631748, 1.4331320665382918, 1.9661582442668077, 2.2327821619214774, 2.365962120612039, 2.599309814105709, 2.71590747608343, 2.9659314542373068]",2017_Feb_07_1055,60.02936555,famFaceFilter,001,11,
57,./img/edges5_BritneySpears5_1.png,0,59,59,56,,,2.nein,3.666,None,None,None,music,1.188,None,None,None,,['return'],[0.6501072521164133],2017_Feb_07_1055,60.02936555,famFaceFilter,001,11,
52,./img/edges5_BarackObama4_1.png,0,60,60,51,,,1.ja,1.157,None,None,None,None,None,polit,0.707,None,Herr Obama,"['lshift', 'h', 'e', 'r', 'r', 'space', 'lshift', 'o', 'b', 'a', 'm', 'a', 'return']","[0.750045309889174, 0.9501260817837647, 1.1497330646070623, 1.4163935509513976, 1.5498820980546952, 1.7664386683736666, 1.9829099117505393, 2.082908917338955, 2.3160442558128125, 2.432726603175979, 2.5327259295422664, 2.6492940799462303, 2.7993825665507757]",2017_Feb_07_1055,60.02936555,famFaceFilter,001,11,
9,./img/edges5_RobertSeanLeonard(Wilson)8_1.png,0,61,61,8,,,2.nein,1.228,None,None,None,music,1.54,None,None,None,,['return'],[0.5334723798932828],2017_Feb_07_1055,60.02936555,famFaceFilter,001,11,
25,./img/edges5_JoachimLoew8_1.png,0,62,62,24,,,1.ja,1.139,None,None,None,None,None,sport,1.356,None,Fußballtrainer,"['lshift', 'f', 'u', u'\xdf', 'b', 'a', 'l', 'l', 't', 'r', 'a', 'i', 'n', 'e', 'r', 'return']","[0.9165797625664709, 1.05009589657584, 1.3165985601558532, 1.749808896520335, 2.116292922899902, 2.2825954531003845, 2.4327368680710606, 2.5993970657154932, 2.965952625583668, 3.13246975625043, 3.282564979192557, 3.4490923747544002, 3.732345101928786, 3.915276120870203, 4.165444769891565, 4.315154417706253]",2017_Feb_07_1055,60.02936555,famFaceFilter,001,11,
24,./img/edges5_JasonSegel(Marshall)7_1.png,0,63,63,23,,,2.nein,1.383,None,act,2.139,None,None,None,None,None,,['return'],[0.7168508841123185],2017_Feb_07_1055,60.02936555,famFaceFilter,001,11,
42,./img/edges5_JoachimLoew4_1.png,0,64,64,41,,,1.ja,1.021,None,None,None,None,None,sport,0.939,None,Fußballtrainer,"['lshift', 'f', 'u', u'\xdf', 'b', 'a', 'l', 'l', 't', 'r', 'a', 'i', 'n', 'e', 'r', 'return']","[0.9166541830568349, 1.0834080478703072, 1.2498639099435422, 1.5332696482123538, 1.7998460907269873, 1.9662948956843138, 2.1161851414999546, 2.282863623488538, 2.6826334973684425, 2.849259050990895, 2.9992362276379936, 3.315740158290737, 3.599009886697786, 3.7823303301029227, 4.015513464495143, 4.148621248140444]",2017_Feb_07_1055,60.02936555,famFaceFilter,001,11,
16,./img/edges5_BritneySpears7_1.png,0,65,65,15,,,2.nein,2.153,None,None,None,music,0.774,None,None,None,,['return'],[0.6001172122728349],2017_Feb_07_1055,60.02936555,famFaceFilter,001,11,
39,./img/edges5_AlysonHannigan(Lily)8_3.png,0,66,66,38,,,2.nein,1.099,None,None,None,host,0.44,None,None,None,,['return'],[0.6335255969597711],2017_Feb_07_1055,60.02936555,famFaceFilter,001,11,
69,./img/edges5_GuentherJauch2_1.png,0,67,67,68,,,1.ja,4.018,None,None,None,host,0.54,None,None,None,weiss ich nicht,"['w', 'e', 'i', 's', 's', 'space', 'i', 'c', 'h', 'space', 'n', 'i', 'c', 'h', 't', 'return']","[1.3663858683185026, 1.5664932647850947, 1.6664669289134508, 2.232805578713851, 2.432719866838397, 2.5659896433621725, 2.765995353210201, 2.9159035625921206, 3.015585318761623, 3.1657463011893014, 3.282402986314537, 3.448968233677533, 3.5988472522640222, 3.62783692032599, 3.8987262227333304, 4.148713632197996]",2017_Feb_07_1055,60.02936555,famFaceFilter,001,11,
3,./img/edges5_NicoleKidman5_1.png,0,68,68,2,,,1.ja,2.805,None,None,None,music,1.34,None,None,None,Nicol kidman,"['lshift', 'n', 'i', 'c', 'o', 'l', 'space', 'k', 'i', 'd', 'm', 'a', 'n', 'return']","[0.6667546667581519, 1.316562312244514, 1.4998266195034375, 1.849646871564346, 3.4156509499357526, 3.5989296922039102, 3.7820852557288163, 3.931960745757351, 4.132104710913154, 4.398634640620912, 4.5652197762187825, 4.731695847304309, 4.781737532402531, 4.998301801392699]",2017_Feb_07_1055,60.02936555,famFaceFilter,001,11,
63,./img/edges5_LisaEdelstein(DrLisaCuddy)2_2.png,0,69,69,62,,,2.nein,1.201,None,None,None,host,2.989,None,None,None,,['return'],[0.450277007821569],2017_Feb_07_1055,60.02936555,famFaceFilter,001,11,
17,./img/edges5_NeilPatrickHarris(Barney)3_7.png,0,70,70,16,,,2.nein,2.788,None,None,None,None,None,sport,0.64,None,,['return'],[0.7669573663615665],2017_Feb_07_1055,60.02936555,famFaceFilter,001,11,
46,./img/edges5_TomCruise5_1.png,0,71,71,45,,,2.nein,2.522,None,act,0.907,None,None,None,None,None,,['return'],[0.4834432051366093],2017_Feb_07_1055,60.02936555,famFaceFilter,001,11,
57,./img/gray_UrsulavonderLeyen5_1.png,0,0,0,56,,,2.nein,2.686,None,None,None,host,0.788,None,None,None,,['return'],[0.6504540131086287],2017_Feb_07_1055,60.02936555,famFaceFilter,001,11,
19,./img/gray_JasonSegel(Marshall)9_1.png,0,1,1,18,,,2.nein,1.606,None,None,None,music,3.271,None,None,None,,['return'],[0.7665031447468209],2017_Feb_07_1055,60.02936555,famFaceFilter,001,11,
46,./img/gray_GuentherJauch3_1.png,0,2,2,45,,,1.ja,1.179,None,None,None,host,1.072,None,None,None,vergessen,"['v', 'e', 'r', 'g', 'e', 's', 's', 'e', 'n', 'return']","[0.8834206223668843, 1.0833230417065352, 1.2831577768929492, 1.4331240470887678, 1.583034181138828, 1.8330039478146318, 1.9996250105455147, 2.2159756414034746, 2.332867456785607, 2.565961735678229]",2017_Feb_07_1055,60.02936555,famFaceFilter,001,11,
72,./img/gray_WillSmith4_1.png,0,3,3,71,,,1.ja,1.495,None,act,1.489,None,None,None,None,None,vergessen,"['v', 'e', 'r', 'g', 'e', 's', 's', 'e', 'n', 'return']","[0.7501255043830497, 0.8999487076011974, 1.1167683158610089, 1.1999088348989062, 1.3665722403229665, 1.6165497056699678, 1.7830222481979945, 2.0162746706328107, 2.1330051346926666, 2.382851081069475]",2017_Feb_07_1055,60.02936555,famFaceFilter,001,11,
8,./img/gray_BastianSchweinsteiger6_2.png,0,4,4,7,,,1.ja,2.785,None,None,None,None,None,sport,2.371,None,Fußballspieler,"['lshift', 'f', 'u', u'\xdf', 'b', 'a', 'l', 'l', 's', 'p', 'i', 'e', 'l', 'e', 'r', 'return']","[0.6000581891248657, 0.8333664269280234, 1.1998539818650897, 1.4997428964520623, 1.7663703426646862, 1.949577551443781, 2.0827713035873785, 2.249529017736222, 2.4326691839182786, 2.5826402657839935, 2.7492597246250625, 2.915701793245262, 3.03258558917787, 3.2157055463476354, 3.4489310234325785, 3.648519401133399]",2017_Feb_07_1055,60.02936555,famFaceFilter,001,11,
63,./img/gray_JoshRadnor(Ted)3_1.png,0,5,5,62,,,2.nein,1.084,None,None,None,music,0.523,None,None,None,,['return'],[0.5167800563353921],2017_Feb_07_1055,60.02936555,famFaceFilter,001,11,
49,./img/gray_NeilPatrickHarris(Barney)1_1.png,0,6,6,48,,,2.nein,1.167,None,None,None,music,7.786,None,None,None,,['return'],[0.4834733582665649],2017_Feb_07_1055,60.02936555,famFaceFilter,001,11,
12,./img/gray_BarackObama2_1.png,0,7,7,11,,,1.ja,0.956,None,None,None,None,None,polit,1.006,None,Herr Obama,"['lshift', 'h', 'e', 'r', 'r', 'space', 'lshift', 'o', 'b', 'a', 'm', 'a', 'return']","[0.7666802141898188, 0.86669846645691, 1.0832290537596236, 1.3665016691684286, 1.4998785855359529, 1.766345963538697, 2.0661687978622467, 2.2994568266526585, 2.682400291779686, 2.8158930089971363, 2.915994663537731, 3.065810488862553, 3.21578189150614]",2017_Feb_07_1055,60.02936555,famFaceFilter,001,11,
1,./img/gray_JoachimLoew8_1.png,0,8,8,0,,,1.ja,1.21,None,None,None,None,None,sport,1.072,None,Fußballtrainer,"['lshift', 'f', 'u', u'\xdf', 'b', 'a', 'l', 'l', 't', 'r', 'a', 'i', 'n', 'e', 'r', 'return']","[0.6834155540750544, 0.8501302839749769, 1.1332277546089244, 1.4165712619501392, 1.7828522358709051, 1.9162236990127894, 2.116183216832269, 2.266111314448608, 2.6993973544158507, 2.882541690711605, 3.049051764262913, 3.2989730934641557, 3.5319490052834226, 3.6822094288836524, 3.948745453373249, 4.198663895572736]",2017_Feb_07_1055,60.02936555,famFaceFilter,001,11,
56,./img/gray_GuentherJauch2_1.png,0,9,9,55,,,1.ja,1.273,None,None,None,host,0.956,None,None,None,weiss ich nicht,"['w', 'e', 'i', 's', 's', 'space', 'i', 'c', 'h', 'space', 'n', 'i', 'c', 'h', 't', 'return']","[0.733407839364645, 0.9666711682511959, 1.3663403178461522, 1.6498560829609232, 1.8165733790851846, 1.9495929487870853, 2.1662213733725366, 2.3161077698523513, 2.4494157189551515, 2.615886016037166, 2.749402470824407, 2.915944942951228, 3.082297835293957, 3.1992708075040355, 3.4156092487992282, 3.68214527328837]",2017_Feb_07_1055,60.02936555,famFaceFilter,001,11,
59,./img/gray_AlysonHannigan(Lily)5_4.png,0,10,10,58,,,2.nein,1.172,None,None,None,host,0.789,None,None,None,,['return'],[0.4836475407078069],2017_Feb_07_1055,60.02936555,famFaceFilter,001,11,
51,./img/gray_AlysonHannigan(Lily)1_1.png,0,11,11,50,,,2.nein,1.538,None,None,None,host,0.539,None,None,None,,['return'],[0.4835570813179402],2017_Feb_07_1055,60.02936555,famFaceFilter,001,11,
2,./img/gray_BastianSchweinsteiger1_1.png,0,12,12,1,,,1.ja,1.039,None,None,None,None,None,sport,1.289,None,Fißballspieler,"['lshift', 'f', 'i', u'\xdf', 'b', 'a', 'l', 'l', 's', 'p', 'i', 'e', 'l', 'e', 'r', 'return']","[0.8833859783458138, 1.0665341639773942, 1.5493492858358877, 1.8328031408013885, 2.632567753922558, 2.882588845074224, 3.132434149895289, 3.2822560700014947, 3.8989363323080397, 4.048790009434015, 4.231902588710454, 4.398703928664418, 4.66504812792391, 4.781794951660686, 5.048359846167841, 5.26502323555269]",2017_Feb_07_1055,60.02936555,famFaceFilter,001,11,
6,./img/gray_NicoleKidman3_1.png,0,13,13,5,,,1.ja,1.582,None,dummy,2.039,None,None,None,None,None,Nicole kidman,"['lshift', 'n', 'i', 'c', 'o', 'l', 'e', 'space', 'k', 'i', 'd', 'm', 'a', 'n', 'return']","[1.116428932762119, 1.2832729361866768, 1.4831522595118258, 1.8996276088473678, 2.1327905342268423, 2.3493297825348236, 3.1157196926560573, 3.4490949409782843, 3.7988465465523404, 3.9988650875193343, 4.165336988491617, 4.331997506913467, 4.53172831003576, 4.598495358824039, 4.865066027334706]",2017_Feb_07_1055,60.02936555,famFaceFilter,001,11,
36,./img/gray_TomCruise5_1.png,0,14,14,35,,,1.ja,1.604,None,dummy,1.839,None,None,None,None,None,vergessen,"['v', 'e', 'r', 'g', 'e', 's', 's', 'e', 'n', 'return']","[1.0498521053141303, 1.2661048988893526, 1.4830993311461498, 1.6330476377752348, 1.765884043252754, 2.016129358210037, 2.1661738982320458, 2.3828026435958236, 2.482727870249164, 2.7159324967660723]",2017_Feb_07_1055,60.02936555,famFaceFilter,001,11,
13,./img/gray_NeilPatrickHarris(Barney)2_2.png,0,15,15,12,,,2.nein,1.301,None,act,1.123,None,None,None,None,None,,['return'],[0.5500883582935785],2017_Feb_07_1055,60.02936555,famFaceFilter,001,11,
16,./img/gray_JoshRadnor(Ted)1_2.png,0,16,16,15,,,2.nein,1.026,None,None,None,music,0.672,None,None,None,,['return'],[0.4503344270792695],2017_Feb_07_1055,60.02936555,famFaceFilter,001,11,
55,./img/gray_Ice-T(OdafinFinTutuola)6_1.png,0,17,17,54,,,2.nein,0.946,None,None,None,music,0.822,None,None,None,,['return'],[0.5004572690054374],2017_Feb_07_1055,60.02936555,famFaceFilter,001,11,
10,./img/gray_HughLaurie(DrHouse)2_1.png,0,18,18,9,,,2.nein,1.256,None,None,None,host,1.872,None,None,None,,['return'],[0.433710108451578],2017_Feb_07_1055,60.02936555,famFaceFilter,001,11,
14,./img/gray_JoshRadnor(Ted)6_2.png,0,19,19,13,,,2.nein,0.858,None,act,0.989,None,None,None,None,None,,['return'],[0.4002308318317773],2017_Feb_07_1055,60.02936555,famFaceFilter,001,11,
44,./img/gray_BritneySpears5_1.png,0,20,20,43,,,1.ja,1.188,None,act,0.89,None,None,None,None,None,Brithny spearc,"['lshift', 'b', 'r', 'i', 't', 'h', 'n', 'y', 'space', 's', 'p', 'e', 'a', 'r', 'c', 'return']","[1.4831391076149885, 1.533185604382652, 1.8665441722500873, 2.016218534487507, 2.299538625036348, 2.4828215374182037, 2.7159754810145387, 3.2158165355272104, 3.3657176877936763, 3.615691624583178, 3.8322048898753565, 4.182028991272091, 4.448568865097059, 4.781986776890335, 5.564828747865704, 5.7481360393735486]",2017_Feb_07_1055,60.02936555,famFaceFilter,001,11,
21,./img/gray_HughLaurie(DrHouse)4_1.png,0,21,21,20,,,2.nein,1.238,None,None,None,host,2.705,None,None,None,,"['num_decimal', 'return']","[0.41826849822336953, 0.999946109299799]",2017_Feb_07_1055,60.02936555,famFaceFilter,001,11,
17,./img/gray_JasonSegel(Marshall)6_1.png,0,22,22,16,,,2.nein,1.051,None,None,None,host,3.621,None,None,None,,['return'],[0.6168092150528537],2017_Feb_07_1055,60.02936555,famFaceFilter,001,11,
42,./img/gray_NicoleKidman5_1.png,0,23,23,41,,,1.ja,0.943,None,None,None,music,2.205,None,None,None,Nicol kidman,"['lshift', 'n', 'i', 'c', 'o', 'l', 'space', 'k', 'i', 'd', 'm', 'a', 'n', 'return']","[0.7501800366394491, 0.9667609860844095, 1.1165713581835917, 1.3831660850428307, 1.5661471453486229, 1.799641434377918, 1.9829878607988576, 2.1995354493346895, 2.3661186602644193, 2.5993425334595486, 2.749248176618039, 2.96597026837253, 3.015912191519874, 3.2823170178171495]",2017_Feb_07_1055,60.02936555,famFaceFilter,001,11,
69,./img/gray_OmarEpps(DrEricForeman)3_1.png,0,24,24,68,,,2.nein,1.189,None,None,None,music,0.739,None,None,None,,['return'],[0.43354362468198815],2017_Feb_07_1055,60.02936555,famFaceFilter,001,11,
7,./img/gray_OmarEpps(DrEricForeman)1_5.png,0,25,25,6,,,2.nein,1.132,None,None,None,music,0.772,None,None,None,,['return'],[0.5669606382966776],2017_Feb_07_1055,60.02936555,famFaceFilter,001,11,
23,./img/gray_TomCruise4_1.png,0,26,26,22,,,1.ja,2.854,None,act,1.888,None,None,None,None,None,weiss ich nicht,"['w', 'e', 'i', 's', 's', 'space', 'i', 'c', 'h', 'space', 'n', 'i', 'c', 'h', 't', 'return']","[0.8001556414742481, 1.0168530333248782, 1.2000310513080876, 1.3832042576218555, 1.566333196575215, 1.7332801697302784, 1.949712598971928, 2.0663365647437786, 2.1830599716881807, 2.332880929460771, 2.4663220014235776, 2.649479810394496, 2.782737718132921, 2.866014888589234, 3.115911838664033, 3.3991392243779046]",2017_Feb_07_1055,60.02936555,famFaceFilter,001,11,
52,./img/gray_EmilyDeschanel5_1.png,0,27,27,51,,,2.nein,1.198,None,dummy,1.373,None,None,None,None,None,,['return'],[0.466856417532199],2017_Feb_07_1055,60.02936555,famFaceFilter,001,11,
50,./img/gray_BastianSchweinsteiger3_1.png,0,28,28,49,,,1.ja,1.011,None,None,None,None,None,sport,1.356,None,fußballspieler,"['f', 'u', u'\xdf', 'b', 'a', 'l', 'l', 's', 'p', 'i', 'e', 'l', 'e', 'r', 'return']","[1.0332377308036484, 1.5164544666890833, 1.8495881691951581, 2.2161636172977524, 2.3994051493205006, 2.61562105342864, 2.7660348089011677, 3.0324922427867023, 3.2492005410881575, 3.4153875912174954, 3.5323012195017327, 3.665604998490835, 3.7988016376357336, 4.015460856906884, 4.2151906976955615]",2017_Feb_07_1055,60.02936555,famFaceFilter,001,11,
33,./img/gray_KatjaBurkard4_1.png,0,29,29,32,,,2.nein,1.328,None,None,None,host,0.539,None,None,None,,['return'],[0.3835583965078513],2017_Feb_07_1055,60.02936555,famFaceFilter,001,11,
4,./img/gray_AngelaMerkel1_1.png,0,30,30,3,,,1.ja,0.947,None,None,None,None,None,polit,1.255,None,Frau Merkel,"['lshift', 'f', 'r', 'a', 'u', 'space', 'lshift', 'm', 'e', 'r', 'k', 'e', 'l', 'return']","[0.7168810372418193, 0.9166731089576388, 1.1332306416102256, 1.3331304947259923, 1.6164008646892398, 1.7660405829046795, 2.515949562154219, 2.666028104641555, 2.93261481205127, 3.1324354330067763, 3.2990048504834704, 3.38234328953331, 3.515519078109719, 3.748660832142832]",2017_Feb_07_1055,60.02936555,famFaceFilter,001,11,
71,./img/gray_BritneySpears7_1.png,0,31,31,70,,,1.ja,1.646,None,act,1.306,None,None,None,None,None,Brithny,"['lshift', 'b', 'r', 'i', 't', 'h', 'n', 'y', 'return']","[0.8999519153821893, 1.0997337222024726, 1.4330586083824528, 2.0662627858100677, 2.4493983969441615, 2.6825241120786814, 3.0990613715639483, 3.3490186278986585, 3.515574893478515]",2017_Feb_07_1055,60.02936555,famFaceFilter,001,11,
20,./img/gray_WillSmith1_1.png,0,32,32,19,,,1.ja,1.119,None,act,0.923,None,None,None,None,None,Vergessen,"['lshift', 'v', 'e', 'r', 'g', 'e', 's', 's', 'e', 'n', 'return']","[0.8167164460628555, 1.0168183893028981, 1.9163029311730497, 2.0662862026019866, 2.299287455881313, 2.466261053607923, 2.699470171016401, 2.865964847224859, 3.065810809640425, 3.1826278837543214, 3.3990558221039464]",2017_Feb_07_1055,60.02936555,famFaceFilter,001,11,
9,./img/gray_RobertSeanLeonard(Wilson)8_1.png,0,33,33,8,,,2.nein,1.115,None,None,None,music,0.473,None,None,None,,['return'],[0.8166875760452967],2017_Feb_07_1055,60.02936555,famFaceFilter,001,11,
47,./img/gray_HughLaurie(DrHouse)5_3.png,0,34,34,46,,,2.nein,1.043,None,None,None,host,2.022,None,None,None,,['return'],[0.4336677657584005],2017_Feb_07_1055,60.02936555,famFaceFilter,001,11,
58,./img/gray_GeorgeClooney3_1.png,0,35,35,57,,,1.ja,1.619,None,act,1.806,None,None,None,None,None,Berad pit,"['lshift', 'b', 'e', 'r', 'a', 'd', 'space', 'p', 'i', 't', 'return']","[0.716982723860383, 0.8667125806878175, 1.150099713833697, 1.583232742706059, 1.7162426890690767, 1.799652020051326, 1.9995958197496293, 2.532623922145831, 2.6826970114079813, 2.9825115055036804, 3.182407509283621]",2017_Feb_07_1055,60.02936555,famFaceFilter,001,11,
53,./img/gray_Ice-T(OdafinFinTutuola)5_1.png,0,36,36,52,,,2.nein,1.295,None,None,None,music,0.989,None,None,None,,['return'],[0.36706174751543585],2017_Feb_07_1055,60.02936555,famFaceFilter,001,11,
35,./img/gray_JoachimLoew4_1.png,0,37,37,34,,,1.ja,1.188,None,None,None,None,None,sport,1.922,None,Fußballsüieler,"['lshift', 'f', 'u', u'\xdf', 'b', 'a', 'l', 'l', 's', u'\xfc', 'i', 'e', 'l', 'e', 'r', 'return']","[0.8001533960286906, 0.9166981296393715, 1.1665854563752873, 1.4497518942744136, 1.7829253732488723, 1.9662268907532052, 2.1826371863153327, 2.349275250278879, 2.682611042910139, 3.149126152675308, 3.3656352478537883, 3.5489864859446243, 3.665652794408743, 3.7821583931072382, 4.032255508639537, 4.581805280710796]",2017_Feb_07_1055,60.02936555,famFaceFilter,001,11,
25,./img/gray_MariskaHargitay(Liv)8_8.png,0,38,38,24,,,2.nein,1.225,None,None,None,music,1.472,None,None,None,,['return'],[0.5168567222717684],2017_Feb_07_1055,60.02936555,famFaceFilter,001,11,
28,./img/gray_GeorgeClooney4_2.png,0,39,39,27,,,1.ja,1.438,None,act,1.889,None,None,None,None,None,Berad pit,"['lshift', 'b', 'e', 'r', 'a', 'd', 'space', 'p', 'i', 't', 'return']","[0.7998512231743007, 0.983299015436387, 1.2831625885628455, 1.7995378230916685, 1.9496481225987736, 2.0161723424580487, 2.182816501203888, 2.5158616689886912, 2.6827592423351234, 2.9657332134474927, 3.1991970285689604]",2017_Feb_07_1055,60.02936555,famFaceFilter,001,11,
11,./img/gray_EmilyDeschanel6_12.png,0,40,40,10,,,2.nein,1.188,None,dummy,0.406,None,None,None,None,None,,['return'],[0.5667139600327573],2017_Feb_07_1055,60.02936555,famFaceFilter,001,11,
60,./img/gray_EmilyDeschanel3_1.png,0,41,41,59,,,2.nein,1.578,None,dummy,0.656,None,None,None,None,None,,['return'],[0.3835131668129179],2017_Feb_07_1055,60.02936555,famFaceFilter,001,11,
54,./img/gray_LeonardoDiCaprio3_1.png,0,42,42,53,,,1.ja,1.139,None,act,0.923,None,None,None,None,None,Titanic,"['lshift', 't', 'i', 't', 'a', 'n', 'i', 'c', 'return']","[0.5835397272303453, 0.8335871221761408, 1.1168353584580473, 1.3829755429251236, 1.516507074277797, 1.6832949415556868, 1.8829894967666405, 2.3162639887268597, 2.6992956677977418]",2017_Feb_07_1055,60.02936555,famFaceFilter,001,11,
37,./img/gray_TomCruise1_1.png,0,43,43,36,,,2.nein,3.075,None,dummy,0.94,None,None,None,None,None,,['return'],[0.9002303506649696],2017_Feb_07_1055,60.02936555,famFaceFilter,001,11,
31,./img/gray_AngelaMerkel3_1.png,0,44,44,30,,,1.ja,1.122,None,None,None,None,None,polit,2.204,None,Frau Merkel,"['lshift', 'f', 'r', 'a', 'u', 'space', 'lshift', 'm', 'e', 'r', 'k', 'e', 'l', 'return']","[2.665941173810097, 2.815819550840388, 3.015971535445715, 3.1658495916981337, 3.3490234395676453, 3.4988793621396326, 3.815427880930656, 3.9488474607696844, 4.19877841330981, 4.46518676816504, 4.69848185407136, 4.78174747651974, 4.89845227834121, 5.114914539934944]",2017_Feb_07_1055,60.02936555,famFaceFilter,001,11,
68,./img/gray_Ice-T(OdafinFinTutuola)7_1.png,0,45,45,67,,,2.nein,1.349,None,None,None,music,0.806,None,None,None,,['return'],[0.949980769360991],2017_Feb_07_1055,60.02936555,famFaceFilter,001,11,
30,./img/gray_BarackObama4_1.png,0,46,46,29,,,1.ja,0.973,None,None,None,None,None,polit,1.373,None,Herr Obama,"['lshift', 'h', 'e', 'r', 'r', 'space', 'lshift', 'o', 'b', 'a', 'm', 'a', 'return']","[0.6500774197647843, 0.8665505878097974, 1.0831632942745273, 1.3330490171201745, 1.4998362428432301, 1.6995753861929188, 1.9663426916031312, 2.0494411887266324, 2.7991840049835446, 2.915943339061414, 3.0658435289942645, 3.182537103586583, 3.3490054760013663]",2017_Feb_07_1055,60.02936555,famFaceFilter,001,11,
41,./img/gray_RobertSeanLeonard(Wilson)1_1.png,0,47,47,40,,,2.nein,1.379,None,act,0.873,None,None,None,None,None,,['return'],[0.35024881143726816],2017_Feb_07_1055,60.02936555,famFaceFilter,001,11,
40,./img/gray_BritneySpears1_1.png,0,48,48,39,,,1.ja,1.439,None,None,None,music,1.472,None,None,None,Brithni spears,"['lshift', 'b', 'r', 'i', 't', 'h', 'n', 'i', 'space', 's', 'p', 'e', 'a', 'r', 'c', 'backspace', 's', 'return']","[0.6166998297630926, 0.8665528332549002, 1.2831738157919972, 1.4330784966159626, 1.683047621735568, 1.8495727718518538, 2.0661408901778486, 2.282592245320302, 2.4661337047509733, 2.915943339061414, 3.0823302338694702, 3.33239847938421, 3.582216838854947, 3.8488304916145353, 4.315207025294512, 5.3148625097474, 5.531397587941683, 5.6648213378939545]",2017_Feb_07_1055,60.02936555,famFaceFilter,001,11,
64,./img/gray_LisaEdelstein(DrLisaCuddy)2_2.png,0,49,49,63,,,2.nein,1.232,None,None,None,host,0.439,None,None,None,,['return'],[0.3503614045075665],2017_Feb_07_1055,60.02936555,famFaceFilter,001,11,
61,./img/gray_AlysonHannigan(Lily)8_3.png,0,50,50,60,,,2.nein,0.895,None,None,None,host,0.723,None,None,None,,['return'],[0.36686735606053844],2017_Feb_07_1055,60.02936555,famFaceFilter,001,11,
22,./img/gray_GuentherJauch4_1.png,0,51,51,21,,,1.ja,3.874,None,None,None,host,0.639,None,None,None,weiss ich nicht,"['w', 'e', 'i', 's', 's', 'space', 'i', 'c', 'h', 'space', 'n', 'i', 'c', 'h', 't', 'return']","[2.4327044694955475, 2.6659633074905287, 2.8327588734400706, 2.982323850387729, 3.1492868624418406, 3.2991851277065507, 3.482343257454886, 3.615753855510775, 3.732280625555177, 3.882228290628518, 4.032225997066234, 4.1985471323887396, 4.28207675511203, 4.382015775218861, 4.615298030005761, 4.881520333634398]",2017_Feb_07_1055,60.02936555,famFaceFilter,001,11,
15,./img/gray_GeorgeClooney11_1.png,0,52,52,14,,,1.ja,1.276,None,act,1.705,None,None,None,None,None,pit,"['p', 'i', 't', 'return']","[1.149821920105751, 1.549617777001913, 1.7164810271051465, 1.883021574563827]",2017_Feb_07_1055,60.02936555,famFaceFilter,001,11,
24,./img/gray_JoachimLoew1_1.png,0,53,53,23,,,1.ja,1.415,None,None,None,None,None,sport,1.289,None,Fußßballtrainer,"['lshift', 'f', 'u', u'\xdf', u'\xdf', 'b', 'a', 'l', 'l', 't', 'r', 'a', 'i', 'n', 'e', 'r', 'return']","[0.68351210824585, 0.8833606368852998, 1.0999832874667845, 1.6332301604434178, 1.7996491330486606, 2.099542538527203, 2.299501094013067, 2.4826617899852863, 2.649423353470411, 3.1991007951764914, 3.382441768371791, 3.5156724099824714, 3.732146861138972, 3.9820556799995757, 4.081959735306555, 4.33205075605747, 4.498479993558249]",2017_Feb_07_1055,60.02936555,famFaceFilter,001,11,
38,./img/gray_MariskaHargitay(Liv)4_4.png,0,54,54,37,,,2.nein,1.724,None,None,None,music,0.873,None,None,None,,['return'],[0.43317280534120073],2017_Feb_07_1055,60.02936555,famFaceFilter,001,11,
26,./img/gray_BarackObama1_3.png,0,55,55,25,,,1.ja,1.188,None,None,None,None,None,polit,1.788,None,Herr obama,"['lshift', 'h', 'e', 'r', 'r', 'space', 'o', 'b', 'a', 'm', 'a', 'return']","[0.7334678248462296, 0.9333205235998321, 1.1665081488836222, 1.399801310121802, 1.5830332188052125, 1.7662644859328793, 2.149464252663165, 2.515950845266161, 2.6492575112570194, 2.7326094229811133, 2.882606167085214, 3.0157232532919807]",2017_Feb_07_1055,60.02936555,famFaceFilter,001,11,
70,./img/gray_WillSmith5_1.png,0,56,56,69,,,1.ja,1.282,None,act,1.923,None,None,None,None,None,vergessen,"['v', 'e', 'r', 'g', 'e', 's', 's', 'e', 'n', 'return']","[0.7834832061498673, 0.9500933624303798, 1.183198868551699, 1.3831346488013878, 1.4999481943568753, 1.7497482694825521, 1.8995750012591088, 2.099558577426251, 2.2160773280220383, 2.432716338280443]",2017_Feb_07_1055,60.02936555,famFaceFilter,001,11,
65,./img/gray_KatjaBurkard5_3.png,0,57,57,64,,,2.nein,1.079,None,None,None,host,0.406,None,None,None,,['return'],[0.4170857898243412],2017_Feb_07_1055,60.02936555,famFaceFilter,001,11,
5,./img/gray_OmarEpps(DrEricForeman)2_2.png,0,58,58,4,,,2.nein,1.114,None,None,None,music,0.456,None,None,None,,['return'],[0.6166953388710681],2017_Feb_07_1055,60.02936555,famFaceFilter,001,11,
32,./img/gray_MariskaHargitay(Liv)6_5.png,0,59,59,31,,,2.nein,0.972,None,dummy,0.421,None,None,None,None,None,,['return'],[0.28388690523297555],2017_Feb_07_1055,60.02936555,famFaceFilter,001,11,
45,./img/gray_NicoleKidman7_1.png,0,60,60,44,,,1.ja,1.416,None,None,None,music,1.289,None,None,None,nicole kidman,"['n', 'i', 'c', 'o', 'l', 'e', 'space', 'k', 'i', 'd', 'm', 'a', 'n', 'return']","[0.8499262691821059, 1.016583579824328, 1.2166358024796864, 1.982958670003427, 2.199615323051148, 2.3661074330357224, 2.4660352259134015, 3.082299118405899, 3.2824171005458993, 3.4821078064214817, 3.682224184671213, 3.815510962427652, 3.915446453976074, 4.132161809393438]",2017_Feb_07_1055,60.02936555,famFaceFilter,001,11,
67,./img/gray_AngelaMerkel4_1.png,0,61,61,66,,,1.ja,1.531,None,None,None,None,None,polit,1.322,None,Frau Merkel,"['lshift', 'f', 'r', 'a', 'u', 'space', 'lshift', 'm', 'e', 'r', 'k', 'e', 'l', 'return']","[0.4835147386256722, 0.7664915967397974, 0.9500648131897833, 1.066703213970868, 1.2664879077929072, 1.4165430334878693, 1.8495108617025835, 1.949586854005247, 2.166304134090751, 2.3825639847809725, 2.5159258245839737, 2.6160380647979764, 2.748960438772883, 2.965686059085783]",2017_Feb_07_1055,60.02936555,famFaceFilter,001,11,
3,./img/gray_KatjaBurkard1_1.png,0,62,62,2,,,2.nein,1.523,None,None,None,host,0.471,None,None,None,,['return'],[0.4843086641167247],2017_Feb_07_1055,60.02936555,famFaceFilter,001,11,
34,./img/gray_RobertSeanLeonard(Wilson)2_6.png,0,63,63,33,,,2.nein,0.948,None,None,None,music,0.539,None,None,None,,['return'],[0.3670290281615962],2017_Feb_07_1055,60.02936555,famFaceFilter,001,11,
43,./img/gray_LisaEdelstein(DrLisaCuddy)6_3.png,0,64,64,42,,,2.nein,0.972,None,None,None,host,0.406,None,None,None,,['return'],[0.3665776935486065],2017_Feb_07_1055,60.02936555,famFaceFilter,001,11,
62,./img/gray_LisaEdelstein(DrLisaCuddy)1_1.png,0,65,65,61,,,2.nein,0.88,None,dummy,0.406,None,None,None,None,None,,['return'],[0.38360170153464423],2017_Feb_07_1055,60.02936555,famFaceFilter,001,11,
29,./img/gray_UrsulavonderLeyen4_1.png,0,66,66,28,,,2.nein,2.622,None,act,0.723,None,None,None,None,None,,['return'],[0.35030623069542344],2017_Feb_07_1055,60.02936555,famFaceFilter,001,11,
48,./img/gray_LeonardoDiCaprio2_1.png,0,67,67,47,,,1.ja,1.18,None,act,0.823,None,None,None,None,None,Titanic,"['lshift', 't', 'i', 't', 'a', 'n', 'i', 'c', 'return']","[0.7999618915764586, 0.866601270729916, 1.083069306327161, 1.316482759306382, 1.3997387584158787, 1.6497543963423595, 1.8495939431986699, 2.2324309100376922, 2.399381732528127]",2017_Feb_07_1055,60.02936555,famFaceFilter,001,11,
39,./img/gray_UrsulavonderLeyen1_1.png,0,68,68,38,,,2.nein,1.297,None,dummy,0.872,None,None,None,None,None,,['return'],[0.5334133567457684],2017_Feb_07_1055,60.02936555,famFaceFilter,001,11,
18,./img/gray_JasonSegel(Marshall)7_1.png,0,69,69,17,,,2.nein,1.25,None,dummy,0.605,None,None,None,None,None,,['return'],[0.43352726500506833],2017_Feb_07_1055,60.02936555,famFaceFilter,001,11,
66,./img/gray_NeilPatrickHarris(Barney)3_7.png,0,70,70,65,,,2.nein,0.911,None,act,0.473,None,None,None,None,None,,['return'],[0.4002580979595223],2017_Feb_07_1055,60.02936555,famFaceFilter,001,11,
27,./img/gray_LeonardoDiCaprio1_1.png,0,71,71,26,,,1.ja,1.217,None,act,0.706,None,None,None,None,None,Titanic,"['lshift', 't', 'i', 't', 'a', 'n', 'i', 'c', 'return']","[0.6835310341466538, 0.8169057050690753, 1.0666528518286214, 1.2832796725242588, 1.416679043350996, 1.5999856933021874, 1.8163719305157429, 2.116373117394687, 2.3494349977117963]",2017_Feb_07_1055,60.02936555,famFaceFilter,001,11,
