num,pic,trials.thisRepN,trials.thisTrialN,trials.thisN,trials.thisIndex,key_resp_2.keys,key_resp_2.rt,ratingBekannt.response,ratingBekannt.rt,key_resp_5.keys,ratingK1.response,ratingK1.rt,ratingK2.response,ratingK2.rt,ratingK3.response,ratingK3.rt,key_resp_6.keys,inputText,key_resp_4.keys,key_resp_4.rt,date,frameRate,expName,session,participant,
,,,,,,space,12.3431984323,,,,,,,,,,,,,,2017_Feb_07_1327,60.0175773654,famFaceFilter,001,12,
72,./img/smoo15_HughLaurie(DrHouse)2_1.png,0,0,0,71,,,2.nein,3.706,None,act,8.153,None,None,None,None,None,,['return'],[0.9168787276412331],2017_Feb_07_1327,60.0175773654,famFaceFilter,001,12,
6,./img/smoo15_AlysonHannigan(Lily)1_1.png,0,1,1,5,,,2.nein,13.918,None,act,1.186,None,None,None,None,None,,['return'],[1.500570824407987],2017_Feb_07_1327,60.0175773654,famFaceFilter,001,12,
28,./img/smoo15_HughLaurie(DrHouse)5_3.png,0,2,2,27,,,2.nein,5.439,None,None,None,music,2.267,None,None,None,,['return'],[0.7001726747857902],2017_Feb_07_1327,60.0175773654,famFaceFilter,001,12,
63,./img/smoo15_RobertSeanLeonard(Wilson)8_1.png,0,3,3,62,,,2.nein,2.756,None,None,None,music,3.238,None,None,None,,['return'],[0.6333260730571055],2017_Feb_07_1327,60.0175773654,famFaceFilter,001,12,
29,./img/smoo15_GuentherJauch3_1.png,0,4,4,28,,,1.ja,1.407,None,None,None,host,1.674,None,None,None,Günther Jauch,"['lshift', 'g', u'\xfc', 'n', 't', 'h', 'e', 'r', 'space', 'lshift', 'h', 'a', 'u', 'c', 'backspace', 'backspace', 'backspace', 'backspace', 'lshift', 'j', 'a', 'u', 'c', 'h', 'return']","[0.31696745482804545, 0.5168647417194734, 0.8000921274342545, 1.1000509716195666, 1.316623260059714, 1.499797107930135, 1.5999029325830634, 1.7330357369119156, 1.8164835612515162, 2.1995502051213407, 2.3828058513754513, 2.5160967992451333, 2.6161586773159797, 2.749373921584265, 2.982612871344827, 3.1325566870818875, 3.2492634135705885, 3.365734368248013, 3.6488433868889842, 4.1653010613572405, 4.415203464657679, 4.5151857897926675, 4.631689463822113, 5.031723017198601, 5.514955791983084]",2017_Feb_07_1327,60.0175773654,famFaceFilter,001,12,
7,./img/smoo15_LisaEdelstein(DrLisaCuddy)2_2.png,0,5,5,6,,,1.ja,5.233,None,act,1.201,None,None,None,None,None,,['return'],[0.6499693175865104],2017_Feb_07_1327,60.0175773654,famFaceFilter,001,12,
36,./img/smoo15_BastianSchweinsteiger6_2.png,0,6,6,35,,,1.ja,1.874,None,None,None,None,None,sport,2.09,None,Schweinsteiger,"['lshift', 's', 'c', 'h', 'e', 'i', 'n', 'backspace', 'backspace', 'backspace', 'w', 'e', 'i', 'n', 's', 't', 'e', 'i', 'g', 'e', 'r', 'return']","[0.41693919428871595, 0.7668175071630685, 0.983389795603216, 1.0830195857397484, 1.3831340072447347, 1.5332135120661405, 1.6831053617715952, 2.26614980780505, 2.39946609713661, 3.0324771662217245, 3.165879103271436, 3.3156824182551645, 3.3823551583172957, 3.548869722761083, 3.698980663824841, 3.815594364699791, 3.9488667074474506, 4.198681217583726, 4.381993641538429, 4.465366724609339, 4.53182646809546, 4.94835699124269]",2017_Feb_07_1327,60.0175773654,famFaceFilter,001,12,
58,./img/smoo15_EmilyDeschanel3_1.png,0,7,7,57,,,2.nein,2.951,None,dummy,2.74,None,None,None,None,None,,['return'],[0.6666635658129962],2017_Feb_07_1327,60.0175773654,famFaceFilter,001,12,
25,./img/smoo15_JasonSegel(Marshall)6_1.png,0,8,8,24,,,1.ja,2.358,None,act,0.591,None,None,None,None,None,,['return'],[2.9658756388707843],2017_Feb_07_1327,60.0175773654,famFaceFilter,001,12,
20,./img/smoo15_NicoleKidman5_1.png,0,9,9,19,,,2.nein,7.005,None,dummy,5.183,None,None,None,None,None,,['return'],[1.033338775867378],2017_Feb_07_1327,60.0175773654,famFaceFilter,001,12,
12,./img/smoo15_MariskaHargitay(Liv)8_8.png,0,10,10,11,,,2.nein,7.389,None,None,None,music,4.148,None,None,None,,['return'],[1.5664047300633683],2017_Feb_07_1327,60.0175773654,famFaceFilter,001,12,
3,./img/smoo15_JoshRadnor(Ted)3_1.png,0,11,11,2,,,2.nein,8.055,None,None,None,music,2.533,None,None,None,,['return'],[0.8667898881794827],2017_Feb_07_1327,60.0175773654,famFaceFilter,001,12,
30,./img/smoo15_KatjaBurkard4_1.png,0,12,12,29,,,1.ja,1.241,None,None,None,host,1.324,None,None,None,Katja Burkhardt,"['lshift', 'k', 'a', 't', 'j', 'a', 'space', 'lshift', 'b', 'u', 'r', 'g', 'h', 'a', 'r', 's', 'backspace', 'backspace', 'backspace', 'backspace', 'backspace', 'k', 'h', 'a', 'r', 'd', 't', 'return']","[0.3668923767436354, 0.7334023861403693, 0.9166067079167988, 1.5498400761407538, 1.7663786828925367, 1.949504734844595, 2.1160690198739758, 2.3826849180786667, 2.682589871565142, 3.015818524350834, 3.19900231633801, 3.465599288643716, 3.932087453058557, 4.032169540143514, 4.3319057644130226, 4.48199457179544, 5.048375885067799, 5.59799686984843, 5.731317970848977, 5.831082487737149, 5.964684269465579, 6.5142888945702, 6.830881359945124, 6.98097177121781, 7.214080805897538, 7.297273611746277, 7.497361440755412, 8.063661276421044]",2017_Feb_07_1327,60.0175773654,famFaceFilter,001,12,
18,./img/smoo15_HughLaurie(DrHouse)4_1.png,0,13,13,17,,,2.nein,2.518,None,dummy,1.823,None,None,None,None,None,,['return'],[1.3996248822350026],2017_Feb_07_1327,60.0175773654,famFaceFilter,001,12,
8,./img/smoo15_AngelaMerkel4_1.png,0,14,14,7,,,1.ja,1.041,None,None,None,None,None,polit,1.691,None,Angela Merkel,"['lshift', 'a', 'n', 'g', 'e', 'l', 'a', 'space', 'lshift', 'm', 'e', 'r', 'k', 'e', 'l', 'return']","[0.23365820657454606, 0.6499632228042174, 0.9334882904804545, 1.166542472126821, 1.2999222754951916, 1.449812842089159, 1.5664149949589046, 1.6998162904528726, 1.8828217298851087, 1.982981766017474, 2.2159429220500897, 2.5492334849859617, 3.1157742249124567, 3.215772909721636, 3.31570711815948, 3.882006312269368]",2017_Feb_07_1327,60.0175773654,famFaceFilter,001,12,
34,./img/smoo15_EmilyDeschanel5_1.png,0,15,15,33,,,2.nein,7.338,None,None,None,host,2.2,None,None,None,,['return'],[1.3665924493343482],2017_Feb_07_1327,60.0175773654,famFaceFilter,001,12,
47,./img/smoo15_BarackObama4_1.png,0,16,16,46,,,1.ja,1.774,None,None,None,None,None,polit,0.924,None,Barack Obama,"['lshift', 'b', 'a', 'r', 'a', 'c', 'k', 'space', 'lshift', 'o', 'b', 'a', 'm', 'a', 'return']","[0.25030465888448816, 0.583454721067028, 0.6834748980018048, 0.9501350635673589, 1.0833147014800488, 1.2997952474179328, 1.3997477402008371, 1.5496825741538487, 1.6497508677857695, 1.7997062315298535, 2.016112036199047, 2.349483755964684, 2.449463194096097, 2.5494355751125113, 3.0157739362130087]",2017_Feb_07_1327,60.0175773654,famFaceFilter,001,12,
66,./img/smoo15_NicoleKidman3_1.png,0,17,17,65,,,1.ja,2.59,None,act,0.441,None,None,None,None,None,Scarlett Johannsson,"['lshift', 's', 'c', 'a', 'r', 'l', 'e', 't', 't', 'space', 'lshift', 'j', 'o', 'h', 'h', 'backspace', 'a', 'n', 'n', 's', 's', 'o', 'n', 'return']","[0.3669626271203015, 0.5501146620881627, 0.8001428103543731, 0.9334315127798618, 1.0166400367488677, 1.3332857512668852, 1.4165144842481823, 1.5831563975480094, 1.6997800425415335, 1.8163000762488082, 1.9663972238595306, 2.3662748791393824, 2.565846897163283, 2.79931969406789, 2.982574698766257, 3.615805179986637, 4.048831710571903, 4.215390221595953, 4.348875240142661, 5.265138074068091, 5.414864402337116, 5.631659310693067, 5.814955054194797, 6.048110601679582]",2017_Feb_07_1327,60.0175773654,famFaceFilter,001,12,
31,./img/smoo15_BritneySpears1_1.png,0,18,18,30,,,1.ja,1.168,None,act,0.807,None,None,None,None,None,Britney Spears,"['left', 'lshift', 'b', 'r', 'i', 't', 'n', 'e', 'y', 'space', 'lshift', 's', 'p', 'e', 'a', 'r', 's', 'return']","[2.316158131992779, 3.3324488415255473, 3.68220718343764, 3.8987153162815957, 4.048871807817704, 4.26547457016386, 4.498574623061359, 4.581822602720422, 4.8983913305255555, 4.981740034469112, 5.16504251430888, 5.381461470875365, 5.581585227018877, 5.714875533332815, 6.031384917210744, 6.181107396145308, 6.281257488160918, 6.830891624838841]",2017_Feb_07_1327,60.0175773654,famFaceFilter,001,12,
53,./img/smoo15_GuentherJauch4_1.png,0,19,19,52,,,1.ja,1.803,None,None,None,host,0.789,None,None,None,Günther Jauch,"['lshift', 'g', u'\xfc', 'b', 'backspace', 'n', 't', 'h', 'e', 'r', 'space', 'lshift', 'j', 'a', 'u', 'c', 'h', 'return']","[0.46712683336591, 1.0001045736189553, 1.2501157206534117, 1.5500068806868512, 2.3995636136405665, 2.6325671123649954, 3.2659198099954665, 3.4158302648229437, 3.532460004598761, 3.58249014168905, 3.699095823116295, 3.8989013675072783, 4.2489176149119885, 4.415374439318839, 4.532049408790044, 4.648297101994103, 4.69874360889844, 5.415001374532949]",2017_Feb_07_1327,60.0175773654,famFaceFilter,001,12,
44,./img/smoo15_GuentherJauch2_1.png,0,20,20,43,,,1.ja,1.603,None,None,None,host,0.94,None,None,None,Günther Jauch,"['lshift', 'g', u'\xfc', 'n', 't', 'h', 'e', 'r', 'space', 'lshift', 'j', 'a', 'u', 'c', 'h', 'return']","[0.45029593372237287, 0.9167433593338501, 1.4329341465272591, 1.6330957544705598, 1.833002343924818, 1.9995172291455674, 2.0829384289136215, 2.2160943292547017, 2.282806204231747, 2.632381381918094, 2.715811242691416, 2.8493376415954117, 2.899178840458262, 3.065737351484131, 3.0913918909245695, 3.4654241438674944]",2017_Feb_07_1327,60.0175773654,famFaceFilter,001,12,
19,./img/smoo15_NicoleKidman7_1.png,0,21,21,18,,,1.ja,2.539,None,act,0.74,None,None,None,None,None,Scarlett Johannsson,"['lshift', 'd', 's', 'c', 'a', 'backspace', 'backspace', 'backspace', 'backspace', 'lshift', 's', 'c', 'a', 'r', 'l', 'e', 't', 't', 'space', 'lshift', 'j', 'o', 'h', 'a', 'n', 'n', 's', 's', 'o', 'n', 'return']","[0.3501496910430433, 0.8665560410354374, 1.0831299333658535, 1.3331908009859035, 1.4994294963689754, 1.76619551866861, 1.8995002599913278, 2.049534214340383, 2.1827975753039937, 2.3660041425264353, 2.5993595346935763, 2.8158413637429476, 3.065910571591303, 3.598998338691672, 3.8489235172291956, 3.9820348294324504, 4.215273458414231, 4.315171418938917, 4.448429326677797, 4.631803981561461, 4.881804222144638, 5.065074944963271, 5.298163449851927, 5.448150249838363, 5.531354282915345, 5.648044008172292, 5.83128650252911, 5.981227431264415, 6.880923365821218, 7.080549274545774, 7.597169904225666]",2017_Feb_07_1327,60.0175773654,famFaceFilter,001,12,
40,./img/smoo15_NeilPatrickHarris(Barney)2_2.png,0,22,22,39,,,2.nein,2.053,None,None,None,None,None,sport,0.89,None,,['return'],[1.0834388425555517],2017_Feb_07_1327,60.0175773654,famFaceFilter,001,12,
50,./img/smoo15_OmarEpps(DrEricForeman)2_2.png,0,23,23,49,,,2.nein,2.706,None,None,None,music,1.441,None,None,None,,['return'],[0.9499105189825059],2017_Feb_07_1327,60.0175773654,famFaceFilter,001,12,
22,./img/smoo15_WillSmith1_1.png,0,24,24,21,,,1.ja,1.291,None,None,None,music,1.607,None,None,None,Will Smith,"['lshift', 'w', 'i', 'l', 'l', 'space', 'lshift', 's', 'm', 'i', 't', 'h', 'return']","[0.4834432051375188, 1.0334035730174946, 1.2662463619763002, 1.4330444941515452, 1.5664807544453652, 1.8163655149564875, 1.999574969182504, 2.1493564712636726, 2.366236385782031, 2.499327809749957, 2.7159209487581393, 2.8658131192423753, 3.482375976809635]",2017_Feb_07_1327,60.0175773654,famFaceFilter,001,12,
24,./img/smoo15_BastianSchweinsteiger1_1.png,0,25,25,23,,,1.ja,1.823,None,None,None,None,None,sport,0.906,None,Schweini,"['lshift', 's', 'c', 'h', 'w', 'e', 'i', 'n', 'i', 'return']","[0.23350679936993401, 0.499928306122456, 0.7498579755520041, 0.8499509690864215, 0.9997786631975032, 1.1497962578687293, 1.2496967846182088, 1.3993509378433373, 1.4996020749204035, 2.1160776808792434]",2017_Feb_07_1327,60.0175773654,famFaceFilter,001,12,
64,./img/smoo15_JoachimLoew8_1.png,0,26,26,63,,,1.ja,1.322,None,None,None,None,None,sport,0.757,None,Jogi Löw,"['lshift', 'j', 'o', 'g', 'i', 'space', 'lshift', 'l', u'\xf6', 'w', 'delete', 'return']","[0.5502375200521783, 1.3831991251754516, 1.7164662713184953, 2.2993981242834707, 2.399249251224319, 2.5492575433345337, 2.6993479546072194, 2.782649504189976, 2.966040518749651, 3.099148302395406, 3.36565192830858, 3.5989816582368803]",2017_Feb_07_1327,60.0175773654,famFaceFilter,001,12,
46,./img/smoo15_NeilPatrickHarris(Barney)1_1.png,0,27,27,45,,,2.nein,2.657,None,None,None,None,None,polit,7.155,None,,['return'],[0.5334967590188171],2017_Feb_07_1327,60.0175773654,famFaceFilter,001,12,
67,./img/smoo15_GeorgeClooney4_2.png,0,28,28,66,,,1.ja,4.373,None,None,None,None,None,polit,0.619,None,,['return'],[0.8167228616221109],2017_Feb_07_1327,60.0175773654,famFaceFilter,001,12,
62,./img/smoo15_RobertSeanLeonard(Wilson)1_1.png,0,29,29,61,,,2.nein,4.522,None,None,None,None,None,sport,3.133,None,,['return'],[0.9332104967543273],2017_Feb_07_1327,60.0175773654,famFaceFilter,001,12,
57,./img/smoo15_UrsulavonderLeyen5_1.png,0,30,30,56,,,2.nein,2.523,None,None,None,None,None,polit,14.085,None,,['return'],[1.1167577301876008],2017_Feb_07_1327,60.0175773654,famFaceFilter,001,12,
32,./img/smoo15_TomCruise1_1.png,0,31,31,31,,,2.nein,18.033,None,None,None,music,1.537,None,None,None,,['return'],[0.6000716618000297],2017_Feb_07_1327,60.0175773654,famFaceFilter,001,12,
37,./img/smoo15_Ice-T(OdafinFinTutuola)5_1.png,0,32,32,36,,,1.ja,4.543,None,act,0.671,None,None,None,None,None,Morgan Freeman,"['lshift', 'm', 'o', 'r', 'g', 'e', 'n', 'a', 'backspace', 'backspace', 'backspace', 'a', 'n', 'space', 'lshift', 'f', 'r', 'e', 'e', 'm', 'a', 'n', 'n', 'backspace', 'return']","[0.500120772907394, 0.6835509223801637, 0.8333170271198469, 0.9667151148332778, 1.6996591092447488, 1.8997308993548359, 2.0495406298978196, 2.216169712079136, 2.449377867153089, 2.5993207205574436, 2.749179209351496, 2.774682983144885, 2.9658259182833717, 3.315457552893349, 3.598922314309675, 3.665567467467554, 3.8322270235548785, 3.9155410834791837, 4.0654310085155885, 4.231965781971667, 4.3485692179529, 4.431878466206399, 4.565273346141112, 5.131635091955104, 5.348157018252095]",2017_Feb_07_1327,60.0175773654,famFaceFilter,001,12,
33,./img/smoo15_Ice-T(OdafinFinTutuola)7_1.png,0,33,33,32,,,1.ja,1.968,None,act,0.624,None,None,None,None,None,Morgan Freeman,"['lshift', 'm', 'o', 'r', 'g', 'a', 'n', 'space', 'lshift', 'f', 'r', 'e', 'e', 'm', 'a', 'n', 'return']","[0.40016635545907775, 0.6835451483766519, 0.8498178462250507, 0.9667702886454208, 1.1333265542252775, 1.2496461016980902, 1.3498305169559899, 1.4998910958765919, 1.63289751368211, 2.065984992081212, 2.1829518695103616, 2.2824511030103167, 2.432831818352497, 2.5493553806172713, 2.682668141389513, 2.7825147774383368, 2.9991922810550022]",2017_Feb_07_1327,60.0175773654,famFaceFilter,001,12,
39,./img/smoo15_BarackObama2_1.png,0,34,34,38,,,1.ja,1.156,None,None,None,None,None,polit,1.274,None,Barack Obama,"['lshift', 'b', 'a', 'r', 'a', 'c', 'k', 'space', 'lshift', 'o', 'b', 'a', 'm', 'a', 'return']","[0.3669052078621462, 0.9165361367613514, 1.2165100575111865, 1.3662386312262242, 1.46639513880109, 1.6662991620305547, 1.8160800225559797, 1.9495384165293217, 2.06627946626395, 2.1661703696736367, 2.465984863769336, 2.6992427394307015, 2.915810216200043, 3.0324399559758604, 3.4823554470185627]",2017_Feb_07_1327,60.0175773654,famFaceFilter,001,12,
27,./img/smoo15_JasonSegel(Marshall)9_1.png,0,35,35,26,,,1.ja,4.005,None,act,1.254,None,None,None,None,None,Spielt bei How I met your mother,"['lshift', 's', 'p', 'i', 'e', 'l', 't', 'space', 'b', 'e', 'i', 'space', 'lshift', 'j', 'backspace', 'lshift', 'h', 'o', 'w', 'space', 'o', 'backspace', 'lshift', 'o', 'space', 'backspace', 'backspace', 'lshift', 'i', 'space', 'm', 'e', 't', 'space', 'x', 'p', 'o', 'u', 'backspace', 'backspace', 'backspace', 'backspace', 'y', 'o', 'u', 'r', 'space', 'm', 'o', 't', 'h', 'e', 'r', 'plus', 'return']","[0.3669449843309849, 0.5831483780984854, 0.7501162018215837, 0.9832602013011638, 1.1165540361726016, 1.249988692576153, 1.8662413578404085, 1.9497135613055434, 2.116079284767693, 2.182956360400567, 2.316084673837395, 2.399446850457025, 2.815831740403155, 2.998760193120688, 3.332235844949537, 3.4322646828895813, 3.515565270137813, 3.7155020127211174, 3.815387462906074, 3.9817102021188475, 4.381912163931702, 4.698477683956298, 4.81504455124923, 4.89847409124377, 5.114904595817279, 5.3981172257445, 5.53111498254475, 5.714748184476775, 5.981301851754324, 6.097839849027878, 6.314488161848203, 6.397784899761973, 6.597637277736794, 6.763754398267338, 7.346698761572043, 7.563336167941088, 7.780549049999536, 8.447010525687801, 8.596885694938464, 8.746750599293591, 8.813525346751703, 9.679745212468333, 9.962834342873975, 10.163004291045581, 10.27960516080384, 10.396150535971174, 10.62938467406093, 10.796037173035074, 11.062318499811227, 11.212533052159415, 11.29585256530845, 11.42899018130629, 11.51221955584333, 11.995487295427665]",2017_Feb_07_1327,60.0175773654,famFaceFilter,001,12,
42,./img/smoo15_OmarEpps(DrEricForeman)1_5.png,0,36,36,41,,,2.nein,8.085,None,None,None,music,0.905,None,None,None,,['return'],[0.616728379003689],2017_Feb_07_1327,60.0175773654,famFaceFilter,001,12,
15,./img/smoo15_LisaEdelstein(DrLisaCuddy)1_1.png,0,37,37,14,,,2.nein,6.438,None,act,4.065,None,None,None,None,None,,['return'],[0.5502044799213763],2017_Feb_07_1327,60.0175773654,famFaceFilter,001,12,
52,./img/smoo15_BastianSchweinsteiger3_1.png,0,38,38,51,,,1.ja,2.123,None,None,None,None,None,sport,1.14,None,Schweini,"['lshift', 's', 'c', 'h', 'w', 'e', 'i', 'n', 'i', 'return']","[0.2503101121092186, 0.4668734187653172, 0.6667893107805867, 0.800144735023423, 0.9500506989588757, 1.0999168864273088, 1.1832665527053905, 1.3333540769763204, 1.4331272548679408, 1.7664354605931294]",2017_Feb_07_1327,60.0175773654,famFaceFilter,001,12,
71,./img/smoo15_AngelaMerkel1_1.png,0,39,39,70,,,1.ja,1.406,None,None,None,None,None,polit,1.989,None,Angela Merkel,"['lshift', 'a', 'n', 'g', 'e', 'l', 'a', 'space', 'lshift', 'm', 'e', 'r', 'k', 'a', 'backspace', 'e', 'k', 'l', 'backspace', 'backspace', 'l', 'return']","[0.26687701147784537, 0.7000584778234042, 0.9000802265709353, 1.0999268305422447, 1.199973632048568, 1.366551068975241, 1.482979360182071, 1.6164438489377062, 1.78292312780286, 1.866198694367995, 2.082924956237548, 2.2327924268156494, 2.615804217652112, 2.8158984622223215, 3.3490805380461097, 3.632337114555412, 3.831836636756634, 4.381902540591909, 4.548605401707391, 5.181386472984741, 5.481379961191124]",2017_Feb_07_1327,60.0175773654,famFaceFilter,001,12,
70,./img/smoo15_JasonSegel(Marshall)7_1.png,0,40,40,69,,,1.ja,3.304,None,act,1.14,None,None,None,None,None,,['return'],[1.06664354926761],2017_Feb_07_1327,60.0175773654,famFaceFilter,001,12,
65,./img/smoo15_UrsulavonderLeyen4_1.png,0,41,41,64,,,2.nein,2.69,None,None,None,host,1.856,None,None,None,,['return'],[0.7333908381315268],2017_Feb_07_1327,60.0175773654,famFaceFilter,001,12,
68,./img/smoo15_AlysonHannigan(Lily)8_3.png,0,42,42,67,,,1.ja,3.073,None,act,0.957,None,None,None,None,None,Spielt bei How I met your mother mit,"['lshift', 's', 'a', 'p', 'o', 'backspace', 'backspace', 'backspace', 'p', 'i', 'e', 'l', 't', 'space', 'b', 'e', 'i', 'space', 'lshift', 'h', 'o', 'w', 'space', 'lshift', 'i', 'space', 'm', 'e', 't', 'space', 'y', 'o', 'u', 'r', 'space', 'm', 'o', 't', 'h', 'e', 'r', 'space', 'm', 'i', 't', 'return']","[0.9167818526912015, 1.0835068474862055, 1.1167141043824813, 1.3664484200235165, 1.716456006422959, 1.8664938101064763, 2.0163709040261892, 2.5161593509510567, 2.7320811016543303, 2.832489099162558, 2.965902584219293, 3.0825977627009706, 3.1822840097629523, 3.3821533889713464, 3.4657500542907655, 3.5491500827120035, 3.6990204402936797, 4.065568943045946, 4.465451409994785, 4.965119885957392, 5.081767910076451, 5.231783580080446, 5.515060044825077, 5.631337570383039, 5.797922385201673, 5.981500734100337, 6.081553309610172, 6.2478580852566665, 6.381224736729564, 7.09743983889166, 7.264338695351398, 7.464129804731783, 7.63075343368655, 7.730750193830318, 8.014068359711018, 8.16391048882906, 8.41382764791706, 8.580314304675994, 8.680256532563362, 8.780356583214598, 8.880318057777913, 9.113480662381335, 9.213641340069444, 9.346884812797725, 9.779899795375968]",2017_Feb_07_1327,60.0175773654,famFaceFilter,001,12,
54,./img/smoo15_LisaEdelstein(DrLisaCuddy)6_3.png,0,43,43,53,,,2.nein,2.437,None,act,3.422,None,None,None,None,None,,['return'],[0.5001522091497463],2017_Feb_07_1327,60.0175773654,famFaceFilter,001,12,
60,./img/smoo15_LeonardoDiCaprio2_1.png,0,44,44,59,,,1.ja,2.208,None,act,1.641,None,None,None,None,None,Leonardo di Caprio,"['lshift', 'l', 'e', 'o', 'n', 'a', 'r', 'd', 'o', 'space', 'd', 'i', 'e', 'space', 'lshift', 'backspace', 'backspace', 'space', 'lshift', 'c', 'a', 'p', 'r', 'o', 'backspace', 'i', 'o', 'return']","[0.5501210776474181, 0.6834543682107324, 0.9164450358166505, 1.0666602297224017, 1.3332613721413509, 1.6663376553897251, 1.7828371593059273, 1.8996596866454638, 2.0163660923572024, 2.5661041611001565, 2.915910298930612, 3.0490873706185084, 3.1158743076412065, 3.282400420092017, 3.5489829573871248, 3.9822503922314354, 4.132050820213408, 4.365355529458611, 4.531888057468677, 4.948184412693081, 5.065067246292529, 5.265020990107587, 5.398311937977269, 5.548117498407009, 5.96472276282293, 6.297872504228508, 6.38124943663388, 6.764149596734569]",2017_Feb_07_1327,60.0175773654,famFaceFilter,001,12,
1,./img/smoo15_Ice-T(OdafinFinTutuola)6_1.png,0,45,45,0,,,2.nein,4.019,None,None,None,None,None,sport,7.353,None,,['return'],[0.7166937029032852],2017_Feb_07_1327,60.0175773654,famFaceFilter,001,12,
61,./img/smoo15_OmarEpps(DrEricForeman)3_1.png,0,46,46,60,,,1.ja,4.54,None,act,1.584,None,None,None,None,None,Will Smith,"['lshift', 'w', 'i', 'l', 'l', 'space', 'lshift', 's', 'm', 'i', 't', 'h', 'return']","[0.2502748265324044, 0.46682947218323534, 0.7500555747847102, 0.9500205458298296, 1.0834260114370409, 1.216457449923837, 1.399624240679259, 1.5497784867693554, 1.766404986687121, 1.9326837793159939, 2.1661482359941147, 2.332751335157809, 2.7325946671953716]",2017_Feb_07_1327,60.0175773654,famFaceFilter,001,12,
16,./img/smoo15_WillSmith4_1.png,0,47,47,15,,,1.ja,1.186,None,act,0.572,None,None,None,None,None,Will Smith,"['lshift', 'w', 'i', 'l', 'l', 'space', 'lshift', 's', 'm', 'i', 't', 'g', 'h', 'backspace', 'backspace', 'h', 'return']","[0.7667305763316108, 1.233204947293416, 1.4165167296941945, 1.5999090273653565, 1.7496870008890255, 1.8497113479370455, 1.91616275119668, 2.016325674330801, 2.1994530093943467, 2.316196304573168, 2.5827477264047047, 2.716106999983822, 3.199090209502174, 3.3657536149257794, 3.9488195530848316, 4.298761059220851]",2017_Feb_07_1327,60.0175773654,famFaceFilter,001,12,
43,./img/smoo15_JoachimLoew1_1.png,0,48,48,42,,,1.ja,1.021,None,None,None,None,None,sport,0.873,None,Joachim Löw,"['lshift', 'j', 'o', 'a', 'c', 'h', 'i', 'm', 'space', 'lshift', 'l', u'\xf6', 'w', 'return']","[0.4502564780304965, 1.049891881782969, 1.349809666387955, 1.4664384438292473, 1.7329966019988206, 1.8829872513197188, 2.0328428531138343, 2.1995980010397034, 2.332507864673971, 2.3570698343264667, 2.932587866700487, 3.1989946176654485, 3.365773182382327, 3.915453190313201]",2017_Feb_07_1327,60.0175773654,famFaceFilter,001,12,
69,./img/smoo15_BritneySpears5_1.png,0,49,49,68,,,1.ja,1.54,None,act,3.172,None,None,None,None,None,Britney Spears,"['lshift', 'n', 'b', 'backspace', 'backspace', 'lshift', 'b', 'r', 'i', 'o', 't', 'n', 'e', 'y', 'space', 'backspace', 'backspace', 'backspace', 'backspace', 'backspace', 'backspace', 't', 'n', 'e', 'y', 'space', 'lshift', 's', 'p', 'e', 'a', 'r', 's', 'return']","[1.366108074591466, 1.63306495978577, 2.0829374665790965, 2.299498848566145, 2.4160163160504453, 2.732691221364803, 2.98253684696283, 3.165937164085335, 3.4323759928465734, 3.6822046172128466, 3.765451634539204, 3.982226975438607, 4.048667793023924, 4.282002013844249, 4.415342040743781, 4.5818322260602145, 4.831718911240387, 4.964961742414744, 5.131698285216771, 5.681459449973772, 5.931384307732515, 6.031209772436341, 6.381217679612746, 6.498638457878769, 6.631034755971996, 6.76426251058183, 6.914317636275882, 7.030862369887473, 7.347451306704897, 7.580627704759536, 7.780479761957395, 8.313615645753089]",2017_Feb_07_1327,60.0175773654,famFaceFilter,001,12,
23,./img/smoo15_JoachimLoew4_1.png,0,50,50,22,,,1.ja,1.221,None,None,None,host,0.889,None,None,None,Joachim Löw,"['left', 'left', 'down', 'left', 'down', 'lshift', 'j', 'o', 'a', 'c', 'h', 'i', 'space', 'lshift', 'backspace', 'backspace', 'm', 'backspace', 'i', 'm', 'space', 'lshift', 'l', u'\xf6', 'w', 'return']","[1.8829545319676981, 2.1994725768508943, 2.216172919859673, 2.3827311101067608, 2.4993303759747505, 3.498965009859603, 3.8821647765889793, 4.032353987478928, 4.132053707215164, 4.831666945208781, 4.931810621665136, 5.098347319788445, 5.414910915143992, 5.481552539744371, 5.731345878532011, 5.898047135757224, 6.097929025307167, 6.464122426839822, 6.764353611526531, 6.96423133096323, 7.114194072601094, 7.180885097008286, 7.297381713922732, 7.497251413909908, 7.613953328729622, 8.180392382037098]",2017_Feb_07_1327,60.0175773654,famFaceFilter,001,12,
13,./img/smoo15_GeorgeClooney3_1.png,0,51,51,12,,,2.nein,6.552,None,act,2.053,None,None,None,None,None,,['return'],[1.9163581049851928],2017_Feb_07_1327,60.0175773654,famFaceFilter,001,12,
55,./img/smoo15_MariskaHargitay(Liv)4_4.png,0,52,52,54,,,2.nein,2.94,None,None,None,host,0.59,None,None,None,,['return'],[0.9833452074653906],2017_Feb_07_1327,60.0175773654,famFaceFilter,001,12,
21,./img/smoo15_NeilPatrickHarris(Barney)3_7.png,0,53,53,20,,,2.nein,4.089,None,act,5.9,None,None,None,None,None,,['return'],[0.5336285987668816],2017_Feb_07_1327,60.0175773654,famFaceFilter,001,12,
49,./img/smoo15_TomCruise5_1.png,0,54,54,48,,,2.nein,1.94,None,None,None,None,None,sport,3.056,None,,['return'],[1.066613396136745],2017_Feb_07_1327,60.0175773654,famFaceFilter,001,12,
14,./img/smoo15_BritneySpears7_1.png,0,55,55,13,,,1.ja,1.04,None,None,None,music,0.639,None,None,None,Britney Spears,"['lshift', 'b', 'r', 'i', 't', 'n', 'e', 'y', 'space', 'lshift', 's', 'p', 'e', 'a', 'r', 's', 'return']","[0.7167248183668562, 0.7999028684280347, 1.0500529123273736, 1.1497179880407202, 1.3832283159699728, 1.632993747074579, 1.732641180000428, 2.016147321775861, 2.1662120708097063, 2.3494972286389384, 2.499337753866712, 2.682544962646716, 3.249038548208773, 3.6154157555229176, 3.7654811461143254, 3.88208843143002, 4.298549024979366]",2017_Feb_07_1327,60.0175773654,famFaceFilter,001,12,
38,./img/smoo15_AlysonHannigan(Lily)5_4.png,0,56,56,37,,,2.nein,13.18,None,dummy,1.635,None,None,None,None,None,,['return'],[0.8501780798942491],2017_Feb_07_1327,60.0175773654,famFaceFilter,001,12,
41,./img/smoo15_AngelaMerkel3_1.png,0,57,57,40,,,1.ja,1.057,None,None,None,None,None,polit,1.706,None,Angela Merkel,"['lshift', 'a', 'n', 'g', 'e', 'l', 'a', 'space', 'lshift', 'm', 'e', 'r', 'k', 'l', 'backspace', 'a', 'l', 'backspace', 'backspace', 'e', 'l', 'return']","[0.466838133188503, 0.7167379702641483, 0.9334161154365574, 1.1499114171620022, 1.2329868182714563, 1.3998183113544655, 1.4999074555544212, 1.632945630379254, 1.7830004352963442, 1.8996856696612667, 2.049427716052378, 2.1995790751407185, 2.3161106568550167, 2.516019170974687, 2.8992994529780844, 3.0324611273226765, 3.215862086000925, 3.632180895683632, 3.7987009133521497, 3.915429131966448, 4.282059433102404, 4.615151113694083]",2017_Feb_07_1327,60.0175773654,famFaceFilter,001,12,
56,./img/smoo15_MariskaHargitay(Liv)6_5.png,0,58,58,55,,,2.nein,2.868,None,None,None,music,1.789,None,None,None,,['return'],[0.5667428300494066],2017_Feb_07_1327,60.0175773654,famFaceFilter,001,12,
17,./img/smoo15_GeorgeClooney11_1.png,0,59,59,16,,,1.ja,1.49,None,act,0.673,None,None,None,None,None,George Clooney,"['lshift', 'g', 'e', 'o', 'r', 'g', 'e', 'space', 'lshift', 'c', 'l', 'o', 'o', 'n', 'e', 'y', 'return']","[0.31682342551721376, 0.7333035865231068, 0.9333221274901007, 1.1832466644700617, 1.3831741044923547, 1.6162796106145834, 1.6996469196819817, 1.8493283390344004, 1.9661335443634016, 2.082867857758174, 2.3493060449654877, 2.4994885195173993, 2.615913282164911, 2.815880819434824, 2.899252940171209, 3.148949724789418, 3.4819961756857083]",2017_Feb_07_1327,60.0175773654,famFaceFilter,001,12,
59,./img/smoo15_JoshRadnor(Ted)1_2.png,0,60,60,58,,,1.ja,7.32,None,None,None,music,1.735,None,None,None,Elvis Presley,"['lshift', 'e', 'l', 'v', 'i', 's', 'space', 'lshift', 'p', 'r', 'e', 's', 'l', 'e', 'y', 'return']","[0.3171288061512314, 0.5335621977264964, 0.916776399466471, 2.066352603642372, 2.1827703091748845, 2.299611120859481, 2.432778569207585, 2.6825292445264495, 2.8327171723030915, 3.5490596233230463, 3.898569041524752, 4.132119787478587, 4.831894376793571, 4.91514909279249, 5.148296300050788, 5.6981200165137125]",2017_Feb_07_1327,60.0175773654,famFaceFilter,001,12,
5,./img/smoo15_BarackObama1_3.png,0,61,61,4,,,1.ja,7.702,None,None,None,None,None,polit,2.136,None,Barack Obama,"['lshift', 'n', 'backspace', 'lshift', 'b', 'a', 'r', 's', 'a', 'c', 'backspace', 'backspace', 'backspace', 'a', 'c', 'k', 'space', 'lshift', 'o', 'b', 'a', 'm', 'a', 'return']","[0.650067154869248, 0.8000671067529765, 1.1160911535534979, 1.2163965021100012, 1.3497208108892664, 1.5331506395832548, 1.6665461610737111, 1.7830690817827417, 2.0989975367465377, 2.316117072414272, 2.6158728641403286, 2.6992276628661784, 2.882611620310854, 2.999175921378992, 3.2324055685785424, 3.3990150833014923, 3.565729813202779, 3.7989232124891714, 3.932033241580939, 4.31541970109356, 4.481999704243208, 4.581954763249087, 4.66490441939095, 4.831880262563573]",2017_Feb_07_1327,60.0175773654,famFaceFilter,001,12,
48,./img/smoo15_JoshRadnor(Ted)6_2.png,0,62,62,47,,,1.ja,2.402,None,act,0.54,None,None,None,None,None,,['return'],[0.4668419825229648],2017_Feb_07_1327,60.0175773654,famFaceFilter,001,12,
4,./img/smoo15_UrsulavonderLeyen1_1.png,0,63,63,3,,,1.ja,2.39,None,None,None,host,0.658,None,None,None,Anne Will,"['lshift', 'a', 'n', 'n', 'e', 'space', 'lshift', 'w', 'i', 'l', 'l', 'pound', 'return', 'pound']","[1.0999675693456084, 1.21716412380556, 1.5496363821239356, 1.6829241222148994, 1.7995907514577993, 1.9826465530313726, 2.16617453978688, 2.349410618584443, 2.59933098545298, 2.832593352004551, 2.949174654306262, 3.7488035783426312, 4.398719326007267]",2017_Feb_07_1327,60.0175773654,famFaceFilter,001,12,
45,./img/smoo15_RobertSeanLeonard(Wilson)2_6.png,0,64,64,44,,,2.nein,4.533,None,None,None,music,1.997,None,None,None,,['return'],[0.8504042283657327],2017_Feb_07_1327,60.0175773654,famFaceFilter,001,12,
26,./img/smoo15_TomCruise4_1.png,0,65,65,25,,,2.nein,3.323,None,act,4.556,None,None,None,None,None,,['return'],[0.5669660915209533],2017_Feb_07_1327,60.0175773654,famFaceFilter,001,12,
35,./img/smoo15_KatjaBurkard1_1.png,0,66,66,34,,,1.ja,1.24,None,None,None,host,1.173,None,None,None,Katja Burkhardt,"['lshift', 'l', 'a', 't', 'j', 'a', 'space', 'lshift', 'backspace', 'backspace', 'backspace', 'backspace', 'backspace', 'backspace', 'lshift', 'k', 'a', 't', 'j', 'a', 'space', 'lshift', 'b', 'u', 'r', 'k', 'h', 'a', 's', 'backspace', 'r', 'd', 't', 'return']","[0.333178290644355, 0.6000302814409224, 0.7667341048891103, 1.1664988463217014, 1.4164666883298196, 1.499861263524508, 1.5831377924241679, 1.7996468876026483, 1.9996339923291089, 2.1161681402663817, 2.2662614385408233, 3.232176533101665, 3.382460694272595, 3.5489678808207827, 3.865478227035055, 4.04849072358229, 4.14873352043287, 4.315343355934601, 4.565205341210458, 4.665338111213714, 4.831806162850626, 4.9484615648634644, 5.06502362048559, 5.281618363384041, 5.997919113266107, 6.53098923757716, 6.881060658794013, 6.964205989501352, 7.180903702130308, 7.947268591569809, 8.146987205129335, 8.33049466209377, 8.41352194650608, 9.080188720099613]",2017_Feb_07_1327,60.0175773654,famFaceFilter,001,12,
10,./img/smoo15_KatjaBurkard5_3.png,0,67,67,9,,,1.ja,1.419,None,None,None,host,1.406,None,None,None,Katja Burkhardt,"['lshift', 'k', 'a', 't', 'j', 'k', 'a', 'backspace', 'backspace', 'a', 'space', 'lshift', 'b', 'u', 'r', 'g', 'backspace', 'k', 'h', 'a', 's', 'backspace', 'r', 'd', 't', 'return']","[0.3337521624434885, 0.7002050733590295, 0.8833846952329623, 1.0665521275423089, 1.3163769025741203, 1.4164394222007104, 1.6997492478549248, 1.8329109222013358, 2.316055803819836, 2.499338716201237, 2.632581868152556, 3.0155692798616656, 3.5655761605503358, 3.698830218952935, 3.8988032094475784, 4.381876557576106, 4.565163640072569, 4.898337760603681, 4.998057368573427, 5.164936336797837, 5.814640691776731, 6.197616234700035, 6.4145359256890515, 6.514442547220824, 7.030903429467799]",2017_Feb_07_1327,60.0175773654,famFaceFilter,001,12,
11,./img/smoo15_LeonardoDiCaprio3_1.png,0,68,68,10,,,1.ja,1.387,None,act,1.039,None,None,None,None,None,Leonardo di Caprio,"['lshift', 'l', 'e', 'o', 'n', 'a', 'r', 'd', 'o', 'space', 'd', 'i', 'space', 'lshift', 'c', 'a', 'p', 'r', 'o', 'p', 'insert', 'backspace', 'backspace', 'i', 'o', 'return']","[0.36685644961107755, 0.6002246728949103, 0.8165852478705347, 0.9834276474048238, 1.1999858216131543, 1.416221613955713, 1.599717202136162, 2.2659496423493692, 2.4495145185719593, 2.6991936604008515, 2.982457294026972, 3.082332479316392, 3.6490300796722295, 3.865558421528476, 3.9986995660838147, 4.132020025528618, 4.3653808709186706, 4.565313443388732, 4.648620766973181, 4.93182954756594, 5.2482349993788375, 5.581561489449086, 5.748033390422279, 6.264616168300563, 6.331142312828888, 6.614455667040602]",2017_Feb_07_1327,60.0175773654,famFaceFilter,001,12,
51,./img/smoo15_LeonardoDiCaprio1_1.png,0,69,69,50,,,1.ja,1.37,None,act,0.456,None,None,None,None,None,Leonardo die Caprio,"['lshift', 'l', 'e', 'o', 'n', 'a', 'r', 'd', 'o', 'space', 'd', 'i', 'e', 'space', 'lshift', 'c', 'a', 'p', 'r', 'i', 'o', 'return']","[0.7001498995487054, 1.0832790951244533, 1.3327869415134046, 1.4833553119715361, 1.7331460845362017, 1.8496635520186828, 2.1163124903559947, 2.2163284971775283, 2.4662058797966893, 2.68279132013231, 2.849419119202139, 2.9660523875336366, 3.032499620680028, 3.1825528217068495, 3.3824420891505724, 3.5155023976549273, 3.6323213964369643, 3.9820893616870308, 4.148875945853433, 5.21518043280048, 5.331691484723706, 5.698077032264337]",2017_Feb_07_1327,60.0175773654,famFaceFilter,001,12,
2,./img/smoo15_WillSmith5_1.png,0,70,70,1,,,1.ja,1.218,None,None,None,music,1.256,None,None,None,Will Smith,"['lshift', 'w', 'i', 'l', 'l', 'space', 'lshift', 's', 'm', 'i', 't', 'h', 'return']","[0.3169007330106979, 0.48349645428061194, 0.7165073309006402, 0.8999618594989442, 1.0500288539788016, 1.2165151899607736, 1.3663672631973895, 1.516550700082007, 1.7497790641700703, 1.866195807368058, 2.166278792630692, 2.3328068297487334, 2.6827316554299614]",2017_Feb_07_1327,60.0175773654,famFaceFilter,001,12,
9,./img/smoo15_EmilyDeschanel6_12.png,0,71,71,8,,,1.ja,5.104,None,act,0.652,None,None,None,None,None,Scarlett  Johannsson,"['lshift', 's', 'c', 'a', 'r', 'l', 'e', 'z', 'z', 'space', 'backspace', 'backspace', 'backspace', 't', 't', 'space', 'space', 'lshift', 'j', 'o', 'h', 'a', 'n', 'n', 's', 's', 'o', 'n', 'return']","[1.7830395702076203, 1.8826735304592148, 2.099711588520222, 2.3328498139962903, 2.5826765136953327, 2.816028056524374, 2.9660421226381004, 3.049247118049607, 3.19910047439771, 3.3656875346641755, 4.032133933786099, 4.1821197714380105, 4.265108562494788, 4.881637417594902, 5.0149697458255105, 5.164900730442241, 5.231568017279642, 5.281550358453387, 5.54816304887936, 5.7978107544659, 6.097936403199128, 6.247857122922142, 6.331095479243231, 6.464551627770561, 6.74754741178549, 6.897748812238206, 6.997532255027181, 7.147487297994303, 7.430789104198993]",2017_Feb_07_1327,60.0175773654,famFaceFilter,001,12,
9,./img/edges5_RobertSeanLeonard(Wilson)8_1.png,0,0,0,8,,,2.nein,6.66,None,None,None,music,10.431,None,None,None,,['return'],[0.6667812913292437],2017_Feb_07_1327,60.0175773654,famFaceFilter,001,12,
59,./img/edges5_BastianSchweinsteiger3_1.png,0,1,1,58,,,1.ja,1.839,None,None,None,None,None,sport,1.972,None,Schweinsteiger,"['lshift', 's', 'c', 'h', 'w', 'e', 'i', 'n', 's', 't', 'e', 'i', 'h', 'e', 'r', 'backspace', 'backspace', 'backspace', 'backspace', 'i', 'g', 'e', 'r', 'return']","[0.13356745848614082, 0.4001987540341361, 0.6000492073417263, 0.7501011252570606, 0.866718033912548, 1.016603147281785, 1.0999322837687942, 1.2496146654557378, 1.349809666387955, 1.549660761251289, 1.7662952806185785, 1.8830058564435603, 2.04938986425077, 2.1327122643997427, 2.1827744792899466, 2.5327195139834657, 2.6827165788636194, 2.832557104093212, 2.9491172350481065, 3.7153560587430547, 3.9655086688635492, 4.082083876382967, 4.1486443441554, 5.08162580543285]",2017_Feb_07_1327,60.0175773654,famFaceFilter,001,12,
5,./img/edges5_AlysonHannigan(Lily)1_1.png,0,2,2,4,,,1.ja,1.75,None,act,1.038,None,None,None,None,None,Spielt bei How I met your mother mit,"['lshift', 's', 'p', 'i', 'e', 'l', 't', 'space', 'b', 'e', 'i', 'space', 'lshift', 'h', 'o', 'w', 'space', 'lshift', 'i', 'space', 'm', 'e', 't', 'space', 'y', 'o', 'u', 'r', 'space', 'm', 'o', 't', 'h', 'e', 'r', 'space', 'm', 'i', 't', 'return']","[0.4501759627582942, 1.5665731385015533, 1.766387985453548, 1.9662775736724143, 2.0663272621823126, 2.1661822384594416, 2.2995501730438264, 2.399418942772172, 2.582651813791017, 2.6659803087222826, 2.7827518323629192, 2.932642719733849, 3.1490546191853355, 3.3321450647817983, 3.6156540935589874, 3.932145513870637, 4.032584947621217, 4.1984954871350055, 4.282104342017192, 4.465315400133477, 4.748524501503198, 4.881826676601122, 5.065114079874547, 5.4982628268680855, 6.03209030798098, 6.181250142344652, 6.347930228223049, 6.447696028222708, 6.581028035674535, 6.814227208964439, 6.997653188323966, 7.214220023537564, 7.34735892264689, 7.563936343534806, 7.613963272846377, 7.747186215785405, 8.113839612935408, 8.19714757807742, 8.313704501251777, 8.513492402853444]",2017_Feb_07_1327,60.0175773654,famFaceFilter,001,12,
6,./img/edges5_GuentherJauch3_1.png,0,3,3,5,,,1.ja,1.217,None,act,0.606,None,None,None,None,None,Günther Jauch,"['left', 'lshift', 'g', u'\xfc', 'n', 't', 'e', 'h', 'backspace', 'backspace', 'h', 'e', 'r', 'space', 'lshift', 'j', 'a', 'u', 'c', 'h', 'delete', 'return']","[1.0999265097652824, 2.6493348187486845, 2.766062075030277, 2.9992545119839633, 3.2157151696865185, 3.565784024680397, 3.6822739052568068, 3.832093259139583, 4.165448298450428, 4.282023185191065, 4.465295191121186, 4.5486859169814124, 4.615231628966285, 4.748033069643498, 5.031670730390033, 5.198310398242029, 5.281846757303356, 5.397928287517061, 5.4982788657671335, 5.598345876287567, 6.147944727388676, 6.598218527429708]",2017_Feb_07_1327,60.0175773654,famFaceFilter,001,12,
71,./img/edges5_HughLaurie(DrHouse)4_1.png,0,4,4,70,,,1.ja,12.08,None,act,1.168,None,None,None,None,None,,['return'],[0.7167732558427815],2017_Feb_07_1327,60.0175773654,famFaceFilter,001,12,
13,./img/edges5_MariskaHargitay(Liv)6_5.png,0,5,5,12,,,2.nein,7.07,None,None,None,music,2.648,None,None,None,,['return'],[0.550269277073312],2017_Feb_07_1327,60.0175773654,famFaceFilter,001,12,
46,./img/edges5_TomCruise5_1.png,0,6,6,45,,,2.nein,3.438,None,act,2.639,None,None,None,None,None,,['return'],[0.5833831875770557],2017_Feb_07_1327,60.0175773654,famFaceFilter,001,12,
1,./img/edges5_BastianSchweinsteiger6_2.png,0,7,7,0,,,1.ja,5.137,None,None,None,None,None,sport,1.2,None,Schweini,"['lshift', 's', 'c', 'h', 'w', 'e', 'i', 'n', 'i', 'return']","[0.15048849674167286, 0.36704218005797884, 0.600232371565653, 0.7169018878103088, 0.8667998322980566, 1.0167632154916646, 1.1166608552393882, 1.2834432692925475, 1.3833373804827716, 1.6498689140807983]",2017_Feb_07_1327,60.0175773654,famFaceFilter,001,12,
19,./img/edges5_HughLaurie(DrHouse)2_1.png,0,8,8,18,,,2.nein,2.921,None,dummy,0.921,None,None,None,None,None,,['return'],[0.6832202002860868],2017_Feb_07_1327,60.0175773654,famFaceFilter,001,12,
56,./img/edges5_NeilPatrickHarris(Barney)1_1.png,0,9,9,55,,,1.ja,3.239,None,act,0.523,None,None,None,None,None,,['return'],[0.9334193232170946],2017_Feb_07_1327,60.0175773654,famFaceFilter,001,12,
40,./img/edges5_NicoleKidman3_1.png,0,10,10,39,,,1.ja,4.621,None,act,0.934,None,None,None,None,None,Scarlett Johannsson,"['lshift', 's', 'c', 'a', 'r', 'l', 'e', 'z', 'backspace', 't', 't', 'space', 'lshift', 'j', 'o', 'h', 'a', 'n', 'n', 's', 'o', 's', 'backspace', 'backspace', 's', 'o', 'n', 'return']","[0.8333285751268704, 0.950187350377746, 1.2167416592110385, 1.299968788303886, 1.4334669587460667, 2.0332640345986874, 2.1498074850987905, 2.366356677523072, 2.7496327894114074, 2.8660742325155297, 3.0327199951498187, 3.182595485179263, 3.599175728912087, 3.7490422371574823, 3.9155600093799876, 4.098889434568264, 4.23223587702887, 4.348978209873167, 4.46547803456815, 4.548753280356323, 4.715406741663173, 4.865341575618004, 5.048638923008184, 5.181805409023582, 5.281825906735321, 5.615033067399054, 5.748283918021116, 5.998277743045037]",2017_Feb_07_1327,60.0175773654,famFaceFilter,001,12,
31,./img/edges5_GeorgeClooney4_2.png,0,11,11,30,,,1.ja,5.314,None,None,None,None,None,polit,0.734,None,,['return'],[0.8165393766194029],2017_Feb_07_1327,60.0175773654,famFaceFilter,001,12,
65,./img/edges5_LisaEdelstein(DrLisaCuddy)1_1.png,0,12,12,64,,,2.nein,3.406,None,dummy,7.771,None,None,None,None,None,,['return'],[0.683655496000938],2017_Feb_07_1327,60.0175773654,famFaceFilter,001,12,
58,./img/edges5_HughLaurie(DrHouse)5_3.png,0,13,13,57,,,2.nein,3.122,None,act,1.922,None,None,None,None,None,,['return'],[0.766733784110329],2017_Feb_07_1327,60.0175773654,famFaceFilter,001,12,
34,./img/edges5_KatjaBurkard1_1.png,0,14,14,33,,,1.ja,1.722,None,None,None,host,0.739,None,None,None,Katja Burkhardt,"['lshift', 'k', 'a', 't', 'j', 'a', 'space', 'lshift', 'b', 'u', 'r', 'k', 'h', 'a', 'r', 't', 's', 'backspace', 'backspace', 'd', 't', 'return']","[0.4668625123140373, 0.7167071755775396, 0.8832826878369815, 1.0500234007522522, 1.2666171813161782, 1.4164115145176766, 1.4998545271864714, 1.8329038650845177, 2.0827270362260606, 2.349275250278879, 2.4493262218984455, 3.315671832580847, 3.6986823403058224, 3.78209680373584, 4.032393443168985, 4.1153289850808505, 4.5818553220742615, 4.698556916117013, 5.081656920896421, 5.214991494571223, 5.848140818965476]",2017_Feb_07_1327,60.0175773654,famFaceFilter,001,12,
16,./img/edges5_BritneySpears7_1.png,0,15,15,15,,,1.ja,1.449,None,None,None,music,0.822,None,None,None,Britney Spears,"['lshift', 'b', 'r', 'i', 't', 'n', 'e', 'y', 'space', 'lshift', 's', 'p', 'e', 'a', 'r', 's', 'return']","[0.3668493924942595, 0.616952923586723, 0.8000975806608039, 0.9334815541442367, 1.1500310673472995, 1.4333165138759796, 1.566468564880779, 1.882997516217074, 1.982910553306283, 2.1163554746053705, 2.2995174536899867, 2.5495298838377494, 2.6825260367459123, 2.9325580343502224, 3.1325598948624247, 3.2492053527585085, 3.682242148237492]",2017_Feb_07_1327,60.0175773654,famFaceFilter,001,12,
22,./img/edges5_JasonSegel(Marshall)6_1.png,0,16,16,21,,,1.ja,7.536,None,act,0.498,None,None,None,None,None,,['return'],[0.4670261090814165],2017_Feb_07_1327,60.0175773654,famFaceFilter,001,12,
32,./img/edges5_Ice-T(OdafinFinTutuola)7_1.png,0,17,17,31,,,1.ja,1.706,None,act,0.856,None,None,None,None,None,Morgan Freeman,"['lshift', 'm', 'o', 'r', 'g', 'a', 'n', 'space', 'lshift', 'f', 'r', 'e', 'e', 'm', 'a', 'n', 'return']","[0.3836347416654462, 0.5668900671407755, 0.7166353213106049, 0.8668364009863581, 1.0333140759612434, 1.1499845545404241, 1.2498931007394276, 1.3996662625922909, 1.5831673039992893, 1.8330671410749346, 1.9829461596618785, 2.066275616927669, 2.2494757685908553, 2.3661196225984895, 2.582731045949913, 2.6822918688230857, 3.2658518050648127]",2017_Feb_07_1327,60.0175773654,famFaceFilter,001,12,
27,./img/edges5_OmarEpps(DrEricForeman)2_2.png,0,18,18,26,,,2.nein,2.988,None,dummy,5.87,None,None,None,None,None,,['return'],[0.5669227864964341],2017_Feb_07_1327,60.0175773654,famFaceFilter,001,12,
2,./img/edges5_OmarEpps(DrEricForeman)1_5.png,0,19,19,1,,,2.nein,3.356,None,None,None,music,1.737,None,None,None,,['return'],[1.2165325119694899],2017_Feb_07_1327,60.0175773654,famFaceFilter,001,12,
33,./img/edges5_BarackObama2_1.png,0,20,20,32,,,1.ja,1.256,None,None,None,None,None,polit,1.672,None,Barack Obama,"['lshift', 'b', 'a', 'r', 'a', 'c', 'k', 'space', 'lshift', 'o', 'n', 'b', 'backspace', 'backspace', 'b', 'a', 'm', 'a', 'return']","[0.28355842858582037, 0.6335878278860037, 0.7666648168469692, 0.9333551676209026, 0.999775455415147, 1.199954385370802, 1.333210368442451, 1.466421121816893, 1.5498711916025059, 1.6497980221465696, 1.8331572796869295, 2.2493997442106775, 2.599196900257084, 2.9164241852467967, 3.0324822986694926, 3.149173627814889, 3.2657764222403785, 3.4323423111600277]",2017_Feb_07_1327,60.0175773654,famFaceFilter,001,12,
15,./img/edges5_LisaEdelstein(DrLisaCuddy)6_3.png,0,21,21,14,,,1.ja,3.022,None,dummy,0.556,None,None,None,None,None,,['return'],[1.0999617953420966],2017_Feb_07_1327,60.0175773654,famFaceFilter,001,12,
66,./img/edges5_BritneySpears1_1.png,0,22,22,65,,,1.ja,1.473,None,None,None,music,1.289,None,None,None,Britney Spears,"['lshift', 'b', 'r', 'i', 't', 'n', 'e', 'x', 'backspace', 'y', 'space', 'lshift', 's', 'p', 'e', 'e', 'backspace', 'e', 'backspace', 'a', 'r', 's', 'return']","[0.16752244884446554, 0.5841456768266653, 0.8174167043835041, 0.9504795791126526, 1.2001545508283016, 1.433739940803207, 1.5503430560056586, 1.8336965074649925, 2.1667224285702105, 2.2668449336797494, 2.5667267911521776, 2.6999211848506093, 2.8830491614698985, 3.1830307808922953, 3.3163772233510826, 3.4996803447465936, 3.9826696490454196, 4.0825214175438305, 4.549152328158016, 4.932276712062958, 5.61526146131655, 5.698532216212698, 6.198571832292146]",2017_Feb_07_1327,60.0175773654,famFaceFilter,001,12,
41,./img/edges5_OmarEpps(DrEricForeman)3_1.png,0,23,23,40,,,2.nein,3.265,None,None,None,music,3.054,None,None,None,,['return'],[0.7834212960005971],2017_Feb_07_1327,60.0175773654,famFaceFilter,001,12,
36,./img/edges5_AngelaMerkel1_1.png,0,24,24,35,,,1.ja,3.256,None,None,None,None,None,polit,1.189,None,Angela Merkel,"['lshift', 'a', 'n', 'g', 'e', 'l', 'a', 'space', 'lshift', 'lshift', 'm', 'e', 'r', 'k', 'e', 'l', 'delete', 'return']","[0.28356452336629445, 0.5002208556361438, 0.7500847655792313, 0.9666086165452725, 1.0498030262824614, 1.1831392038475315, 1.333122154497687, 1.4497676123937708, 1.6163527479930053, 2.1494074749607535, 2.216094650031664, 3.0650900215277943, 3.098374265136954, 3.3991215815894975, 3.664874907815829, 3.7821574307727133, 4.064516149726842, 4.597822687406733]",2017_Feb_07_1327,60.0175773654,famFaceFilter,001,12,
72,./img/edges5_EmilyDeschanel6_12.png,0,25,25,71,,,1.ja,2.74,None,act,0.557,None,None,None,None,None,,['return'],[0.8666907677852578],2017_Feb_07_1327,60.0175773654,famFaceFilter,001,12,
64,./img/edges5_EmilyDeschanel3_1.png,0,26,26,63,,,2.nein,1.356,None,act,2.622,None,None,None,None,None,,['return'],[0.5670523807984864],2017_Feb_07_1327,60.0175773654,famFaceFilter,001,12,
21,./img/edges5_JoshRadnor(Ted)3_1.png,0,27,27,20,,,1.ja,1.79,None,act,1.523,None,None,None,None,None,Spielt bei How I met your mother,"['lshift', 's', 'p', 'i', 'e', 'l', 't', 'space', 'b', 'e', 'i', 'space', 'lshift', 't', 'h', 'e', 'space', 'backspace', 'backspace', 'backspace', 'backspace', 'backspace', 'space', 'lshift', 'h', 'o', 'w', 'space', 'lshift', 'i', 'space', 'm', 'e', 't', 'space', 'y', 'o', 'u', 'r', 'space', 'm', 'o', 't', 'h', 'e', 'r', 'return']","[0.4336170828391914, 0.6667007760588604, 0.9166865816332574, 1.1165027116967394, 1.2166415764822887, 1.3331529491842957, 1.4497124385834468, 1.5330428581837623, 1.7497951030672994, 1.8329256779888965, 1.9497324872063473, 2.099579427995195, 3.3822679067088757, 4.481937473314247, 4.665022786462941, 4.765062851633047, 4.898430786217432, 5.331615781122309, 5.48135943140187, 5.631537415061757, 5.781355485833046, 5.91459222222511, 6.314479180065973, 6.430991515100686, 6.547748603734362, 6.747406911032158, 6.88101639143315, 7.030644561642475, 7.197209809004562, 7.2807808120869595, 7.46392546916104, 7.6307518297981005, 7.730671282448384, 7.880538753026485, 8.013738920730248, 8.547071762202904, 8.763563214592068, 8.996777785227096, 9.163225627849897, 9.33007251827621, 9.647070767790865, 9.813135280734059, 10.046453783432298, 10.179667744587277, 10.312774245121545, 10.412848954310903, 10.962546605029274]",2017_Feb_07_1327,60.0175773654,famFaceFilter,001,12,
70,./img/edges5_BastianSchweinsteiger1_1.png,0,28,28,69,,,1.ja,5.182,None,None,None,None,None,sport,1.518,None,Schweini,"['lshift', 's', 'c', 'h', 'w', 'e', 'i', 'n', 'i', 'return']","[0.6002452026841638, 0.9499509370089072, 1.3165975978208735, 1.4162543333095527, 1.5331785472662887, 1.699613237993617, 1.8329981738097558, 2.1993917407999106, 2.3661237927117327, 3.0825422681118653]",2017_Feb_07_1327,60.0175773654,famFaceFilter,001,12,
53,./img/edges5_KatjaBurkard4_1.png,0,29,29,52,,,1.ja,1.939,None,None,None,host,1.055,None,None,None,Katja Burkhardt,"['lshift', 'k', 'a', 't', 'j', 'a', 'space', 'lshift', 'v', 'backspace', 'lshift', 'b', 'u', 'r', 'k', 'h', 'a', 'r', 'd', 't', 'return']","[0.31700594818721584, 0.550252275839739, 1.233240232872049, 1.4998044858239155, 1.6829071209831454, 1.7997023821935727, 1.8997065202293015, 2.1160857003287674, 2.4325084741522005, 2.7660097882198897, 2.8489222341158893, 2.982553527419441, 3.632371117022558, 3.732149106586803, 4.915054463290289, 5.348174019487487, 5.54811396984951, 5.948058988504272, 6.064390083984108, 6.1478257187591225, 6.697702363589997]",2017_Feb_07_1327,60.0175773654,famFaceFilter,001,12,
38,./img/edges5_GeorgeClooney11_1.png,0,30,30,37,,,1.ja,1.383,None,act,0.524,None,None,None,None,None,George Clooney,"['lshift', 'g', 'd', 'e', 'backspace', 'backspace', 'e', 'o', 'r', 'g', 'e', 'space', 'lshift', 'c', 'l', 'o', 'o', 'n', 'e', 'y', 'return']","[0.5168932909600699, 0.7169567408436706, 0.9168229122733464, 1.466414064701894, 1.7164351558549242, 1.849724820613119, 1.8997677888219187, 2.0163458833430923, 2.2662226244065096, 2.9492192424440873, 2.9992156978478306, 3.132530062510341, 3.3323846859311743, 3.6157612334045552, 3.8988635157074896, 4.065564452153922, 4.198515696147297, 4.415236184011519, 4.482039159933265, 4.8320034413063695, 5.115142933855168]",2017_Feb_07_1327,60.0175773654,famFaceFilter,001,12,
44,./img/edges5_EmilyDeschanel5_1.png,0,31,31,43,,,2.nein,5.015,None,act,4.48,None,None,None,None,None,,['return'],[0.6668585988227278],2017_Feb_07_1327,60.0175773654,famFaceFilter,001,12,
4,./img/edges5_LeonardoDiCaprio1_1.png,0,32,32,3,,,1.ja,1.656,None,act,0.455,None,None,None,None,None,Leonardo di Caprop,"['lshift', 'l', 'e', 'o', 'n', 'a', 'r', 'd', 'o', 'space', 'd', 'i', 'e', 'backspace', 'space', 'lshift', 'c', 'a', 'p', 'r', 'o', 'p', 'return']","[0.33370853664018796, 0.5840795965632424, 0.7839637315591972, 0.93399704435069, 1.1339379570490564, 1.3005275835366774, 1.4671345320384717, 1.6003850618817523, 1.7836612379269354, 1.9335745797561685, 2.1002886680998927, 2.2169421454455005, 2.300164462867542, 2.6166568455137167, 2.899968595835162, 3.1331209355430474, 3.333118946718969, 3.449710513914397, 3.8829160386103467, 4.066123247388532, 4.199143458647086, 4.316018914352753, 4.632664308093808]",2017_Feb_07_1327,60.0175773654,famFaceFilter,001,12,
10,./img/edges5_GuentherJauch4_1.png,0,33,33,9,,,1.ja,3.564,None,None,None,host,1.123,None,None,None,Günther Jauch,"['lshift', 'g', u'\xfc', 'n', 't', 'h', 'e', 'r', 'space', 'lshift', 'j', 'a', 'u', 'c', 'h', 'return']","[0.20043362766955397, 0.566942674729944, 0.8168133210110682, 1.0665174835230573, 1.3164834008621256, 1.466430103600942, 1.5996985970141395, 1.7163068446643592, 1.766091265824798, 2.066262465032196, 2.2828979467321915, 2.449420851402465, 2.516186937857128, 2.6492587943685066, 2.6993809947398404, 3.149134492903613]",2017_Feb_07_1327,60.0175773654,famFaceFilter,001,12,
62,./img/edges5_AlysonHannigan(Lily)5_4.png,0,34,34,61,,,1.ja,1.723,None,act,0.407,None,None,None,None,None,Spielt bei How I met your mother,"['lshift', 's', 'p', 'i', 'e', 'l', 't', 'space', 'b', 'e', 'i', 'space', 'lshift', 'j', 'h', 'backspace', 'backspace', 'lshift', 'h', 'o', 'w', 'space', 'lshift', 'i', 'space', 'm', 'e', 't', 'space', 'y', 'o', 'u', 'r', 'space', 'm', 'i', 'o', 'backspace', 'backspace', 'o', 't', 'h', 'e', 'r', 'return']","[0.7667203114378935, 1.649771397575023, 1.949617969468818, 2.16614374510209, 2.2661462792493694, 2.39932944571774, 2.4992982981766545, 2.5992463000675343, 2.8991002498551097, 3.065874644458745, 3.14921949906784, 3.415595776124974, 4.198643045005156, 4.315556994066355, 4.848151725416756, 5.015018504078398, 5.11493025805612, 5.248057609158423, 5.448328281614522, 5.5480603999276354, 5.6981902668903786, 5.864632014732706, 5.964834393558704, 6.0978796254985355, 6.264585052836992, 6.381235963959625, 6.530626116909843, 6.681049174943837, 7.280459713334494, 7.347339675969124, 7.564047011937873, 7.680401203431757, 7.780545521442036, 8.047166872873277, 8.180637135632423, 8.930121725619756, 9.113547384200501, 9.579989035808467, 9.849141646252974, 10.013019094951233, 10.112983777295085, 10.179384818413382, 10.76271732307032]",2017_Feb_07_1327,60.0175773654,famFaceFilter,001,12,
24,./img/edges5_JasonSegel(Marshall)7_1.png,0,35,35,23,,,1.ja,1.818,None,act,0.707,None,None,None,None,None,,['return'],[1.0501250873712706],2017_Feb_07_1327,60.0175773654,famFaceFilter,001,12,
50,./img/edges5_WillSmith5_1.png,0,36,36,49,,,1.ja,1.34,None,None,None,music,0.49,None,None,None,Will Smith,"['lshift', 'w', 'i', 'l', 'l', 'space', 'lshift', 's', 'm', 'i', 't', 'h', 'return']","[0.4999619878090016, 0.6834194034108805, 0.9667061330492288, 1.1665742291461356, 1.3166158821659337, 1.4497281567037135, 1.5664448273109883, 1.7163408471296862, 1.9663295397058391, 2.132863992383136, 2.3495283441025094, 2.4661462150925217, 2.949150916734652]",2017_Feb_07_1327,60.0175773654,famFaceFilter,001,12,
23,./img/edges5_UrsulavonderLeyen1_1.png,0,37,37,22,,,1.ja,2.123,None,None,None,host,0.673,None,None,None,,"['lshift', 'a', 'n', 'n', 'e', 'space', 'lshift', 'w', 'i', 'backspace', 'backspace', 'backspace', 'backspace', 'backspace', 'backspace', 'backspace', 'backspace', 'return']","[0.4169927642124094, 0.5335634808398027, 0.800104637777622, 0.9501222324488481, 1.0168360320931242, 1.3000335854558216, 1.400008211916429, 1.5830370681414934, 1.7164515155327535, 10.812813219647069, 12.012282588717426, 12.162340280636272, 12.312171824081815, 12.478543321547477, 12.712021571678633, 12.862171968432449, 13.061924905234264, 16.127409483673546]",2017_Feb_07_1327,60.0175773654,famFaceFilter,001,12,
29,./img/edges5_TomCruise4_1.png,0,38,38,28,,,2.nein,4.949,None,act,1.617,None,None,None,None,None,,['return'],[1.5164952054929017],2017_Feb_07_1327,60.0175773654,famFaceFilter,001,12,
28,./img/edges5_Ice-T(OdafinFinTutuola)5_1.png,0,39,39,27,,,1.ja,1.291,None,dummy,0.691,None,None,None,None,None,Morgan Freeman,"['lshift', 'm', 'o', 'r', 'g', 'n', 'backspace', 'a', 'n', 'space', 'lshift', 'f', 'r', 'e', 'e', 'm', 'a', 'n', 'n', 'backspace', 'return']","[0.6667312499648688, 0.7500116282008094, 0.9333651117376576, 1.0831761253921286, 1.1832383242417563, 1.4165404672639852, 1.8658554619341885, 2.016110111529997, 2.1329085805209616, 2.2826913657154364, 2.466058321926539, 2.715830489369182, 2.882580504845464, 2.998818253934587, 3.132476813365429, 3.232428343813808, 3.3656807983261388, 3.4654963189113914, 3.5823105060244416, 4.065413686505053, 4.265203833552732]",2017_Feb_07_1327,60.0175773654,famFaceFilter,001,12,
42,./img/edges5_JoachimLoew4_1.png,0,40,40,41,,,1.ja,1.665,None,None,None,None,None,sport,0.656,None,Jogi Löw,"['lshift', 'j', 'o', 'g', 'i', 'space', 'lshift', 'l', u'\xf6', 'w', 'return']","[0.36687409240039415, 0.9000074099712947, 1.1664090284884878, 1.5328837523084076, 1.6495285686469288, 1.8164274251066672, 1.916145749964926, 2.049615371168329, 2.3161716046706715, 2.4326868267071404, 2.915812140869093]",2017_Feb_07_1327,60.0175773654,famFaceFilter,001,12,
8,./img/edges5_LeonardoDiCaprio3_1.png,0,41,41,7,,,1.ja,1.257,None,act,0.407,None,None,None,None,None,Leonardo die Caprio,"['lshift', 'l', 'e', 'o', 'n', 'a', 'r', 'd', 'i', 'backspace', 'p', 'o', 'backspace', 'backspace', 'o', 'space', 'd', 'i', 'e', 'space', 'lshift', 'c', 'a', 'p', 'r', 'i', 'o', 'return']","[0.3002898870581703, 0.7667783722517925, 0.8833856575674872, 1.0333143967400247, 1.2829101362949586, 1.483159637406061, 1.6997466816319502, 1.9162586638121866, 2.099569163099659, 2.416100359881966, 2.582737140734025, 3.0658701535667205, 3.2324078140245547, 3.765389403613881, 3.9321750254457584, 4.049034763031159, 4.11505600302371, 4.198638874890094, 4.298723848976806, 4.515167505447607, 4.581723803104978, 4.7651889173776, 5.031718205529614, 5.331502225719305, 5.581418743249742, 5.664752370630595, 5.981394235812331]",2017_Feb_07_1327,60.0175773654,famFaceFilter,001,12,
7,./img/edges5_AngelaMerkel3_1.png,0,42,42,6,,,1.ja,1.95,None,None,None,None,None,polit,1.239,None,Angela Merkel,"['lshift', 'a', 'n', 'g', 'e', 'l', 'a', 'space', 'lshift', 'm', 'e', 'r', 'k', 'e', 'l', 'return']","[0.23385708892055845, 0.40027702386032615, 0.683326698575911, 0.9000866421320097, 0.9833317347893171, 1.1500249725650065, 1.282979745115881, 1.4165565061630332, 1.5664961517868505, 1.683101191658352, 1.833057517736961, 1.9996907700315205, 2.099591296781, 2.282947667319604, 2.3838262461176782, 2.6492517372535076]",2017_Feb_07_1327,60.0175773654,famFaceFilter,001,12,
63,./img/edges5_LisaEdelstein(DrLisaCuddy)2_2.png,0,43,43,62,,,1.ja,7.887,None,None,None,host,0.629,None,None,None,,['return'],[1.0000125103415485],2017_Feb_07_1327,60.0175773654,famFaceFilter,001,12,
49,./img/edges5_RobertSeanLeonard(Wilson)2_6.png,0,44,44,48,,,2.nein,2.039,None,None,None,None,None,sport,1.306,None,,['return'],[0.583439644500686],2017_Feb_07_1327,60.0175773654,famFaceFilter,001,12,
35,./img/edges5_WillSmith1_1.png,0,45,45,34,,,1.ja,1.274,None,act,0.424,None,None,None,None,None,Will Smith,"['lshift', 'w', 'i', 'l', 'l', 'space', 'lshift', 's', 'm', 'i', 't', 'h', 'return']","[0.4834586024808232, 0.6501460662530008, 0.8334706797704712, 1.0000211713468161, 1.1333236672235216, 1.2832254610475502, 1.3831340072465537, 1.5164547874683194, 1.6829273299954366, 1.7997331768801814, 2.033013186221069, 2.1827231548140844, 2.4660926451706473]",2017_Feb_07_1327,60.0175773654,famFaceFilter,001,12,
54,./img/edges5_KatjaBurkard5_3.png,0,46,46,53,,,1.ja,1.323,None,None,None,host,1.022,None,None,None,Katja Burkhardt,"['lshift', 'k', 'a', 't', 'j', 'a', 'space', 'lshift', 'b', 'u', 'r', 'g', 'backspace', 'k', 'h', 'a', 'r', 'd', 't', 'return']","[0.3668907728533668, 0.7168707723467378, 0.8832615164901654, 1.0166952105591918, 1.2333165780291893, 1.333267466921825, 1.4498102758661844, 1.6662901802483248, 2.033004845992764, 2.2495383202967787, 2.332944764277272, 2.4661160619616567, 3.7988953048043186, 4.065199727594518, 4.431940697133541, 4.531822297982217, 4.748582883094059, 4.864841161972436, 4.931657610568436, 5.2647079108010075]",2017_Feb_07_1327,60.0175773654,famFaceFilter,001,12,
25,./img/edges5_JoachimLoew8_1.png,0,47,47,24,,,1.ja,1.245,None,None,None,None,None,sport,1.406,None,Jogi Löw,"['lshift', 'j', 'o', 'g', 'i', 'space', 'lshift', 'l', u'\xf6', 'w', 'return']","[0.4832083956571296, 0.7502397013431619, 1.050125408150052, 1.6500094148341304, 1.733052096587926, 1.8997937718395406, 2.049699414998031, 2.1329788308994466, 2.3163031236399547, 2.3996168627854786, 2.5662106593881617]",2017_Feb_07_1327,60.0175773654,famFaceFilter,001,12,
68,./img/edges5_MariskaHargitay(Liv)4_4.png,0,48,48,67,,,2.nein,1.741,None,None,None,host,8.637,None,None,None,,['return'],[0.7169047748138837],2017_Feb_07_1327,60.0175773654,famFaceFilter,001,12,
11,./img/edges5_RobertSeanLeonard(Wilson)1_1.png,0,49,49,10,,,2.nein,3.788,None,None,None,None,None,sport,2.971,None,,['return'],[0.550253238174264],2017_Feb_07_1327,60.0175773654,famFaceFilter,001,12,
55,./img/edges5_JoachimLoew1_1.png,0,50,50,54,,,1.ja,1.139,None,None,None,None,None,sport,5.054,None,Jogi Löw,"['lshift', 'j', 'o', 'g', 'i', 'space', 'lshift', 'l', u'\xf6', 'w', 'return']","[0.2672000349011796, 0.5503911727046216, 0.7835460786336625, 1.1500323504587868, 1.2833640371318324, 1.3998503891525615, 1.5998211342011928, 1.7331592364334938, 1.8996901605532912, 1.983228444281849, 2.3660596371173597]",2017_Feb_07_1327,60.0175773654,famFaceFilter,001,12,
47,./img/edges5_UrsulavonderLeyen5_1.png,0,51,51,46,,,1.ja,2.756,None,None,None,None,None,polit,1.939,None,von der Leyen,"['v', 'o', 'n', 'space', 'd', 'e', 'r', 'space', 'lshift', 'l', 'e', 'y', 'e', 'n', 'return']","[3.6655360312252014, 3.7653316635769443, 4.048614543880831, 5.448230123553003, 5.514781930320169, 5.631592268095119, 5.964643209883434, 6.147969427292992, 6.4477784681621415, 6.564324484887038, 6.764353290747749, 7.180806827182096, 7.39726556021742, 7.513999232056449, 8.297123166874371]",2017_Feb_07_1327,60.0175773654,famFaceFilter,001,12,
3,./img/edges5_NicoleKidman5_1.png,0,52,52,2,,,1.ja,3.734,None,act,1.09,None,None,None,None,None,Scarlett Johannsson,"['lshift', 'a', 'backspace', 'lshift', 's', 'c', 'a', 'r', 'l', 'e', 't', 't', 'space', 'lshift', 'j', 'o', 'h', 'a', 'n', 'n', 's', 's', 'o', 'm', 'backspace', 'n', 'return']","[0.3834826929050905, 0.5002195725246565, 0.91661601047781, 0.9999634313098795, 1.0832053161884687, 1.3165244604424515, 1.5828022586611041, 1.8495410148316296, 2.416044865291042, 2.5656117669059313, 2.765990862317267, 2.8826029593037674, 3.115728353661325, 3.4655947977498727, 3.5821738546055713, 3.8154224277041067, 4.082088688051954, 4.215287572644229, 4.348592313966947, 4.498636853988501, 4.581572716677329, 4.7648597991737915, 4.898424049879395, 5.064876383394221, 5.548108195844179, 5.981262716841229, 6.34786126095787]",2017_Feb_07_1327,60.0175773654,famFaceFilter,001,12,
61,./img/edges5_NeilPatrickHarris(Barney)2_2.png,0,53,53,60,,,1.ja,3.749,None,dummy,1.022,None,None,None,None,None,Spielt bei How I met your mother,"['lshift', 's', 'p', 'i', 'e', 'l', 't', 'space', 'n', 'e', 'o', 'space', 'backspace', 'backspace', 'backspace', 'backspace', 'b', 'e', 'i', 'space', 'lshift', 'h', 'o', 'w', 'space', 'lshift', 'i', 'space', 'm', 'e', 't', 'space', 'y', 'o', 'u', 'r', 'space', 'm', 'o', 't', 'h', 'e', 'r', 'return']","[0.7666272858241427, 0.9165624405559356, 1.1831533180793485, 1.3663319776187564, 1.4497624799478217, 1.583293369743842, 1.699736416736414, 1.7829385251461645, 1.9496163655785494, 2.0496099179417797, 2.1495367484858434, 2.2662146049569856, 2.4994958974093606, 2.632587642156068, 2.815858044197739, 2.9658647324176854, 3.532143396736501, 3.8153752733433066, 3.915354069918976, 4.0654451227474055, 7.397377511731975, 7.496972978624399, 7.713900368284158, 7.813874032413878, 7.947074841671565, 8.18046359474647, 8.26369457317378, 8.380429848903077, 8.5802716412054, 8.663494279406223, 8.863550030617262, 9.079752141273275, 9.779803241204718, 9.929689958462404, 10.128952104960263, 10.245590184962566, 10.362737660392668, 10.612733730862601, 11.179068852105047, 11.378950420876208, 11.495812403905802, 11.64564843824337, 11.728946138489846, 11.878938712479794]",2017_Feb_07_1327,60.0175773654,famFaceFilter,001,12,
12,./img/edges5_UrsulavonderLeyen4_1.png,0,54,54,11,,,1.ja,3.018,None,None,None,None,None,polit,1.639,None,von der Leyen,"['v', 'o', 'n', 'space', 'd', 'e', 'r', 'space', 'lshift', 'l', 'e', 'y', 'e', 'n', 'return']","[1.2166021207922313, 1.3498962764424505, 1.5499183459669439, 1.7161936100383173, 1.7997947662515799, 1.8497803152040433, 1.9830998123125028, 2.0662971090532665, 2.299502697904245, 2.366809616025421, 2.549407025871915, 2.832674508832497, 3.5323996983406687, 4.148749559331918, 4.5984485252392915]",2017_Feb_07_1327,60.0175773654,famFaceFilter,001,12,
60,./img/edges5_TomCruise1_1.png,0,55,55,59,,,2.nein,10.763,None,act,9.597,None,None,None,None,None,,['return'],[0.7336570838524494],2017_Feb_07_1327,60.0175773654,famFaceFilter,001,12,
51,./img/edges5_Ice-T(OdafinFinTutuola)6_1.png,0,56,56,50,,,1.ja,1.388,None,act,0.722,None,None,None,None,None,Morgan Freeman,"['lshift', 'm', 'o', 'r', 'g', 'a', 'n', 'space', 'lshift', 'f', 'r', 'e', 'e', 'm', 'a', 'n', 'return']","[0.2336011080951721, 0.6001425537324394, 0.7999464942331542, 0.9167536242293863, 1.099672453608946, 1.216622971360266, 1.3164689658533462, 1.4664329906045168, 1.5496796871520928, 1.6830992669911211, 1.8329898335832695, 1.9160357231194212, 2.0661918938767485, 2.1662534511706326, 2.316064785603885, 2.39935863651408, 2.7325507206114708]",2017_Feb_07_1327,60.0175773654,famFaceFilter,001,12,
39,./img/edges5_AlysonHannigan(Lily)8_3.png,0,57,57,38,,,1.ja,1.338,None,act,0.722,None,None,None,None,None,Spielt bei How I met your mother,"['lshift', 's', 'p', 'i', 'e', 'l', 't', 'space', 'b', 'e', 'i', 'space', 'lshift', 'h', 'w', 'o', 'backspace', 'backspace', 'o', 'w', 'space', 'o', 'backspace', 'lshift', 'i', 'space', 'm', 'e', 't', 'space', 'y', 'o', 'u', 'r', 'space', 'm', 'o', 't', 'h', 'e', 'r', 'return']","[0.5002083452964143, 1.2000936030144658, 1.4332411310515454, 1.6330293534319935, 1.7331101574036438, 1.8330741981917527, 1.9828929105187854, 2.0995216879600775, 2.316009611791742, 2.3661606821806345, 2.5159835646209103, 2.632702159895416, 3.465614044431277, 3.648981642198123, 3.9486479368697474, 4.065404383945861, 4.315326033924066, 4.44842451500881, 4.615308615680988, 4.6819338806035375, 4.898462543238566, 5.231614850867118, 5.481490629594191, 5.581458840497362, 5.6813975398254115, 5.84806158680658, 6.014613361494412, 6.08133101047315, 6.28126165827598, 6.397778804981499, 7.297502005665592, 7.480730706569375, 7.6635622843386955, 7.7805788823534385, 7.91384416798428, 8.213789218716556, 8.347021464218415, 8.59698128677519, 8.813500005293463, 8.996831675927751, 9.063367764572831, 11.395796717864869]",2017_Feb_07_1327,60.0175773654,famFaceFilter,001,12,
37,./img/edges5_JasonSegel(Marshall)9_1.png,0,58,58,36,,,1.ja,2.435,None,dummy,0.656,None,None,None,None,None,Spielt bei How I met your mother,"['lshift', 's', 'p', 'i', 'e', 'l', 't', 'space', 'n', 'e', 'backspace', 'backspace', 'b', 'e', 'i', 'space', 'lshift', 'h', 'o', 'w', 'space', 'lshift', 'i', 'space', 'm', 'e', 't', 'space', 'y', 'o', 'u', 'r', 'space', 'm', 'o', 't', 'h', 'e', 'r', 'return']","[0.6000893045893463, 0.7834832061507768, 0.9665508765101549, 1.665994743732881, 1.7660399413489358, 1.882883319256507, 1.9996522766741691, 2.132623408901054, 2.3826615012858383, 2.498767410626897, 2.915899071700551, 3.049022894245354, 3.5655899540033715, 3.6656595307467796, 3.781969775658581, 3.898852930034991, 4.11527798138377, 4.132041517652397, 4.348529120707099, 4.448618585684017, 4.598223339100514, 4.831656359536282, 4.915131129226211, 5.0645549638629745, 5.281591738812494, 5.34815252736189, 5.598113312255009, 5.797659668040069, 6.4644839436186885, 6.664273449110624, 6.814376049946077, 7.130853356027728, 7.26389858796756, 7.463847199336669, 7.613973537741913, 8.030510155671436, 9.029780064996885, 9.130039542302256, 9.22984415643623, 9.71393565386279]",2017_Feb_07_1327,60.0175773654,famFaceFilter,001,12,
14,./img/edges5_AngelaMerkel4_1.png,0,59,59,13,,,1.ja,1.034,None,None,None,None,None,polit,0.773,None,Angela Merkel,"['lshift', 'a', 'n', 'g', 'e', 'l', 'a', 'space', 'lshift', 'm', 'e', 'r', 'k', 'e', 'l', 'return']","[0.3001894835506391, 0.5002301581989741, 0.7502092274353345, 0.9666740552529518, 1.0666541349401086, 1.2000233526377997, 1.333291525270397, 1.4329052765097003, 1.733124271633642, 1.9330209169693262, 2.5827031382668793, 2.6326562886442844, 2.815926049128393, 2.9325359006688814, 3.0324932051207725, 3.615710871263218]",2017_Feb_07_1327,60.0175773654,famFaceFilter,001,12,
43,./img/edges5_BarackObama1_3.png,0,60,60,42,,,1.ja,0.854,None,None,None,None,None,polit,0.837,None,Barack Obama,"['lshift', 'o', 'backspace', 'lshift', 'b', 'v', 'a', 'backspace', 'backspace', 'a', 'r', 'a', 'c', 'k', 'space', 'lshift', 'o', 'b', 'a', 'm', 'a', 'return']","[0.3509099348466407, 0.6006420050416637, 0.9505055621284555, 1.0170506325575843, 1.2171272343384771, 1.239905357664611, 1.3336277005892043, 2.133311156881973, 2.266672996684065, 2.4165680541700567, 2.6164412827129127, 2.8164947884797584, 3.399530894286727, 3.6661342821516882, 3.7660684905877133, 3.899403064262515, 3.9996092924247932, 4.199172007887682, 4.315897660277187, 4.432325630705236, 4.499108718391653, 5.048954568535919]",2017_Feb_07_1327,60.0175773654,famFaceFilter,001,12,
57,./img/edges5_BritneySpears5_1.png,0,61,61,56,,,1.ja,0.967,None,None,None,music,0.822,None,None,None,Britney Spears,"['lshift', 'b', 'r', 'i', 't', 'n', 'e', 'y', 'space', 'lshift', 's', 'p', 'e', 'a', 'r', 's', 'return']","[0.46687438109802315, 0.9167138477605477, 1.1663131158729811, 1.2666614486770413, 1.4998304688397184, 1.716367792480014, 1.849820091671063, 2.116254750320877, 2.2329909883846994, 2.365916570139234, 2.5161609548395063, 2.6994239789873973, 2.7993203356236336, 3.1491861381564377, 3.2322932962852065, 3.365696195669443, 3.815590194586548]",2017_Feb_07_1327,60.0175773654,famFaceFilter,001,12,
45,./img/edges5_WillSmith4_1.png,0,62,62,44,,,1.ja,1.671,None,dummy,2.355,None,None,None,None,None,Will Smith,"['lshift', 'w', 'i', 'l', 'l', 'space', 'lshift', 's', 'm', 'i', 't', 'h', 'return']","[0.4665811900267727, 0.7002333018208446, 0.9667378900685435, 1.1666175341724738, 1.2831147926426638, 1.4664721255157929, 1.566543626926432, 1.6496895991895144, 1.7662462015869096, 1.91633019730034, 2.099547991752843, 2.2161180668244924, 2.4993813796718314]",2017_Feb_07_1327,60.0175773654,famFaceFilter,001,12,
30,./img/edges5_MariskaHargitay(Liv)8_8.png,0,63,63,29,,,2.nein,1.653,None,None,None,host,3.193,None,None,None,,['return'],[0.6168752953162766],2017_Feb_07_1327,60.0175773654,famFaceFilter,001,12,
52,./img/edges5_BarackObama4_1.png,0,64,64,51,,,1.ja,1.174,None,None,None,None,None,polit,0.724,None,Baracj Obama,"['lshift', 'b', 'a', 'r', 'c', 'k', 'space', 'backspace', 'backspace', 'backspace', 'a', 'c', 'j', 'space', 'lshift', 'o', 'b', 'a', 'm', 'a', 'return']","[0.267046061473593, 0.583423605603457, 0.7666324182719109, 0.8500385414754419, 1.0666156415845762, 1.2995703820561175, 1.416558430832083, 1.89962985429338, 2.0495124014378234, 2.16617486056748, 2.399502024270987, 2.949170804969981, 3.1325618195296556, 3.2657074549770186, 3.349059687479894, 3.4489871595797013, 3.6821632368555584, 3.798799712969412, 3.898887894834843, 4.015452195902981, 4.24867414442997]",2017_Feb_07_1327,60.0175773654,famFaceFilter,001,12,
69,./img/edges5_GuentherJauch2_1.png,0,65,65,68,,,1.ja,1.066,None,None,None,host,0.806,None,None,None,Günter Jauch,"['lshift', 'g', u'\xfc', 'n', 't', 'e', 'h', 'r', 'space', 'backspace', 'backspace', 'backspace', 'r', 'r', 'backspace', 'space', 'lshift', 'j', 'a', 'u', 'c', 'h', 'return']","[0.3667419318717293, 0.6335304086278484, 0.8666872392259393, 1.0999579460058158, 1.2999245209412038, 1.4331381613192207, 1.4831054259266239, 1.582957515201997, 1.683012015379063, 2.1326477880265884, 2.266211076399486, 2.382632952045242, 2.4825575371432933, 2.599310134883126, 2.9824598602499464, 3.1320617266628688, 3.2990240971612366, 3.4656089119816897, 3.5489759002703067, 4.182037010719796, 4.348432245757067, 4.448512408172974, 5.264872469902912]",2017_Feb_07_1327,60.0175773654,famFaceFilter,001,12,
17,./img/edges5_NeilPatrickHarris(Barney)3_7.png,0,66,66,16,,,1.ja,2.117,None,act,0.855,None,None,None,None,None,Spielt bei How I met your mother,"['lshift', 's', 'p', 'i', 'e', 'l', 't', 'space', 'b', 'e', 'i', 'space', 'lshift', 'h', 'lshift', 'less', 'backspace', 'lshift', 'g', 'backspace', 'lshift', 'h', 'o', 'w', 'space', 'lshift', 'i', 'space', 'm', 'e', 't', 'space', 'y', 'o', 'u', 'r', 'space', 'm', 'o', 't', 'h', 'e', 'r', 'return']","[0.3503203449254215, 0.49999823572034074, 0.7334774481842032, 0.9499830148051842, 1.0666307181472803, 1.1498658666878327, 1.2997679812888236, 1.8328859015182388, 2.0326404422103224, 2.115940067125848, 2.2161684289658297, 2.382692295970628, 2.482769571384779, 2.965891356989232, 3.0158980772885116, 3.3822868326078606, 3.865377823527524, 4.065411441059041, 4.465298398899904, 4.515017702131445, 4.81498264109905, 5.064875421059696, 5.198237902419351, 5.364813093900011, 5.581475200173372, 5.664878115596366, 5.814624973654645, 6.031194695871818, 6.1145921580682625, 6.3810768580824515, 7.014056170148251, 7.180967536947719, 7.280625555546067, 7.49727354758943, 7.8138955245376565, 8.347055466681923, 8.646943739711787, 8.830250389664798, 8.930119159394962, 9.62978147641843, 9.666201645526598, 9.712804590717496, 10.379569201591949]",2017_Feb_07_1327,60.0175773654,famFaceFilter,001,12,
20,./img/edges5_JoshRadnor(Ted)1_2.png,0,67,67,19,,,1.ja,3.299,None,act,0.689,None,None,None,None,None,Spielt bei How I met your mother,"['lshift', 's', 'p', 'i', 'e', 'l', 'z', 'space', 'backspace', 'backspace', 't', 'space', 'b', 'e', 'i', 'space', 'lshift', 'j', 'h', 'o', 'w', 'backspace', 'backspace', 'backspace', 'backspace', 'lshift', 'h', 'o', 'w', 'space', 'lshift', 'i', 'space', 'm', 'e', 't', 'space', 'x', 'backspace', 'y', 'o', 'u', 'r', 'space', 'm', 'o', 'o', 'backspace', 't', 'h', 'e', 'r', 'return']","[0.5167543940970063, 0.6668390313661803, 0.8833837329002563, 1.066789824024454, 1.1833538043138105, 1.2667098861529666, 1.433247867387763, 1.5665680060537852, 1.949635933035097, 2.082691429870465, 2.1828755243514024, 2.3324421051893296, 2.482538290465527, 2.5825668076267903, 2.6994480373359693, 3.1992133882467897, 3.3991296010390215, 3.4826399770845455, 3.8153518565504783, 4.015766879096191, 4.498883211475913, 4.631969502996071, 4.7652938117753365, 4.898267510227015, 5.081728775163356, 5.39829397441099, 5.681481262878151, 5.7980721885178355, 5.931477333346265, 6.114614291749604, 6.2145523495219095, 6.364615815444267, 6.547662314458648, 6.647865334838571, 6.8643567872295534, 6.9642184998429, 7.3641218173615925, 7.664044734414347, 7.7638814263464155, 8.013916631729444, 8.197015096773612, 8.347204628440522, 8.446944445424379, 9.180086359847337, 9.379844108319958, 10.262940103373694, 10.646188307578996, 10.945744254626334, 11.112671018769106, 11.179319700482665, 11.312611610686872, 11.395591740736563]",2017_Feb_07_1327,60.0175773654,famFaceFilter,001,12,
48,./img/edges5_GeorgeClooney3_1.png,0,68,68,47,,,1.ja,1.334,None,act,0.406,None,None,None,None,None,George Clooney,"['lshift', 'g', 'e', 'o', 's', 'backspace', 'r', 'g', 'e', 'space', 'lshift', 'c', 'l', 'o', 'o', 'n', 'e', 'y', 'return']","[0.3668606197243207, 0.7835563435291988, 1.0001020073959808, 1.2333550713865407, 1.5998419847692276, 2.132997436021469, 2.2329220211195207, 2.716158324461503, 2.799414002793128, 2.949096705257034, 3.2158697846716677, 3.4324590743435692, 3.74893060641989, 3.932291147073556, 4.06558049105297, 4.248635009515056, 4.331997506913467, 4.615126734566729, 4.815145275533723]",2017_Feb_07_1327,60.0175773654,famFaceFilter,001,12,
18,./img/edges5_JoshRadnor(Ted)6_2.png,0,69,69,17,,,2.nein,2.266,None,act,0.706,None,None,None,None,None,,['return'],[0.516777169332272],2017_Feb_07_1327,60.0175773654,famFaceFilter,001,12,
26,./img/edges5_NicoleKidman7_1.png,0,70,70,25,,,1.ja,3.755,None,act,0.639,None,None,None,None,None,,['return'],[2.466106438623683],2017_Feb_07_1327,60.0175773654,famFaceFilter,001,12,
67,./img/edges5_LeonardoDiCaprio2_1.png,0,71,71,66,,,1.ja,1.173,None,act,0.607,None,None,None,None,None,Leonardo di Caprio,"['lshift', 'l', 'e', 'o', 'n', 'a', 'r', 'd', 'o', 'space', 'd', 'e', 'backspace', 'i', 'space', 'lshift', 'c', 'a', 'p', 'r', 'o', 'backspace', 'i', 'o', 'return']","[0.3338230543758982, 1.4663604947800195, 1.766421987918875, 1.8664088039440685, 2.182937113722801, 2.3163608636750723, 2.4494006423901737, 2.7327297147221543, 2.8661383881099027, 3.065867587341927, 3.21584283932134, 3.565695489956852, 3.8324233396760974, 4.19873286283655, 4.332053643058316, 4.357835852135395, 4.615280066438572, 4.7318918426481105, 4.965150680642182, 5.165058232429146, 5.33182332447177, 5.581640721607982, 5.8148167988856585, 5.897869103979247, 6.2477859102109505]",2017_Feb_07_1327,60.0175773654,famFaceFilter,001,12,
42,./img/gray_NicoleKidman5_1.png,0,0,0,41,,,1.ja,2.643,None,dummy,3.087,None,None,None,None,None,Scarlett Johannsson,"['lshift', 's', 'c', 'a', 'r', 'l', 'e', 't', 't', 'space', 'lshift', 'j', 'o', 'h', 'a', 'n', 'n', 's', 's', 'o', 'n', 'return']","[0.38355230172601296, 0.6500090940553491, 0.8668328724288585, 1.1332354532787576, 1.3662578779058094, 1.6663722994089767, 1.799431004024882, 1.949609950019294, 2.0827899087089463, 2.2496432146945153, 2.416120248115476, 2.532775970905277, 3.6323339067766938, 3.848820547496871, 4.082106010064308, 4.248665483422883, 4.3986323951739905, 4.581883871314858, 4.715103606473349, 4.814994509884855, 4.965098393831795, 5.165086140113999]",2017_Feb_07_1327,60.0175773654,famFaceFilter,001,12,
69,./img/gray_OmarEpps(DrEricForeman)3_1.png,0,1,1,68,,,2.nein,1.165,None,None,None,music,3.653,None,None,None,,['return'],[0.5501537969994388],2017_Feb_07_1327,60.0175773654,famFaceFilter,001,12,
65,./img/gray_KatjaBurkard5_3.png,0,2,2,64,,,1.ja,1.072,None,None,None,host,0.723,None,None,None,Katja Burkhardt,"['lshift', 'k', 'a', 't', 'j', 'a', 'space', 'lshift', 'b', 'u', 'r', 'g', 'backspace', 'k', 'h', 'a', 'r', 'd', 't', 'return']","[0.267246547706236, 0.7002137343661161, 0.8834459638273984, 1.133308911435961, 1.3496579384045617, 1.4331683144500857, 1.7330796834939974, 1.832914129980054, 1.9497607156681624, 2.7326415007792093, 2.8160527564286895, 2.9826484777004225, 3.8989607114344835, 4.448750746209043, 4.7984972193353315, 4.898538888395706, 5.048233780422379, 5.181695061397477, 5.264953305953895, 5.981279718074802]",2017_Feb_07_1327,60.0175773654,famFaceFilter,001,12,
40,./img/gray_BritneySpears1_1.png,0,3,3,39,,,1.ja,0.984,None,None,None,music,0.821,None,None,None,Britney Spears,"['lshift', 'b', 'r', 'i', 't', 'n', 'e', 'y', 'space', 'lshift', 's', 'p', 'e', 'a', 'r', 's', 'return']","[0.3169231874690013, 0.6168797862083011, 0.816794074333302, 0.9002451064516208, 1.1168414532403403, 1.5164470887957577, 1.5999119143671123, 1.8998736455559992, 1.9826767061622377, 2.1329226947527786, 2.2661947167234757, 2.3827577346783073, 2.5327756501283147, 2.7992731812610145, 2.915965472742755, 3.032551907490415, 3.732309495573645]",2017_Feb_07_1327,60.0175773654,famFaceFilter,001,12,
7,./img/gray_OmarEpps(DrEricForeman)1_5.png,0,4,4,6,,,2.nein,3.103,None,None,None,music,0.938,None,None,None,,['return'],[0.7834867347082763],2017_Feb_07_1327,60.0175773654,famFaceFilter,001,12,
12,./img/gray_BarackObama2_1.png,0,5,5,11,,,1.ja,0.922,None,None,None,None,None,polit,0.888,None,Barack Obama,"['lshift', 'b', 'a', 'r', 'a', 'c', 'k', 'space', 'lshift', 'o', 'b', 'a', 'm', 'a', 'plus', 'return']","[0.4835618929882912, 0.6171524474884791, 0.8335527989329421, 0.9003730968652235, 1.0336508928376134, 1.2166162350222294, 1.3168028957279603, 1.4332735296266037, 1.583325447541938, 1.7998448076159548, 2.3996059563341987, 2.5495202604979568, 2.632833358085918, 2.7493803371435206, 3.5659668681255425, 4.2655919749049644]",2017_Feb_07_1327,60.0175773654,famFaceFilter,001,12,
19,./img/gray_JasonSegel(Marshall)9_1.png,0,6,6,18,,,1.ja,2.546,None,dummy,0.405,None,None,None,None,None,Spielt bei How I Met your mother,"['lshift', 's', 'p', 'i', 'e', 'l', 't', 'space', 'b', 'e', 'i', 'space', 'lshift', 'h', 'o', 'w', 'space', 'lshift', 'i', 'space', 'lshift', 'm', 'e', 't', 'space', 'y', 'o', 'u', 'r', 'space', 'm', 'o', 't', 'h', 'e', 'r', 'return']","[0.4671836110683216, 0.7170558612378954, 0.983349698355596, 1.1669046304614312, 1.2835016508834087, 1.383501298027113, 1.5166815774955467, 1.6166289378288639, 1.7999176242155954, 1.866595817504276, 1.9832380676198227, 2.1165521115035517, 2.3163701662360836, 2.616068538705804, 2.9995124174747616, 3.1161639701531385, 3.2660253459507658, 3.499236708805256, 3.732428824980161, 3.8824618169946916, 4.049383769468477, 4.34888775048239, 4.415390798996668, 4.58201891884346, 4.732076610762306, 5.681738526813206, 5.765059002296766, 5.948214886599089, 6.048311087914044, 6.181441646796884, 6.914523254959931, 7.080972059917258, 7.31528465356314, 7.447533073011073, 7.564257121510309, 7.680946846767256, 7.780784180256887]",2017_Feb_07_1327,60.0175773654,famFaceFilter,001,12,
9,./img/gray_RobertSeanLeonard(Wilson)8_1.png,0,7,7,8,,,1.ja,15.428,None,dummy,21.594,None,None,None,None,None,,['return'],[0.6501531233679998],2017_Feb_07_1327,60.0175773654,famFaceFilter,001,12,
53,./img/gray_Ice-T(OdafinFinTutuola)5_1.png,0,8,8,52,,,1.ja,1.122,None,act,0.407,None,None,None,None,None,Morgan Freeman,"['lshift', 'm', 'o', 'r', 'g', 'a', 'n', 'space', 'lshift', 'f', 'r', 'e', 'e', 'comma', 'a', 'm', 'backspace', 'backspace', 'm', 'comma', 'a', 'n', 'return']","[0.4168875490358914, 0.7335537933449814, 0.983198291152803, 1.1166088892077823, 1.3164141128199844, 1.3996771690453897, 1.5331015605534049, 1.666452814682998, 1.7663796452270617, 1.8830113096701098, 2.0495245910005906, 2.1326949423910264, 2.299415446294006, 2.466054151813296, 2.6326896495538676, 2.7993312420749135, 3.099115262264604, 3.232539332993838, 3.4491299057790457, 3.5322591975873365, 4.131901979233589, 4.581914345224504]",2017_Feb_07_1327,60.0175773654,famFaceFilter,001,12,
57,./img/gray_UrsulavonderLeyen5_1.png,0,9,9,56,,,1.ja,3.166,None,None,None,None,None,polit,7.002,None,von der Leyen,"['v', 'o', 'n', 'space', 'd', 'e', 'r', 'space', 'lshift', 'l', 'e', 'y', 'e', 'n', 'return']","[0.5502824289706041, 0.7335172246548609, 0.9665287428306328, 1.083359931173618, 1.2167179216412478, 1.3165696901378396, 1.4331259717582725, 1.5665314373654837, 1.816146423598184, 2.0663744165449316, 2.1995922270361916, 2.4828824852338585, 2.6994682463482604, 2.8159494659212214, 3.0491633949986863]",2017_Feb_07_1327,60.0175773654,famFaceFilter,001,12,
52,./img/gray_EmilyDeschanel5_1.png,0,10,10,51,,,2.nein,1.022,None,dummy,3.471,None,None,None,None,None,,['return'],[0.48359140456159366],2017_Feb_07_1327,60.0175773654,famFaceFilter,001,12,
43,./img/gray_LisaEdelstein(DrLisaCuddy)6_3.png,0,11,11,42,,,1.ja,1.372,None,act,0.622,None,None,None,None,None,,['return'],[0.7000299285846268],2017_Feb_07_1327,60.0175773654,famFaceFilter,001,12,
35,./img/gray_JoachimLoew4_1.png,0,12,12,34,,,1.ja,1.34,None,None,None,None,None,sport,1.122,None,Joachim Löw,"['lshift', 'j', 'o', 'a', 'c', 'h', 'i', 'm', 'space', 'lshift', 'l', u'\xf6', 'w', 'delete', 'return']","[0.4002811939735693, 0.7168123907558765, 0.9000680370081682, 1.0334805597321974, 1.28337462280615, 1.4499007352551416, 1.616430697040414, 1.7665589601147076, 1.9329731210509635, 1.9996015937540506, 2.382842740842534, 2.6828570796187705, 2.799216724337384, 2.9659539086951554, 3.5158453093117714]",2017_Feb_07_1327,60.0175773654,famFaceFilter,001,12,
47,./img/gray_HughLaurie(DrHouse)5_3.png,0,13,13,46,,,2.nein,1.605,None,act,1.605,None,None,None,None,None,,['return'],[0.7002464537199558],2017_Feb_07_1327,60.0175773654,famFaceFilter,001,12,
71,./img/gray_BritneySpears7_1.png,0,14,14,70,,,1.ja,1.022,None,None,None,music,0.406,None,None,None,Britney Spears,"['lshift', 'b', 'r', 'i', 't', 'n', 'e', 'y', 'space', 'lshift', 's', 'p', 'e', 'a', 'r', 's', 'return']","[0.5169141415281047, 0.9333192404865258, 1.1665758330364042, 1.2833143165444199, 1.516583740212809, 1.799688588740537, 1.9495903825627465, 2.182920433268009, 2.2994850551131094, 2.4160897742076486, 2.565910411201912, 2.7327277900549234, 2.8492603341019276, 3.0990632962311793, 3.315609601653705, 3.5486708404150704, 3.6657005903271056]",2017_Feb_07_1327,60.0175773654,famFaceFilter,001,12,
13,./img/gray_NeilPatrickHarris(Barney)2_2.png,0,15,15,12,,,1.ja,1.572,None,act,0.506,None,None,None,None,None,Spielt bei How I met your mother,"['lshift', 's', 'p', 'i', 'e', 'l', 't', 'space', 'b', 'e', 'i', 'space', 'lshift', 't', 'h', 'backspace', 'backspace', 'lshift', 'h', 'o', 'w', 'space', 'lshift', 'i', 'space', 'm', 'e', 't', 'space', 'x', 'backspace', 'y', 'o', 'u', 'r', 'space', 'm', 'o', 't', 'h', 'e', 'r', 'return']","[1.5996732555522613, 1.7164011533895973, 2.066057167125109, 2.2662258321852278, 2.3825383225430414, 2.466120552853681, 2.615986740320295, 2.699305611913587, 2.949280190259742, 3.1825399905883387, 3.299018643936506, 3.5156149907234067, 4.115287283942962, 4.23209922561, 4.431916638784969, 5.148369116650429, 5.281364307225886, 5.6145445225392905, 5.7813166716969135, 6.081214568066571, 6.231254296419138, 6.364486541919177, 6.631104364792918, 6.731130315731207, 6.897630765943177, 7.114277474873234, 7.1974619404954865, 7.397459951671408, 7.497328721401573, 7.8973728604505595, 8.180414194937839, 8.24709431289557, 8.380308274050549, 8.563683249711175, 8.713566117632581, 8.846637332590035, 9.063393106031072, 9.246518195648605, 9.429874245410247, 9.879868647833064, 9.979778797922336, 10.046205501277655, 10.296250650777438]",2017_Feb_07_1327,60.0175773654,famFaceFilter,001,12,
32,./img/gray_MariskaHargitay(Liv)6_5.png,0,16,16,31,,,2.nein,3.015,None,None,None,host,1.489,None,None,None,,['return'],[0.7834097479935735],2017_Feb_07_1327,60.0175773654,famFaceFilter,001,12,
17,./img/gray_JasonSegel(Marshall)6_1.png,0,17,17,16,,,1.ja,3.17,None,act,1.305,None,None,None,None,None,Spielt bei How I met your mother,"['lshift', 's', 'p', 'i', 'e', 'l', 't', 'space', 'b', 'e', 'i', 'space', 'lshift', 'j', 'o', 'w', 'space', 'lshift', 'backspace', 'backspace', 'backspace', 'backspace', 'lshift', 'h', 'backspace', 'lshift', 'h', 'o', 'w', 'space', 'lshift', 'i', 'space', 'm', 'e', 't', 'space', 'y', 'o', 'u', 'r', 'space', 'm', 'p', 'backspace', 'o', 't', 'h', 'e', 'r', 'return']","[0.28358729860337917, 0.4332850776336272, 0.6665471234082361, 0.866796303740557, 1.033306698069282, 1.1662406200521218, 1.2665170985892473, 1.466225768032018, 1.83297732324354, 1.9161486369666818, 2.03298784476101, 2.1662232980415865, 2.332637138199061, 2.5662382462942332, 2.765984125981049, 2.865768851881512, 3.032597137185803, 3.24909468435726, 3.4657189388290135, 3.5989720348970877, 3.765595984630636, 3.8818722270752914, 4.298692091957491, 4.5652210593307245, 5.082385407682523, 5.198342155263163, 5.364895533841263, 5.564707173012721, 5.664792788655177, 5.831269501297356, 5.997966267630545, 6.097918439634668, 6.281090042057258, 6.4645410420998815, 6.53120415882222, 6.71410117529922, 6.814215019403491, 7.214199172971348, 7.364125666697873, 7.563788144110731, 7.66399244760396, 7.797223409992512, 8.080501799404374, 8.296945455875175, 9.963139723509812, 10.146285022139637, 10.379590693717546, 10.579462959927696, 10.645954781211913, 10.77936698315716, 10.929362764927646]",2017_Feb_07_1327,60.0175773654,famFaceFilter,001,12,
8,./img/gray_BastianSchweinsteiger6_2.png,0,18,18,7,,,1.ja,1.433,None,None,None,None,None,sport,1.055,None,Schweini,"['lshift', 's', 'c', 'h', 'w', 'e', 'i', 'n', 'i', 'return']","[0.3003976684576628, 0.4336100257223734, 0.683470086330999, 0.8168113963420183, 0.9333676779624511, 1.06670161007969, 1.1998940791108907, 1.3331814984248922, 1.4499347377204685, 1.6995946328715945]",2017_Feb_07_1327,60.0175773654,famFaceFilter,001,12,
27,./img/gray_LeonardoDiCaprio1_1.png,0,19,19,26,,,1.ja,1.307,None,dummy,1.272,None,None,None,None,None,Leonardo di Caprop,"['lshift', 'l', 'e', 'o', 'n', 'a', 'r', 'd', 'o', 'space', 'd', 'i', 'e', 'space', 'backspace', 'backspace', 'space', 'lshift', 'c', 'a', 'p', 'r', 'o', 'p', 'return']","[0.39989850584788655, 0.6002009353251196, 0.8333596905904415, 1.0166538302019035, 1.2665780464049021, 1.3661677392956335, 1.5498689461583126, 1.6996289561157027, 2.7494114526089106, 3.098978610845734, 3.282338189163056, 3.3655050119959924, 3.465692314255648, 3.615475420227085, 4.098601696723563, 4.21540786438527, 4.365253842839593, 4.498478068891927, 4.581738558892539, 4.681857535444578, 5.281559340237436, 5.414850288107118, 5.548002659890699, 5.681462336977347, 5.931366344168055]",2017_Feb_07_1327,60.0175773654,famFaceFilter,001,12,
3,./img/gray_KatjaBurkard1_1.png,0,20,20,2,,,1.ja,7.147,None,None,None,host,1.467,None,None,None,Katja Burkhardt,"['lshift', 'k', 'a', 't', 'j', 'k', 'a', 'space', 'backspace', 'backspace', 'backspace', 'a', 'space', 'lshift', 'b', 'u', 'r', 'k', 'h', 'a', 's', 'backspace', 'r', 'd', 't', 'return']","[0.4001868852501502, 0.699992076784838, 0.8501155281883257, 1.0166859079999995, 1.2833030893161776, 1.3665869961096178, 1.4665256954394863, 1.7829619419389928, 1.9323716623457585, 2.082120124296125, 2.499240878918499, 2.6323698339110706, 2.782623521174173, 2.9486703913262318, 3.2658485972860944, 3.382326288301556, 3.9655051403078687, 4.331997827692248, 4.4152817344856885, 4.598396238428904, 5.214879222279706, 5.948079518295344, 6.147855551111206, 6.247967470548247, 6.897640068506007]",2017_Feb_07_1327,60.0175773654,famFaceFilter,001,12,
41,./img/gray_RobertSeanLeonard(Wilson)1_1.png,0,21,21,40,,,2.nein,2.282,None,act,6.97,None,None,None,None,None,,['return'],[0.70006521416326],2017_Feb_07_1327,60.0175773654,famFaceFilter,001,12,
70,./img/gray_WillSmith5_1.png,0,22,22,69,,,1.ja,0.99,None,None,None,music,0.673,None,None,None,Will Smith,"['lshift', 'w', 'i', 'l', 'l', 'space', 'lshift', 's', 'm', 'i', 't', 'h', 'return']","[0.5001753051656124, 0.6500985911116004, 0.8501896279012726, 1.0499685477207095, 1.2000766017808928, 1.3665796182176564, 1.449817012204221, 1.7661201358441758, 1.9829772751272685, 2.1328877299547457, 2.3327465234888223, 2.4495446717028244, 2.8160886835630663]",2017_Feb_07_1327,60.0175773654,famFaceFilter,001,12,
1,./img/gray_JoachimLoew8_1.png,0,23,23,0,,,1.ja,1.039,None,None,None,None,None,sport,4.238,None,Jogi Löw,"['lshift', 'j', 'o', 'g', 'i', 'space', 'lshift', 'l', u'\xf6', 'w', 'return']","[0.33374029365950264, 1.0333262655258295, 1.2831205666479946, 1.649772359909548, 1.766404024352596, 1.9163237817410845, 2.0828550266396633, 2.165943900423372, 2.384045337475982, 2.482770854498085, 2.6826075143526396]",2017_Feb_07_1327,60.0175773654,famFaceFilter,001,12,
23,./img/gray_TomCruise4_1.png,0,24,24,22,,,2.nein,1.388,None,None,None,music,4.576,None,None,None,,['return'],[0.6334367414601729],2017_Feb_07_1327,60.0175773654,famFaceFilter,001,12,
29,./img/gray_UrsulavonderLeyen4_1.png,0,25,25,28,,,1.ja,3.022,None,None,None,None,None,polit,0.506,None,von der Leyen,"['v', 'o', 'n', 'space', 'd', 'e', 'r', 'space', 'lshift', 'l', 'e', 'y', 'e', 'n', 'return']","[1.3498414234072698, 1.4997226874402259, 1.6996478820165066, 1.9326295678383758, 2.0162297617171134, 2.1163105656887637, 2.199563677797414, 2.2995841755091533, 2.8990957589630852, 3.86539899487434, 4.081912901723626, 4.3485390648238536, 4.5485005073114735, 4.66509720695467, 5.164937940689924]",2017_Feb_07_1327,60.0175773654,famFaceFilter,001,12,
36,./img/gray_TomCruise5_1.png,0,26,26,35,,,2.nein,1.4,None,act,5.137,None,None,None,None,None,,['return'],[0.6500366809632396],2017_Feb_07_1327,60.0175773654,famFaceFilter,001,12,
5,./img/gray_OmarEpps(DrEricForeman)2_2.png,0,27,27,4,,,2.nein,5.771,None,None,None,music,3.415,None,None,None,,['return'],[0.7669249677855987],2017_Feb_07_1327,60.0175773654,famFaceFilter,001,12,
67,./img/gray_AngelaMerkel4_1.png,0,28,28,66,,,1.ja,1.056,None,None,None,None,None,polit,0.805,None,Angela Merkel,"['lshift', 'a', 'n', 'g', 'e', 'l', 'a', 'space', 'lshift', 'm', 'e', 'r', 'k', 'e', 'l', 'delete', 'return']","[0.6500164719491295, 0.7334861091894709, 1.0167317792493122, 1.2332007771801727, 1.3331314570586983, 1.4997833144770993, 1.5830800523890503, 1.7163408471296862, 1.932879453881469, 2.08270329865627, 2.2328338071747567, 2.3987408181310457, 2.4821488660018076, 2.615301879341132, 2.698842408515702, 2.981815738072328, 3.2657664781236235]",2017_Feb_07_1327,60.0175773654,famFaceFilter,001,12,
10,./img/gray_HughLaurie(DrHouse)2_1.png,0,29,29,9,,,2.nein,3.437,None,dummy,0.773,None,None,None,None,None,,['return'],[0.6335512591977022],2017_Feb_07_1327,60.0175773654,famFaceFilter,001,12,
31,./img/gray_AngelaMerkel3_1.png,0,30,30,30,,,1.ja,0.972,None,None,None,None,None,polit,2.188,None,Angela Merkel,"['lshift', 'a', 'n', 'g', 'e', 'l', 'a', 'space', 'lshift', 'm', 'e', 'r', 'k', 'e', 'l', 'delete', 'delete', 'return']","[0.3172093214234337, 0.6333526976304711, 0.8835014584165037, 1.06670353474874, 1.1666486496360449, 1.3332167840017064, 1.449507140678179, 1.5832535932750034, 1.7331569909874815, 1.8494418944374047, 2.016347808012142, 2.166112629638519, 2.266200169948206, 2.432721470728211, 2.5328096525936417, 2.7994454390336614, 3.1824026976137247, 3.58230473202093]",2017_Feb_07_1327,60.0175773654,famFaceFilter,001,12,
50,./img/gray_BastianSchweinsteiger3_1.png,0,31,31,49,,,1.ja,0.906,None,None,None,None,None,sport,1.189,None,Schweini,"['lshift', 's', 'c', 'h', 'w', 'e', 'i', 'n', 'i', 'return']","[0.18383400894526858, 0.41683847000422247, 0.6000835305858345, 0.9666105412143224, 1.0832993041367445, 1.2332444029852923, 1.4665218461032055, 1.5998070199693757, 1.78283587619444, 2.299434692971772]",2017_Feb_07_1327,60.0175773654,famFaceFilter,001,12,
21,./img/gray_HughLaurie(DrHouse)4_1.png,0,32,32,20,,,1.ja,4.804,None,dummy,1.049,None,None,None,None,None,,['return'],[0.6334088337771391],2017_Feb_07_1327,60.0175773654,famFaceFilter,001,12,
4,./img/gray_AngelaMerkel1_1.png,0,33,33,3,,,1.ja,1.056,None,None,None,None,None,polit,1.406,None,Angela Merkel,"['lshift', 'a', 'n', 'g', 'e', 'l', 'a', 'space', 'lshift', 'comma', 'lshift', 'comma', 'lshift', 'm', 'e', 'r', 'k', 'e', 'l', 'return']","[0.38356673673479236, 0.6668800909465062, 0.7502320026706002, 0.9833856254899729, 1.0999329253245378, 1.3000467373512947, 1.416638625325504, 1.5664576584294991, 1.766430007368399, 1.866462373865943, 2.5659447344442015, 2.632743219473923, 4.048738364179371, 4.331999110801917, 5.081747380285378, 5.109863890696943, 5.298323838838769, 5.415130648058039, 5.51479861077496, 5.715974839458795]",2017_Feb_07_1327,60.0175773654,famFaceFilter,001,12,
68,./img/gray_Ice-T(OdafinFinTutuola)7_1.png,0,34,34,67,,,1.ja,1.1,None,dummy,0.44,None,None,None,None,None,Morgan Freeman,"['lshift', 'm', 'o', 'r', 'g', 'a', 'n', 'space', 'lshift', 'f', 'r', 'e', 'e', 'm', 'a', 'n', 'return']","[0.3501824103968829, 0.600161158856281, 0.7667892787030723, 0.9001815924129914, 1.0335158453108306, 1.1666313276273286, 1.2833139957674575, 1.4499527012885665, 1.533170848595546, 1.6831015124371334, 1.8329397922207136, 1.9330703167779575, 2.0996159966853156, 2.232718006327559, 2.3494503950551007, 2.4495876559503813, 2.7825574409107503]",2017_Feb_07_1327,60.0175773654,famFaceFilter,001,12,
62,./img/gray_LisaEdelstein(DrLisaCuddy)1_1.png,0,35,35,61,,,1.ja,1.739,None,act,0.756,None,None,None,None,None,,['return'],[0.5001647194912948],2017_Feb_07_1327,60.0175773654,famFaceFilter,001,12,
26,./img/gray_BarackObama1_3.png,0,36,36,25,,,1.ja,1.055,None,None,None,None,None,polit,1.288,None,Barack Obama,"['lshift', 'b', 'a', 'r', 'a', 'c', 'k', 'backspace', 'space', 'backspace', 'k', 'space', 'lshift', 'o', 'n', 'backspace', 'b', 'a', 'm', 'a', 'return']","[0.5169263310908718, 1.2664401118745445, 1.4497730656203203, 1.5829851021080685, 1.683030941279867, 1.8996282504031115, 2.0327475820558902, 2.3493628226660803, 2.5658985424161074, 2.965916377672329, 3.182106298763756, 3.315633980781058, 3.5988697067223256, 3.8154285224863997, 4.215350445127115, 4.565134128499267, 4.7650301322792075, 4.864996097734547, 5.048343486490921, 5.1316344503993605, 5.531412343729244]",2017_Feb_07_1327,60.0175773654,famFaceFilter,001,12,
72,./img/gray_WillSmith4_1.png,0,37,37,71,,,1.ja,1.162,None,None,None,music,2.439,None,None,None,Will Smith,"['lshift', 'w', 'i', 'l', 'l', 'space', 'lshift', 's', 'm', 'i', 't', 'h', 'return']","[0.30037778022233397, 0.46690774200760643, 0.7493973383770935, 1.0001004035057122, 1.1330580630583427, 1.2999318988349842, 1.3830345660717285, 1.56637233148831, 1.8330527060661552, 1.9495862124495034, 2.1494636111056025, 2.2662434749745444, 2.532796821475131]",2017_Feb_07_1327,60.0175773654,famFaceFilter,001,12,
24,./img/gray_JoachimLoew1_1.png,0,38,38,23,,,1.ja,1.155,None,None,None,None,None,sport,0.873,None,Jogi Löw,"['lshift', 'j', 'o', 'g', 'i', 'space', 'lshift', 'l', u'\xf6', 'w', 'return']","[0.28372362924346817, 0.7835653253114288, 1.2333807336253813, 1.533225060073164, 1.7496831515527447, 1.8828105026550475, 1.9996185949858045, 2.1324001474295073, 2.3171121256964398, 2.6158828082570835, 2.7661701772067318]",2017_Feb_07_1327,60.0175773654,famFaceFilter,001,12,
25,./img/gray_MariskaHargitay(Liv)8_8.png,0,39,39,24,,,2.nein,2.155,None,None,None,host,1.421,None,None,None,,['return'],[0.6166488260660117],2017_Feb_07_1327,60.0175773654,famFaceFilter,001,12,
28,./img/gray_GeorgeClooney4_2.png,0,40,40,27,,,1.ja,10.702,None,act,1.1,None,None,None,None,None,George Clooney,"['lshift', 'g', 'e', 'o', 'a', 'backspace', 'r', 'h', 'e', 'space', 'lshift', 'v', 'backspace', 'backspace', 'backspace', 'insert', 'backspace', 'g', 'e', 'space', 'lshift', 'c', 'l', 'o', 'o', 'n', 'e', 'y', 'return']","[0.5667255080388713, 0.7499263012596202, 0.949898650196701, 1.1998786817694054, 1.3497971560464066, 1.799533332199644, 1.9329468172563793, 2.099457853140848, 2.182737910599826, 2.316070880384359, 2.5658706347330735, 2.6990861997783213, 3.0156963079407433, 3.1491059436630167, 3.298979509023411, 3.6654738002980594, 3.915594332622277, 4.131936944031622, 4.1819542500034, 4.54819769290043, 4.664959593201274, 4.798387513266789, 5.064841418594369, 5.2147762525492, 5.33159749677543, 5.514739266847755, 5.597960621937091, 5.847849231784494, 6.26441343661827]",2017_Feb_07_1327,60.0175773654,famFaceFilter,001,12,
14,./img/gray_JoshRadnor(Ted)6_2.png,0,41,41,13,,,2.nein,2.564,None,dummy,0.956,None,None,None,None,None,,['return'],[0.5335301199284004],2017_Feb_07_1327,60.0175773654,famFaceFilter,001,12,
22,./img/gray_GuentherJauch4_1.png,0,42,42,21,,,1.ja,0.939,None,None,None,host,0.939,None,None,None,Günther Jauch,"['lshift', 'g', u'\xfc', 'n', 't', 'h', 'e', 'r', 'space', 'lshift', 'j', 'a', 'u', 'c', 'h', 'return']","[0.3667820291193493, 0.750197679428311, 1.0001048943995556, 1.2999466546225449, 1.5331111838931974, 1.6997777970955212, 1.7664117230233387, 1.882861185576985, 1.9496725017252174, 2.266144033803357, 2.3827596593473572, 2.499506483083678, 2.615946322297532, 2.749268385630785, 2.8158695922047627, 3.0490405370346707]",2017_Feb_07_1327,60.0175773654,famFaceFilter,001,12,
15,./img/gray_GeorgeClooney11_1.png,0,43,43,14,,,1.ja,1.189,None,act,0.54,None,None,None,None,None,George Clooney,"['lshift', 'h', 'backspace', 'lshift', 'g', 'e', 'o', 'r', 'g', 'e', 'space', 'lshift', 'c', 'l', 'o', 'o', 'n', 'e', 'y', 'return']","[0.38346889945205476, 0.8001132987810706, 1.1165328648257855, 1.2165819117781211, 1.382998959716133, 1.4831099168186483, 1.6496539928357379, 1.8495509589483845, 2.1162233140785247, 2.1827972545252123, 2.3493923342393828, 2.5326191104759346, 2.665910379124398, 2.982608059674021, 3.1825088751247677, 3.3323144355545082, 3.5156358412932605, 3.6322052748091664, 3.9321038127345673, 4.182132281779559]",2017_Feb_07_1327,60.0175773654,famFaceFilter,001,12,
