num,pic,trials.thisRepN,trials.thisTrialN,trials.thisN,trials.thisIndex,key_resp_2.keys,key_resp_2.rt,ratingBekannt.response,ratingBekannt.rt,key_resp_5.keys,ratingK1.response,ratingK1.rt,ratingK2.response,ratingK2.rt,ratingK3.response,ratingK3.rt,key_resp_6.keys,inputText,key_resp_4.keys,key_resp_4.rt,date,frameRate,expName,session,participant,
,,,,,,space,10.5110072779,,,,,,,,,,,,,,2017_Feb_08_1104,60.0380559131,famFaceFilter,001,13,
34,./img/smoo15_EmilyDeschanel5_1.png,0,0,0,33,,,2.nein,10.33,None,act,4.165,None,None,None,None,None,,['return'],[1.1165673101104403],2017_Feb_08_1104,60.0380559131,famFaceFilter,001,13,
64,./img/smoo15_JoachimLoew8_1.png,0,1,1,63,,,1.ja,1.542,None,None,None,None,None,sport,1.007,None,Löw,"['lshift', 'l', u'\xf6', 'w', 'return']","[0.9666516113470607, 1.266425589082246, 1.6664878847450382, 2.516115393893415, 3.249292036420229]",2017_Feb_08_1104,60.0380559131,famFaceFilter,001,13,
14,./img/smoo15_BritneySpears7_1.png,0,2,2,13,,,1.ja,1.476,None,None,None,music,0.673,None,None,None,Britney Spears,"['lshift', 'n', 'lshift', 'backspace', 'b', 'r', 'i', 't', 'n', 'e', 'y', 'space', 'lshift', 's', 'p', 'e', 'a', 'r', 's', 'return']","[0.766798978119823, 1.1499426443642733, 1.3162707801902798, 1.4832699897860948, 1.7328115937934854, 1.9997254114978205, 2.1827514794417766, 2.43283873186283, 2.766106412026147, 2.8493028788166157, 3.032485487869053, 3.232569083387716, 3.3323710973786547, 3.4156323619226896, 3.598937830083287, 3.7157004957989557, 3.865557491646541, 4.015619787309333, 4.2154021695055235, 4.415340130467939]",2017_Feb_08_1104,60.0380559131,famFaceFilter,001,13,
10,./img/smoo15_KatjaBurkard5_3.png,0,3,3,9,,,2.nein,1.823,None,act,0.875,None,None,None,None,None,,['return'],[0.8669121496427579],2017_Feb_08_1104,60.0380559131,famFaceFilter,001,13,
40,./img/smoo15_NeilPatrickHarris(Barney)2_2.png,0,4,4,39,,,2.nein,1.483,None,act,0.758,None,None,None,None,None,,['return'],[0.8168523560716494],2017_Feb_08_1104,60.0380559131,famFaceFilter,001,13,
57,./img/smoo15_UrsulavonderLeyen5_1.png,0,5,5,56,,,2.nein,2.412,None,None,None,host,2.939,None,None,None,,['return'],[0.6501883625801383],2017_Feb_08_1104,60.0380559131,famFaceFilter,001,13,
41,./img/smoo15_AngelaMerkel3_1.png,0,6,6,40,,,1.ja,1.231,None,None,None,None,None,polit,1.358,None,Angela Merkel,"['lshift', 'a', 'n', 'g', 'e', 'l', 'a', 'space', 'lshift', 'm', 'e', 'r', 'k', 'e', 's', 'backspace', 'l', 'return']","[0.5168445290164527, 0.6168749390517405, 0.9001476233979702, 1.1498659777148532, 1.2165486406584023, 1.3663780493438935, 1.4663561720822145, 1.8496480391299883, 1.9496069150109179, 2.0829292562498267, 2.2162464649936737, 2.3161142390817986, 2.615747714756253, 2.7327262660583074, 2.949343874623537, 3.2993049959709424, 3.549061844003063, 4.3487591550883735]",2017_Feb_08_1104,60.0380559131,famFaceFilter,001,13,
28,./img/smoo15_HughLaurie(DrHouse)5_3.png,0,7,7,27,,,1.ja,4.639,None,act,0.799,None,None,None,None,None,,['return'],[0.6335725503881804],2017_Feb_08_1104,60.0380559131,famFaceFilter,001,13,
63,./img/smoo15_RobertSeanLeonard(Wilson)8_1.png,0,8,8,62,,,2.nein,1.49,None,None,None,music,2.44,None,None,None,,['return'],[0.6335953258367226],2017_Feb_08_1104,60.0380559131,famFaceFilter,001,13,
26,./img/smoo15_TomCruise4_1.png,0,9,9,25,,,1.ja,2.39,None,act,2.09,None,None,None,None,None,,['return'],[0.9667093519196897],2017_Feb_08_1104,60.0380559131,famFaceFilter,001,13,
59,./img/smoo15_JoshRadnor(Ted)1_2.png,0,10,10,58,,,2.nein,1.474,None,None,None,host,1.056,None,None,None,,['return'],[0.6668619153442705],2017_Feb_08_1104,60.0380559131,famFaceFilter,001,13,
24,./img/smoo15_BastianSchweinsteiger1_1.png,0,11,11,23,,,1.ja,1.458,None,None,None,None,None,sport,0.808,None,Sebastian Schweinsteiger,"['lshift', 's', 'e', 'b', 'a', 's', 't', 'i', 'a', 'n', 'space', 'lshift', 's', 'c', 'h', 'w', 'e', 'i', 'n', 's', 't', 'e', 'i', 'g', 'e', 'r', 'return']","[0.4169267130987464, 0.6001375508758429, 0.8168388832718847, 1.2667633714336262, 1.3832909047050634, 1.5996926276839076, 1.7331612450407192, 1.883040695555792, 1.9996041562949358, 2.4497371520810702, 2.61615286110964, 2.69936793319539, 2.815925940658417, 2.932712985726539, 3.016140094027378, 3.2157742754202445, 3.3325096747539646, 3.4823958616689197, 3.6490178328554066, 3.7822230890437822, 3.982271398656394, 4.215651416312085, 4.348721944497356, 4.631956135128348, 4.831850790661065, 4.931931563306989, 5.098414636337111]",2017_Feb_08_1104,60.0380559131,famFaceFilter,001,13,
35,./img/smoo15_KatjaBurkard1_1.png,0,12,12,34,,,2.nein,2.025,None,dummy,1.141,None,None,None,None,None,,['return'],[0.6834860678413861],2017_Feb_08_1104,60.0380559131,famFaceFilter,001,13,
25,./img/smoo15_JasonSegel(Marshall)6_1.png,0,13,13,24,,,2.nein,1.466,None,None,None,host,1.241,None,None,None,,['return'],[0.6503301477646346],2017_Feb_08_1104,60.0380559131,famFaceFilter,001,13,
19,./img/smoo15_NicoleKidman7_1.png,0,14,14,18,,,2.nein,4.517,None,dummy,2.232,None,None,None,None,None,,['return'],[0.816756763345893],2017_Feb_08_1104,60.0380559131,famFaceFilter,001,13,
16,./img/smoo15_WillSmith4_1.png,0,15,15,15,,,1.ja,1.275,None,act,1.241,None,None,None,None,None,Will Smith,"['lshift', 'w', 'i', 'l', 'l', 'lshift', 'space', 's', 'm', 'i', 't', 'h', 'return']","[0.5333669939486754, 0.8498161283532681, 1.0667500269455559, 1.3164266797371056, 1.4832013426607773, 1.6165734049486673, 1.733123713668192, 1.9331020930312661, 2.132838603550681, 2.449408351596503, 2.4994373501949667, 2.682703683078671]",2017_Feb_08_1104,60.0380559131,famFaceFilter,001,13,
8,./img/smoo15_AngelaMerkel4_1.png,0,16,16,7,,,1.ja,1.097,None,None,None,None,None,polit,0.874,None,Angela Merkel,"['lshift', 'a', 'n', 'g', 'e', 'l', 'a', 'space', 'lshift', 'm', 'e', 'r', 'k', 'e', u'\xf6', 'l', 'backspace', 'backspace', 'l', 'return']","[0.8335400231990207, 1.0334099785977742, 1.3498818884504544, 1.5665184230924751, 1.649803746208363, 1.7996357211413851, 1.8995782371935093, 2.049654005656066, 2.182814031729322, 2.3164003756987768, 2.432762065213865, 2.499433500824125, 2.6826504334394485, 2.7994374785080254, 3.032628235397169, 3.3823680178816176, 3.5490660141554145, 4.098618011465987, 4.315357837577267]",2017_Feb_08_1104,60.0380559131,famFaceFilter,001,13,
65,./img/smoo15_UrsulavonderLeyen4_1.png,0,17,17,64,,,2.nein,3.513,None,dummy,4.14,None,None,None,None,None,,['return'],[0.7168347772753805],2017_Feb_08_1104,60.0380559131,famFaceFilter,001,13,
43,./img/smoo15_JoachimLoew1_1.png,0,18,18,42,,,1.ja,1.087,None,None,None,None,None,sport,0.94,None,Löw,"['lshift', 'l', u'\xf6', 'g', 'backspace', 'w', 'return']","[0.6000605634453677, 0.8666436559792601, 1.100012446301207, 1.3498000893055178, 1.6497389484543419, 1.7830147764543653, 2.0162462725252226]",2017_Feb_08_1104,60.0380559131,famFaceFilter,001,13,
9,./img/smoo15_EmilyDeschanel6_12.png,0,19,19,8,,,2.nein,3.025,None,act,1.024,None,None,None,None,None,,['return'],[0.650131584349765],2017_Feb_08_1104,60.0380559131,famFaceFilter,001,13,
20,./img/smoo15_NicoleKidman5_1.png,0,20,20,19,,,2.nein,2.048,None,None,None,None,None,sport,4.389,None,,['return'],[0.7664721023211314],2017_Feb_08_1104,60.0380559131,famFaceFilter,001,13,
38,./img/smoo15_AlysonHannigan(Lily)5_4.png,0,21,21,37,,,2.nein,2.962,None,dummy,1.441,None,None,None,None,None,,['return'],[0.9001546805789076],2017_Feb_08_1104,60.0380559131,famFaceFilter,001,13,
69,./img/smoo15_BritneySpears5_1.png,0,22,22,68,,,1.ja,1.234,None,None,None,music,0.691,None,None,None,Britney Spears,"['lshift', 'b', 'r', 'i', 't', 'n', 'e', 'y', 'space', 'lshift', 's', 'p', 'e', 'a', 'r', 's', 'return']","[0.399585615155047, 0.7001628284156141, 0.9500916150423109, 1.0499529735111537, 1.250027587162549, 1.516456704835491, 1.6165041162612397, 1.8164443226901312, 2.09956110748999, 2.2159218346619127, 2.316201812284362, 2.4828712590524447, 2.599420926210314, 2.749273110343438, 2.949334571975669, 3.132494726361074, 4.04888413135086]",2017_Feb_08_1104,60.0380559131,famFaceFilter,001,13,
46,./img/smoo15_NeilPatrickHarris(Barney)1_1.png,0,23,23,45,,,2.nein,1.898,None,None,None,None,None,sport,2.357,None,,['return'],[2.1497065495773313],2017_Feb_08_1104,60.0380559131,famFaceFilter,001,13,
23,./img/smoo15_JoachimLoew4_1.png,0,24,24,22,,,1.ja,3.256,None,None,None,None,None,sport,1.458,None,Löw,"['lshift', 'l', u'\xf6', 'w', 'return']","[0.8499460446423655, 1.0499792775499373, 1.2332353454426084, 1.349748122789606, 1.5830598141010341]",2017_Feb_08_1104,60.0380559131,famFaceFilter,001,13,
71,./img/smoo15_AngelaMerkel1_1.png,0,25,25,70,,,1.ja,1.353,None,None,None,None,None,polit,0.758,None,Angela Merkel,"['capslock', 'lshift', 'a', 'n', 'g', 'e', 'l', 'a', 'space', 'lshift', 'm', 'e', 'r', 'l', 'e', 'backspace', 'backspace', 'k', 'e', 'l', 'delete', 'return']","[0.8667151901336183, 0.8834990915484013, 1.1496577908715153, 1.3499742733670246, 1.5165808470674165, 1.5998847754790404, 1.8331708043133403, 2.1328398866744465, 2.349620131186839, 2.399482644467298, 2.5328797276697514, 2.6327667486157225, 2.716026730035992, 2.899230189851096, 3.016100958750485, 3.249182008551088, 3.399092254038351, 3.6488731606423244, 3.782428068077479, 4.015775366075559, 4.248821450751166, 4.881889412688906]",2017_Feb_08_1104,60.0380559131,famFaceFilter,001,13,
45,./img/smoo15_RobertSeanLeonard(Wilson)2_6.png,0,26,26,44,,,1.ja,5.061,None,act,0.786,None,None,None,None,None,,['return'],[0.7001477517101193],2017_Feb_08_1104,60.0380559131,famFaceFilter,001,13,
50,./img/smoo15_OmarEpps(DrEricForeman)2_2.png,0,27,27,49,,,2.nein,7.478,None,None,None,music,1.134,None,None,None,,['return'],[0.616885204042319],2017_Feb_08_1104,60.0380559131,famFaceFilter,001,13,
39,./img/smoo15_BarackObama2_1.png,0,28,28,38,,,1.ja,1.506,None,None,None,None,None,polit,1.024,None,Barack Obama,"['lshift', 'b', 'a', 'r', 'a', 'c', 'k', 'space', 'lshift', 'o', 'b', 'a', 'n', 'backspace', 'm', 'a', 'return']","[0.6000201450442546, 0.816821240318859, 1.050159556449671, 1.2833118196235773, 1.4161622920696573, 1.649824596970575, 1.7830417220548043, 1.9329407402083234, 1.9996064017614117, 2.1329171948859766, 2.3662250368256537, 2.5160736923685363, 2.7326707709521543, 3.0491802121773617, 3.2992292916642327, 3.4157122363822054, 3.5657392461389463]",2017_Feb_08_1104,60.0380559131,famFaceFilter,001,13,
68,./img/smoo15_AlysonHannigan(Lily)8_3.png,0,29,29,67,,,2.nein,1.624,None,act,3.207,None,None,None,None,None,,['return'],[0.8167468191363696],2017_Feb_08_1104,60.0380559131,famFaceFilter,001,13,
15,./img/smoo15_LisaEdelstein(DrLisaCuddy)1_1.png,0,30,30,14,,,2.nein,1.395,None,None,None,music,1.274,None,None,None,,['return'],[0.8001412719349901],2017_Feb_08_1104,60.0380559131,famFaceFilter,001,13,
67,./img/smoo15_GeorgeClooney4_2.png,0,31,31,66,,,1.ja,5.89,None,act,0.902,None,None,None,None,None,,['return'],[5.398315001770698],2017_Feb_08_1104,60.0380559131,famFaceFilter,001,13,
48,./img/smoo15_JoshRadnor(Ted)6_2.png,0,32,32,47,,,2.nein,3.118,None,None,None,host,2.79,None,None,None,,['return'],[0.6501303012259996],2017_Feb_08_1104,60.0380559131,famFaceFilter,001,13,
5,./img/smoo15_BarackObama1_3.png,0,33,33,4,,,1.ja,1.141,None,None,None,None,None,polit,0.924,None,Barack Obama,"['lshift', 'b', 'a', 'r', 'a', 'c', 'k', 'space', 'lshift', 'o', 'b', 'a', 'm', 'a', 'return']","[0.5167694662718532, 0.8000783988668445, 1.016735142708967, 1.249781868946684, 1.3841765809365825, 1.633120249233798, 1.7496359136098363, 1.8996895481864158, 1.9662262557931172, 2.0497200865338527, 2.316253458018764, 2.4491206110747044, 2.5993606193892447, 2.7159269671569746, 2.865587965838131]",2017_Feb_08_1104,60.0380559131,famFaceFilter,001,13,
21,./img/smoo15_NeilPatrickHarris(Barney)3_7.png,0,34,34,20,,,2.nein,1.752,None,act,0.541,None,None,None,None,None,,['return'],[0.7168097563603624],2017_Feb_08_1104,60.0380559131,famFaceFilter,001,13,
51,./img/smoo15_LeonardoDiCaprio1_1.png,0,35,35,50,,,1.ja,1.241,None,act,1.275,None,None,None,None,None,Leonardo DiCaprio,"['lshift', 'l', 'e', 'o', 'n', 'a', 'r', 'd', 'o', 'space', 'lshift', 'd', 'i', 'lshift', 'v', 'c', 'backspace', 'backspace', 'lshift', 'c', 'a', 'capslock', 'p', 'r', 'i', 'o', 'return']","[0.850077244055683, 1.2499711297136855, 1.449881182732497, 1.7330624445053218, 1.9995996653615293, 2.099691344560142, 2.315991059193493, 2.716100830437881, 2.865901368836603, 3.132489593866012, 3.199080513455101, 3.2991583990724394, 3.4824266566415645, 3.7489924270034862, 3.9822794181804966, 4.398563927796204, 4.548650282030849, 4.631947153261535, 4.731546754466763, 5.0151392574307465, 5.043626852189391, 5.614794353742127, 5.99803649974092, 6.114712233816135, 6.347623590488638, 6.5978372306085475]",2017_Feb_08_1104,60.0380559131,famFaceFilter,001,13,
42,./img/smoo15_OmarEpps(DrEricForeman)1_5.png,0,36,36,41,,,2.nein,1.564,None,None,None,music,2.057,None,None,None,,['return'],[0.5515292911509277],2017_Feb_08_1104,60.0380559131,famFaceFilter,001,13,
37,./img/smoo15_Ice-T(OdafinFinTutuola)5_1.png,0,37,37,36,,,2.nein,1.663,None,dummy,2.907,None,None,None,None,None,,['return'],[0.7170314160039197],2017_Feb_08_1104,60.0380559131,famFaceFilter,001,13,
11,./img/smoo15_LeonardoDiCaprio3_1.png,0,38,38,10,,,1.ja,1.063,None,act,1.308,None,None,None,None,None,Leonardo DiCaprio,"['lshift', 'l', 'e', 'o', 'n', 'a', 'r', 'd', 'o', 'space', 'lshift', 'd', 'i', 'lshift', 'c', 'a', 'p', 'r', 'i', 'o', 'return']","[0.5167771650149007, 1.000104253811969, 1.5666239600282097, 1.7998474365749644, 2.116490322679965, 2.199567138171915, 2.3996699805475146, 2.6826465840676974, 2.8328407207050077, 3.066066121937638, 3.115941466456661, 3.1993300810418077, 3.349092125725292, 3.648911012794997, 3.74894110204923, 4.065639162479329, 4.348909280578027, 4.532120439136179, 4.648560399205508, 4.831909814357459, 5.048656376868621]",2017_Feb_08_1104,60.0380559131,famFaceFilter,001,13,
17,./img/smoo15_GeorgeClooney11_1.png,0,39,39,16,,,1.ja,3.138,None,act,0.891,None,None,None,None,None,,['return'],[17.976571762550066],2017_Feb_08_1104,60.0380559131,famFaceFilter,001,13,
62,./img/smoo15_RobertSeanLeonard(Wilson)1_1.png,0,40,40,61,,,2.nein,2.972,None,None,None,host,0.924,None,None,None,,['return'],[0.6834719534790565],2017_Feb_08_1104,60.0380559131,famFaceFilter,001,13,
60,./img/smoo15_LeonardoDiCaprio2_1.png,0,41,41,59,,,1.ja,1.361,None,dummy,0.974,None,None,None,None,None,Leonardo DiCaprio,"['lshift', 'l', 'e', 'o', 'n', 'a', 'r', 'd', 'o', 'space', 'lshift', 'd', 'i', 'v', 'lshift', 'backspace', 'v', 's', 'a', 'backspace', 'backspace', 'backspace', 'lshift', 'c', 'a', 'p', 'r', 'i', 'o', 'return']","[0.800125874448895, 1.066803276585233, 1.2166012487359694, 1.5166023393912837, 1.833101515625458, 1.983034857342318, 2.1659807300457032, 2.482650561751143, 2.6328488685412594, 2.915860116404474, 3.0159242084409925, 3.0992772163399422, 3.2327419843250027, 3.665728916991611, 3.9823336301624295, 4.065458883579595, 4.398782379629665, 4.698590360147136, 4.848608708817665, 4.998541729753015, 5.198371908312765, 5.548355484327658, 5.798109445330738, 6.064634155730346, 6.248134337933152, 7.131034531428668, 7.2309042302022135, 7.58077617444269]",2017_Feb_08_1104,60.0380559131,famFaceFilter,001,13,
55,./img/smoo15_MariskaHargitay(Liv)4_4.png,0,42,42,54,,,2.nein,2.035,None,None,None,music,1.307,None,None,None,,['return'],[0.7333572422076031],2017_Feb_08_1104,60.0380559131,famFaceFilter,001,13,
31,./img/smoo15_BritneySpears1_1.png,0,43,43,30,,,1.ja,1.201,None,None,None,music,0.658,None,None,None,Britney Spears,"['lshift', 'b', 'r', 'i', 't', 'n', 'e', 'y', 'space', 'lshift', 's', 'p', 'e', 'a', 'r', 's', 'return']","[0.48342011527620343, 0.7667909585961752, 0.9667273156537703, 1.11672064341019, 1.3332375267536918, 1.6996681841746977, 1.7830128517689445, 1.9993096793732548, 2.2662716142212957, 2.332768865770049, 2.4828096691080646, 2.682622525496299, 2.765929020155454, 2.9158540215667017, 3.099161093632574, 3.2824017640386955, 3.482442695689315]",2017_Feb_08_1104,60.0380559131,famFaceFilter,001,13,
61,./img/smoo15_OmarEpps(DrEricForeman)3_1.png,0,44,44,60,,,2.nein,5.625,None,act,0.899,None,None,None,None,None,,['return'],[0.8833823272789232],2017_Feb_08_1104,60.0380559131,famFaceFilter,001,13,
2,./img/smoo15_WillSmith5_1.png,0,45,45,1,,,1.ja,1.22,None,act,0.658,None,None,None,None,None,Will Smith,"['lshift', 'w', 'i', u'\xf6', 'l', u'\xf6', 'backspace', 'backspace', 'backspace', 'l', 'l', 'space', 'lshift', 's', 'm', 'i', 't', 'h', 'return']","[0.5319273289987905, 0.9651400914617625, 1.1151401556180645, 1.4979389823292877, 1.6815491924025991, 2.0481097661122476, 2.2146425601913506, 2.3480290576226253, 2.897687554212098, 3.0477479251894692, 3.1808640042709158, 3.24754698799552, 3.3808414212908247, 4.047618329681427, 4.2804793237428385, 4.696988380031144, 4.780289742195237, 4.946923261495613]",2017_Feb_08_1104,60.0380559131,famFaceFilter,001,13,
32,./img/smoo15_TomCruise1_1.png,0,46,46,31,,,1.ja,5.555,None,act,0.853,None,None,None,None,None,,['return'],[1.1666944676835556],2017_Feb_08_1104,60.0380559131,famFaceFilter,001,13,
33,./img/smoo15_Ice-T(OdafinFinTutuola)7_1.png,0,47,47,32,,,2.nein,1.503,None,act,1.257,None,None,None,None,None,,['return'],[0.8499800474246513],2017_Feb_08_1104,60.0380559131,famFaceFilter,001,13,
12,./img/smoo15_MariskaHargitay(Liv)8_8.png,0,48,48,11,,,2.nein,1.185,None,None,None,host,1.074,None,None,None,,['return'],[0.7336244527477902],2017_Feb_08_1104,60.0380559131,famFaceFilter,001,13,
6,./img/smoo15_AlysonHannigan(Lily)1_1.png,0,49,49,5,,,2.nein,1.501,None,None,None,music,1.274,None,None,None,,['return'],[0.683546695442601],2017_Feb_08_1104,60.0380559131,famFaceFilter,001,13,
70,./img/smoo15_JasonSegel(Marshall)7_1.png,0,50,50,69,,,2.nein,2.319,None,None,None,None,None,sport,0.841,None,,['return'],[0.6000297684731777],2017_Feb_08_1104,60.0380559131,famFaceFilter,001,13,
72,./img/smoo15_HughLaurie(DrHouse)2_1.png,0,51,51,71,,,2.nein,2.717,None,None,None,host,1.024,None,None,None,,['return'],[0.6334583523666879],2017_Feb_08_1104,60.0380559131,famFaceFilter,001,13,
13,./img/smoo15_GeorgeClooney3_1.png,0,52,52,12,,,2.nein,1.467,None,None,None,None,None,polit,1.607,None,,['return'],[0.683454952088141],2017_Feb_08_1104,60.0380559131,famFaceFilter,001,13,
36,./img/smoo15_BastianSchweinsteiger6_2.png,0,53,53,35,,,1.ja,1.356,None,None,None,None,None,sport,0.875,None,Sebastian Schweinsteiger,"['lshift', 's', 'e', 'b', 'a', 's', 't', 'i', 'a', 'n', 'space', 'lshift', 's', 'c', 'h', 'w', 'e', 'i', 'n', 's', 't', 'e', 'i', 'g', 'e', 'r', 'return']","[0.5003544629616954, 0.9333410748477036, 1.200000834031016, 1.4330026509342133, 1.5164448359400922, 1.7664810841888539, 1.932921172569877, 2.06624255146653, 2.18299270672469, 2.432906416645892, 2.5827063134829586, 2.632627529678757, 2.7326409383231294, 2.832673914605948, 2.9326799452874184, 3.08246444463839, 3.2157425181048893, 3.365757017404576, 3.5157189086266953, 3.649052797980403, 3.8489570769415877, 4.065514699466803, 4.232086628822799, 4.382057822693241, 4.565338911500476, 4.66496032581108, 4.931926751592073]",2017_Feb_08_1104,60.0380559131,famFaceFilter,001,13,
56,./img/smoo15_MariskaHargitay(Liv)6_5.png,0,54,54,55,,,2.nein,1.672,None,dummy,1.441,None,None,None,None,None,,['return'],[0.9669794494884627],2017_Feb_08_1104,60.0380559131,famFaceFilter,001,13,
18,./img/smoo15_HughLaurie(DrHouse)4_1.png,0,55,55,17,,,2.nein,1.785,None,None,None,music,1.324,None,None,None,,['return'],[0.6337262044680756],2017_Feb_08_1104,60.0380559131,famFaceFilter,001,13,
27,./img/smoo15_JasonSegel(Marshall)9_1.png,0,56,56,26,,,2.nein,0.946,None,None,None,host,0.991,None,None,None,,['return'],[0.6337050329248086],2017_Feb_08_1104,60.0380559131,famFaceFilter,001,13,
66,./img/smoo15_NicoleKidman3_1.png,0,57,57,65,,,2.nein,2.519,None,act,0.658,None,None,None,None,None,,['return'],[0.6166141441308355],2017_Feb_08_1104,60.0380559131,famFaceFilter,001,13,
7,./img/smoo15_LisaEdelstein(DrLisaCuddy)2_2.png,0,58,58,6,,,2.nein,1.441,None,None,None,music,0.973,None,None,None,,['return'],[0.7334942156776378],2017_Feb_08_1104,60.0380559131,famFaceFilter,001,13,
53,./img/smoo15_GuentherJauch4_1.png,0,59,59,52,,,1.ja,1.773,None,None,None,host,2.507,None,None,None,Günter Jauch,"['lshift', 'g', u'\xfc', 'n', 't', 'e', 'r', 'space', 'lshift', 'j', 'a', 'u', 'c', 'h', 'return']","[1.0832529242388773, 1.2997858466305843, 1.4998864435392534, 1.6664686378862825, 1.8496079415099302, 2.032773228390397, 2.116142596118152, 2.24953903775895, 2.2993944938589266, 2.4325234041780277, 2.549396097763747, 2.6994882260551094, 3.182498383263919, 3.232400031821271, 3.4490654367491516]",2017_Feb_08_1104,60.0380559131,famFaceFilter,001,13,
58,./img/smoo15_EmilyDeschanel3_1.png,0,60,60,57,,,2.nein,1.671,None,act,0.641,None,None,None,None,None,,['return'],[0.6668131566384545],2017_Feb_08_1104,60.0380559131,famFaceFilter,001,13,
3,./img/smoo15_JoshRadnor(Ted)3_1.png,0,61,61,2,,,2.nein,1.685,None,None,None,host,1.157,None,None,None,,['return'],[0.6164608108319953],2017_Feb_08_1104,60.0380559131,famFaceFilter,001,13,
44,./img/smoo15_GuentherJauch2_1.png,0,62,62,43,,,1.ja,1.325,None,None,None,host,0.557,None,None,None,Günter Jauch,"['lshift', 'g', u'\xfc', 'n', 't', 'e', 'r', 'space', 'lshift', 'j', 'a', 'u', 'c', 'h', 'return']","[0.4168686517441529, 0.866928509472018, 1.1168175192597118, 1.3166688693618198, 1.4665123924096406, 1.6497315704918947, 1.7497013529255128, 1.899861807562047, 1.966256409203197, 2.0664051874127836, 2.232920338538861, 2.3496082622905305, 2.649435810446448, 2.6993137212130023, 2.8992802316806774]",2017_Feb_08_1104,60.0380559131,famFaceFilter,001,13,
22,./img/smoo15_WillSmith1_1.png,0,63,63,21,,,1.ja,1.525,None,act,0.808,None,None,None,None,None,Will Smith,"['lshift', 'w', 'i', 'l', 'l', 'space', 'lshift', 's', 'm', 'i', 't', 'h', 'return']","[0.46694833373567235, 0.7834237721790487, 0.9336326647398892, 1.1334314067653395, 1.26659143283905, 1.4998995955593273, 1.5999040223368866, 1.733086823857775, 1.966238766251081, 2.1329656328107376, 2.3496121116622817, 2.4493233446419254, 3.282522698460525]",2017_Feb_08_1104,60.0380559131,famFaceFilter,001,13,
29,./img/smoo15_GuentherJauch3_1.png,0,64,64,28,,,1.ja,1.446,None,None,None,host,0.857,None,None,None,Günter Jauch,"['lshift', 'g', u'\xfc', 'n', 't', 'e', 'r', 'space', 'lshift', 'j', 'a', 'u', 'c', 'h', 'return']","[0.48359301621349005, 0.750055174325098, 0.9166845234731227, 1.0999822928906724, 1.2332677443191642, 1.4331033761554863, 1.51652952211316, 1.7164065346933057, 1.7662902195170318, 1.883040374774282, 2.0663285207629087, 2.1829850079811877, 2.3329709577747053, 2.3825829411252926, 2.549518315309797]",2017_Feb_08_1104,60.0380559131,famFaceFilter,001,13,
30,./img/smoo15_KatjaBurkard4_1.png,0,65,65,29,,,2.nein,1.434,None,None,None,music,1.191,None,None,None,,['return'],[0.6668721803353037],2017_Feb_08_1104,60.0380559131,famFaceFilter,001,13,
47,./img/smoo15_BarackObama4_1.png,0,66,66,46,,,1.ja,1.307,None,None,None,None,None,polit,0.725,None,Barack Obama,"['lshift', 'b', 'a', 'r', 'a', 'c', 'k', 'space', 'lshift', 'o', 'b', 'a', 'm', 'a', 'return']","[0.550247771213435, 0.9833011055388852, 1.23325427151849, 1.4665002027331866, 1.599772502142514, 1.8496339247676588, 1.9496229540582135, 2.1162644928836016, 2.182914115388485, 2.266290540297632, 2.532840913173459, 2.7659444176406396, 3.015869675677095, 3.0824413484087927, 3.2492342958466907]",2017_Feb_08_1104,60.0380559131,famFaceFilter,001,13,
54,./img/smoo15_LisaEdelstein(DrLisaCuddy)6_3.png,0,67,67,53,,,2.nein,1.566,None,dummy,1.758,None,None,None,None,None,,['return'],[0.6836201542828348],2017_Feb_08_1104,60.0380559131,famFaceFilter,001,13,
52,./img/smoo15_BastianSchweinsteiger3_1.png,0,68,68,51,,,1.ja,1.085,None,None,None,None,None,sport,0.775,None,Sebastian Schweinsteiger,"['lshift', 's', 'e', 'b', 'a', 's', 't', 'i', 'a', 'n', 'space', 'lshift', 's', 'c', 'h', 'w', 'e', 'i', 'n', 's', 't', 'e', 'i', 'g', 'e', 'r', 'return']","[0.30028690649123746, 0.4503722983827174, 0.7001695648159512, 0.9166261413383836, 0.9997523570982594, 1.2332523468339787, 1.3995038160101103, 1.516554863809688, 1.632990012164555, 1.84973015905598, 1.9997353557073438, 2.029493243069737, 2.1822706287821347, 2.2654946827351523, 2.349157885822933, 2.5824265924848078, 2.632641644040632, 2.782434162915706, 2.9820802132044264, 3.2158220717828954, 3.398727526086077, 3.598816254099802, 3.7656544316532745, 3.9321968491613006, 4.115410894748493, 4.231803058453806, 4.455824612368815]",2017_Feb_08_1104,60.0380559131,famFaceFilter,001,13,
49,./img/smoo15_TomCruise5_1.png,0,69,69,48,,,1.ja,1.932,None,act,1.358,None,None,None,None,None,,['return'],[0.7335724862323332],2017_Feb_08_1104,60.0380559131,famFaceFilter,001,13,
1,./img/smoo15_Ice-T(OdafinFinTutuola)6_1.png,0,70,70,0,,,2.nein,1.642,None,act,0.675,None,None,None,None,None,,['return'],[0.6001818186477976],2017_Feb_08_1104,60.0380559131,famFaceFilter,001,13,
4,./img/smoo15_UrsulavonderLeyen1_1.png,0,71,71,3,,,2.nein,1.907,None,None,None,None,None,polit,2.84,None,,['return'],[0.5669941412561457],2017_Feb_08_1104,60.0380559131,famFaceFilter,001,13,
5,./img/edges5_AlysonHannigan(Lily)1_1.png,0,0,0,4,,,2.nein,4.817,None,act,1.577,None,None,None,None,None,,['return'],[0.7502749092836893],2017_Feb_08_1104,60.0380559131,famFaceFilter,001,13,
24,./img/edges5_JasonSegel(Marshall)7_1.png,0,1,1,23,,,2.nein,2.495,None,None,None,host,2.321,None,None,None,,['return'],[0.6501578883880939],2017_Feb_08_1104,60.0380559131,famFaceFilter,001,13,
44,./img/edges5_EmilyDeschanel5_1.png,0,2,2,43,,,2.nein,6.689,None,act,0.967,None,None,None,None,None,,['return'],[0.6502011938182477],2017_Feb_08_1104,60.0380559131,famFaceFilter,001,13,
60,./img/edges5_TomCruise1_1.png,0,3,3,59,,,2.nein,5.514,None,act,0.801,None,None,None,None,None,,['return'],[0.6334320483274496],2017_Feb_08_1104,60.0380559131,famFaceFilter,001,13,
27,./img/edges5_OmarEpps(DrEricForeman)2_2.png,0,4,4,26,,,2.nein,1.573,None,None,None,music,1.223,None,None,None,,['return'],[2.21617428927766],2017_Feb_08_1104,60.0380559131,famFaceFilter,001,13,
67,./img/edges5_LeonardoDiCaprio2_1.png,0,5,5,66,,,1.ja,1.896,None,act,2.09,None,None,None,None,None,Leonardo DiCaprio,"['lshift', 'l', 'e', 'o', 'a', 'n', 'backspace', 'backspace', 'n', 'a', 'r', 'd', 'o', 'space', 'lshift', 'd', 'i', 'lshift', 'v', 'a', 'backspace', 'backspace', 'lshift', 'c', 'capslock', 'a', 'p', 'r', 'i', 'o', 'return']","[0.4167865318186159, 0.6501995899134272, 0.7669362723709128, 1.0501175341432827, 1.4831606034786091, 1.5664584370524608, 1.9663536058342288, 2.082840079142443, 2.382559524115095, 2.4660709978079467, 2.5826126454421683, 2.8658773102642954, 2.9993449652783966, 3.1989518802893144, 3.2242384018436496, 3.282483563183632, 3.565636917012853, 3.948867835677447, 4.115480824996666, 4.381994628843131, 4.748622887336751, 4.898563607014694, 4.983437437447719, 5.098404371346078, 5.4815977586386, 5.948062996248154, 6.364574298002481, 6.597816379845426, 6.681093683438121, 6.897639116286882, 7.147527484512466]",2017_Feb_08_1104,60.0380559131,famFaceFilter,001,13,
37,./img/edges5_JasonSegel(Marshall)9_1.png,0,6,6,36,,,2.nein,1.535,None,None,None,host,1.123,None,None,None,,['return'],[0.633681615914611],2017_Feb_08_1104,60.0380559131,famFaceFilter,001,13,
9,./img/edges5_RobertSeanLeonard(Wilson)8_1.png,0,7,7,8,,,2.nein,2.062,None,dummy,3.39,None,None,None,None,None,,['return'],[1.2331051083720013],2017_Feb_08_1104,60.0380559131,famFaceFilter,001,13,
4,./img/edges5_LeonardoDiCaprio1_1.png,0,8,8,3,,,1.ja,1.273,None,act,1.006,None,None,None,None,None,Leonardo DiCaprio,"['lshift', 'l', 'e', 'o', 'n', 'a', 'r', 'd', 'o', 'lshift', 'd', 'space', 'backspace', 'backspace', 'space', 'lshift', 'd', 'i', 'lshift', 'c', 'a', 'p', 'r', 'i', 'o', 'return']","[0.4501981143212106, 0.783481833532278, 0.9834210776189138, 1.2665429949138343, 1.5664824956247685, 1.699638351545218, 1.8330678336251367, 2.1328921739714133, 2.2829175798233337, 2.5494275342980472, 2.799070505088821, 3.065984322793156, 3.332501655229862, 3.465692476274853, 3.998868605552161, 4.09871681200184, 4.19875524156123, 4.2988363349877545, 4.915128094253305, 5.131729984551384, 5.398207860929688, 5.5981310659681185, 5.748207155211276, 5.847996979526215, 5.998039065988451, 6.298042722891296]",2017_Feb_08_1104,60.0380559131,famFaceFilter,001,13,
71,./img/edges5_HughLaurie(DrHouse)4_1.png,0,9,9,70,,,2.nein,8.613,None,act,1.6,None,None,None,None,None,,['return'],[0.7835206480294801],2017_Feb_08_1104,60.0380559131,famFaceFilter,001,13,
10,./img/edges5_GuentherJauch4_1.png,0,10,10,9,,,1.ja,1.052,None,None,None,host,0.773,None,None,None,Günter Jauch,"['lshift', 'g', u'\xdc', 'n', 't', 'e', 'r', 'space', 'lshift', 'j', 'a', 'u', 'c', 'h', 'backspace', 'backspace', 'backspace', 'backspace', 'backspace', 'backspace', 'backspace', 'backspace', 'backspace', 'backspace', 'backspace', u'\xdc', 'n', 't', 'e', 'r', 'space', 'lshift', 'backspace', 'backspace', 'backspace', 'backspace', 'backspace', 'backspace', u'\xdc', u'\xdc', 'backspace', 'capslock', u'\xfc', 'n', 't', 'e', 'r', 'space', 'lshift', 'j', 'a', 'u', 'c', 'h', 'return']","[0.45005921616484557, 0.9833264472354131, 1.2166660464899905, 1.416538568136275, 1.5831406509032604, 1.7497106555738355, 1.8665496671574147, 1.9830367820277388, 2.049472122851512, 2.216250314365425, 2.382552787714303, 2.4827538532208564, 2.682773934108809, 2.7660294245961268, 5.81483079445843, 5.998262008755773, 6.131290835415712, 6.297995888870901, 6.414593031610821, 6.581075463079287, 6.731250994420407, 6.880907822949666, 7.047664201358202, 7.213999073584091, 7.380807097727484, 7.963976298136004, 8.163921637060412, 8.39710950692097, 8.580389312604893, 8.680438969497118, 8.796936670139985, 8.846871359135548, 9.446780193186896, 9.64637459774076, 9.796534410815184, 9.963142267639341, 10.12978637271135, 10.313027684679582, 11.029374233333328, 11.995672985623969, 12.64548410979387, 13.311968465948667, 13.678475790019547, 14.561404212238813, 14.827846161149864, 15.011189802245099, 15.127834099786014, 15.294127270487479, 15.327605254648915, 15.460949088212146, 15.660840215154167, 15.760771503872093, 15.91084791389676, 15.977413491790685, 16.460542337954394]",2017_Feb_08_1104,60.0380559131,famFaceFilter,001,13,
31,./img/edges5_GeorgeClooney4_2.png,0,11,11,30,,,1.ja,2.383,None,act,0.973,None,None,None,None,None,,['return'],[23.957601738889934],2017_Feb_08_1104,60.0380559131,famFaceFilter,001,13,
33,./img/edges5_BarackObama2_1.png,0,12,12,32,,,1.ja,1.683,None,None,None,None,None,polit,1.623,None,Barack Obama,"['lshift', 'b', 'a', 'r', 'a', 'c', 'k', 'space', 'lshift', 'o', 'b', 'a', 'm', 'a', 'return']","[3.182466625948109, 3.4824279397644204, 3.682350503240741, 3.8988991438991434, 4.032207049995122, 4.281796129585018, 4.381985005414208, 4.5653652155388045, 4.615170629807835, 4.715330956131766, 4.981830966396956, 5.148277149616661, 5.331583259339823, 5.415045974326858, 5.58148253411764]",2017_Feb_08_1104,60.0380559131,famFaceFilter,001,13,
14,./img/edges5_AngelaMerkel4_1.png,0,13,13,13,,,1.ja,1.644,None,None,None,None,None,polit,0.973,None,Angela Merkel,"['lshift', 'a', 'n', 'g', 'e', 'l', 'a', 'space', 'lshift', 'm', 'e', 'r', 'k', 'e', 'l', 'return']","[0.41745279387396295, 0.9833434486263286, 1.2166561022804672, 1.433209554653331, 1.5497868089742042, 1.7497619805271825, 1.8496939108081278, 2.066248325523702, 2.216196102383037, 2.3494902148977417, 2.466122001981603, 2.5661305989115135, 2.799116697547106, 2.899405657036368, 3.0992140224907416, 3.3324763135342437]",2017_Feb_08_1104,60.0380559131,famFaceFilter,001,13,
52,./img/edges5_BarackObama4_1.png,0,14,14,51,,,1.ja,1.701,None,None,None,None,None,polit,0.773,None,Barack Obama,"['lshift', 'b', 'a', 'c', 'k', 'backspace', 'backspace', 'r', 'a', 'c', 'k', 'space', 'lshift', 'o', 'b', 'a', 'm', 'a', 'return']","[0.3669567381966772, 0.7668320185593984, 1.0000548535444977, 1.2499037657125882, 1.3165841831896614, 1.7160806212377793, 1.84939365982882, 1.949576761600838, 2.2661894942957588, 2.5832022408476405, 2.6493251410156518, 2.849342334875473, 2.932660377648972, 3.015819954629478, 3.2325273818632922, 3.38233016572849, 3.731952542381805, 3.7988158050065977, 4.765384013303446]",2017_Feb_08_1104,60.0380559131,famFaceFilter,001,13,
7,./img/edges5_AngelaMerkel3_1.png,0,15,15,6,,,1.ja,1.952,None,None,None,None,None,polit,0.689,None,Angela Merkel,"['lshift', 'a', 'n', 'g', 'e', 'l', 'a', 'space', 'lshift', 'm', 'e', 'r', 'k', 'e', 'l', 'return']","[1.116589764777018, 1.2832547206126037, 1.449861935874651, 1.6165127773465429, 1.6997426053567324, 1.8830256188502972, 1.9996926918393, 2.4327742548894093, 2.9990931522243045, 3.199112591550147, 3.565692412118551, 3.682304310782456, 3.9487680727988845, 4.098920507911316, 4.265611447003721, 4.5320418478004285]",2017_Feb_08_1104,60.0380559131,famFaceFilter,001,13,
17,./img/edges5_NeilPatrickHarris(Barney)3_7.png,0,16,16,16,,,2.nein,1.831,None,act,1.056,None,None,None,None,None,,['return'],[0.8668896949757254],2017_Feb_08_1104,60.0380559131,famFaceFilter,001,13,
40,./img/edges5_NicoleKidman3_1.png,0,17,17,39,,,1.ja,5.387,None,act,1.316,None,None,None,None,None,,['return'],[1.6330329968122896],2017_Feb_08_1104,60.0380559131,famFaceFilter,001,13,
50,./img/edges5_WillSmith5_1.png,0,18,18,49,,,1.ja,1.432,None,act,1.44,None,None,None,None,None,Will Smith,"['lshift', 'w', 'i', 'l', 'l', 'space', 'lshift', 's', 'm', 'i', 't', 'h', 'return']","[0.4169709808711559, 0.6667926266572977, 0.8501221533897478, 1.0833125894978366, 1.233279292433508, 1.3499056262407976, 1.4335957749299268, 1.5332778168412915, 1.799726822933735, 2.032994567253809, 2.532831931306646, 2.5827499396928033, 2.7660146686712324]",2017_Feb_08_1104,60.0380559131,famFaceFilter,001,13,
42,./img/edges5_JoachimLoew4_1.png,0,19,19,41,,,1.ja,1.905,None,None,None,None,None,sport,0.672,None,Löw,"['lshift', 'l', u'\xf6', 'w', 'return']","[0.3835558697783199, 0.6834985782988952, 0.8831224947007286, 1.050120100391723, 1.2165406211352092]",2017_Feb_08_1104,60.0380559131,famFaceFilter,001,13,
3,./img/edges5_NicoleKidman5_1.png,0,20,20,2,,,1.ja,6.271,None,dummy,1.118,None,None,None,None,None,,['return'],[9.846410717676918],2017_Feb_08_1104,60.0380559131,famFaceFilter,001,13,
65,./img/edges5_LisaEdelstein(DrLisaCuddy)1_1.png,0,21,21,64,,,2.nein,1.873,None,None,None,music,2.789,None,None,None,,['return'],[0.7001977935397008],2017_Feb_08_1104,60.0380559131,famFaceFilter,001,13,
61,./img/edges5_NeilPatrickHarris(Barney)2_2.png,0,22,22,60,,,2.nein,1.464,None,None,None,host,3.189,None,None,None,,['return'],[0.7169245959448745],2017_Feb_08_1104,60.0380559131,famFaceFilter,001,13,
57,./img/edges5_BritneySpears5_1.png,0,23,23,56,,,1.ja,1.35,None,None,None,music,1.007,None,None,None,Britney Spears,"['lshift', 'b', 'r', 'i', 't', 'n', 'e', 'y', 'space', 'lshift', 's', 'p', 'e', 'a', 'f', 'backspace', 'r', 's', 'return']","[0.3337809297008789, 0.6336033453608252, 0.8503303402330857, 1.0168717953984014, 1.2001124658045228, 1.5834081822240478, 1.7000864825467943, 1.9832180232706378, 2.249829023748134, 2.333066550501826, 2.449510039161396, 2.632905967552688, 2.732820254879698, 2.8828899285044827, 3.1326631363654087, 3.549365302791557, 3.6492933837007513, 3.8487880253751428, 4.215634735702224]",2017_Feb_08_1104,60.0380559131,famFaceFilter,001,13,
29,./img/edges5_TomCruise4_1.png,0,24,24,28,,,1.ja,3.785,None,act,1.173,None,None,None,None,None,,['return'],[2.8160664427196025],2017_Feb_08_1104,60.0380559131,famFaceFilter,001,13,
66,./img/edges5_BritneySpears1_1.png,0,25,25,65,,,1.ja,4.928,None,None,None,music,1.982,None,None,None,Britney Spears,"['lshift', 'b', 'r', 'i', 't', 'n', 'e', 'y', 'space', 'lshift', 's', 'p', 'e', 'a', 'r', 's', 'return']","[0.8167657452122512, 0.9833639786074855, 1.1997932887488787, 1.516535937732442, 1.8331768991511126, 2.1161849392055956, 2.182902567274141, 2.4327752172330293, 2.6660676616866112, 2.7660685598730197, 2.8826233595264057, 3.066090180509491, 3.1492035650308026, 3.3157835139118106, 3.449155255418191, 3.6653802280879972, 3.8822663303171794]",2017_Feb_08_1104,60.0380559131,famFaceFilter,001,13,
59,./img/edges5_BastianSchweinsteiger3_1.png,0,26,26,58,,,2.nein,5.243,None,None,None,None,None,sport,2.75,None,,['return'],[0.7835042881997651],2017_Feb_08_1104,60.0380559131,famFaceFilter,001,13,
69,./img/edges5_GuentherJauch2_1.png,0,27,27,68,,,1.ja,1.494,None,None,None,host,0.823,None,None,None,Günter Jauch,"['lshift', 'g', u'\xfc', 'n', 't', 'e', 'r', 'space', 'lshift', 'j', 'a', 'u', 'c', 'h', 'return']","[0.40017007806454785, 0.6500937321961828, 0.883460597832709, 1.0833870106807808, 1.2166204955938156, 1.3832520902087708, 1.4998655927774962, 1.6830138782670474, 1.7498819526063016, 1.8830086174593816, 2.082847457105345, 2.1661481777073277, 2.3162951595431878, 2.3824928016747435, 2.5660099852693747]",2017_Feb_08_1104,60.0380559131,famFaceFilter,001,13,
58,./img/edges5_HughLaurie(DrHouse)5_3.png,0,28,28,57,,,2.nein,17.383,None,act,0.718,None,None,None,None,None,,['return'],[0.7335022352017404],2017_Feb_08_1104,60.0380559131,famFaceFilter,001,13,
54,./img/edges5_KatjaBurkard5_3.png,0,29,29,53,,,2.nein,1.589,None,None,None,host,1.039,None,None,None,,['return'],[0.7668701914935809],2017_Feb_08_1104,60.0380559131,famFaceFilter,001,13,
8,./img/edges5_LeonardoDiCaprio3_1.png,0,30,30,7,,,1.ja,1.372,None,act,1.989,None,None,None,None,None,Leonardo DiCaprio,"['lshift', 'l', 'e', 'o', 'n', 'a', 'r', 'd', 'o', 'lshift', 'space', 'd', 'i', 'lshift', 'c', 'a', 'p', 'r', 'i', 'o', 'return']","[0.5503735173506357, 0.9001245271692824, 1.0499648424074621, 1.3331008740642574, 1.6497299665879837, 1.7830545532933684, 1.8997511381312506, 2.1996640140223462, 2.3493445803414943, 2.5328316105260456, 2.5660571400712797, 2.649353690520911, 2.799172513434314, 3.065761380025833, 3.21586794346058, 3.4987691634551084, 3.798786613939228, 3.9988243377802064, 4.082143022115815, 4.332064109999919, 4.581925853405664]",2017_Feb_08_1104,60.0380559131,famFaceFilter,001,13,
70,./img/edges5_BastianSchweinsteiger1_1.png,0,31,31,69,,,2.nein,7.35,None,None,None,None,None,sport,1.001,None,,['return'],[0.6999183933230597],2017_Feb_08_1104,60.0380559131,famFaceFilter,001,13,
53,./img/edges5_KatjaBurkard4_1.png,0,32,32,52,,,2.nein,3.538,None,None,None,host,5.471,None,None,None,,['return'],[0.8501770069342456],2017_Feb_08_1104,60.0380559131,famFaceFilter,001,13,
51,./img/edges5_Ice-T(OdafinFinTutuola)6_1.png,0,33,33,50,,,2.nein,2.671,None,act,2.038,None,None,None,None,None,,['return'],[1.2165095053815094],2017_Feb_08_1104,60.0380559131,famFaceFilter,001,13,
6,./img/edges5_GuentherJauch3_1.png,0,34,34,5,,,1.ja,1.223,None,None,None,host,0.539,None,None,None,Günter Jauch,"['lshift', 'g', u'\xfc', 'n', 't', 'e', 'r', 'space', 'lshift', 'j', 'a', 'u', 'c', 'h', 'return']","[0.6168226517547737, 0.900091807510762, 1.066597014427316, 1.2665901497148297, 1.4499145439513086, 1.6331247401667497, 1.7165800771927024, 1.8664396392878189, 1.916289962891824, 2.0495754143203158, 2.216216632364194, 2.3326553093093025, 2.515802953237653, 2.5993115399023736, 3.2325257779575622]",2017_Feb_08_1104,60.0380559131,famFaceFilter,001,13,
49,./img/edges5_RobertSeanLeonard(Wilson)2_6.png,0,35,35,48,,,1.ja,13.584,None,act,1.132,None,None,None,None,None,,['return'],[0.8834554653385567],2017_Feb_08_1104,60.0380559131,famFaceFilter,001,13,
62,./img/edges5_AlysonHannigan(Lily)5_4.png,0,36,36,61,,,2.nein,2.27,None,None,None,None,None,sport,3.405,None,,['return'],[0.6835303356137956],2017_Feb_08_1104,60.0380559131,famFaceFilter,001,13,
47,./img/edges5_UrsulavonderLeyen5_1.png,0,37,37,46,,,2.nein,1.473,None,None,None,None,None,polit,4.239,None,,['return'],[0.4668809697341203],2017_Feb_08_1104,60.0380559131,famFaceFilter,001,13,
22,./img/edges5_JasonSegel(Marshall)6_1.png,0,38,38,21,,,2.nein,1.656,None,None,None,None,None,sport,3.139,None,,['return'],[0.43363106083597813],2017_Feb_08_1104,60.0380559131,famFaceFilter,001,13,
32,./img/edges5_Ice-T(OdafinFinTutuola)7_1.png,0,39,39,31,,,2.nein,1.173,None,None,None,host,1.089,None,None,None,,['return'],[0.6334718251664526],2017_Feb_08_1104,60.0380559131,famFaceFilter,001,13,
56,./img/edges5_NeilPatrickHarris(Barney)1_1.png,0,40,40,55,,,2.nein,1.631,None,act,0.49,None,None,None,None,None,,['return'],[0.5666326211139676],2017_Feb_08_1104,60.0380559131,famFaceFilter,001,13,
16,./img/edges5_BritneySpears7_1.png,0,41,41,15,,,1.ja,1.215,None,None,None,music,0.739,None,None,None,Britney Spears,"['lshift', 'b', 'r', 'i', 't', 'n', 'e', 'y', 'space', 'lshift', 's', 'p', 'e', 'a', 'r', 's', 'return']","[0.5503183430255376, 0.7334396829146499, 0.9834733649158807, 1.1168396531465987, 1.30011143930642, 1.5833748210043268, 1.6998109317019043, 1.9497143766329827, 2.199702507737129, 2.2996379666083158, 2.416411538876673, 2.5830036774332257, 2.682796709557806, 2.8163455221547338, 2.9995136960642412, 3.1992579053267036, 3.4826232953701037]",2017_Feb_08_1104,60.0380559131,famFaceFilter,001,13,
2,./img/edges5_OmarEpps(DrEricForeman)1_5.png,0,42,42,1,,,2.nein,1.234,None,act,4.488,None,None,None,None,None,,['return'],[1.0668472235765876],2017_Feb_08_1104,60.0380559131,famFaceFilter,001,13,
55,./img/edges5_JoachimLoew1_1.png,0,43,43,54,,,1.ja,1.439,None,None,None,None,None,sport,0.805,None,Löw,"['lshift', 'l', u'\xf6', 'w', 'return']","[0.5334709269800442, 0.7502870989592338, 1.050222750298417, 1.2168713463042877, 1.3667844788205912]",2017_Feb_08_1104,60.0380559131,famFaceFilter,001,13,
36,./img/edges5_AngelaMerkel1_1.png,0,44,44,35,,,1.ja,1.343,None,None,None,None,None,polit,0.557,None,Angela Merkel,"['lshift', 'a', 'n', 'g', 'e', 'l', 'a', 'space', 'lshift', 'm', 'e', 'r', 'k', 'e', 'l', 'return']","[0.5168567186929067, 0.9833697526646574, 1.1834321766400535, 1.3165463310360792, 1.399914736421124, 1.5997484435711158, 1.6997483794148138, 1.89977968763651, 2.032801777896566, 2.133041978680012, 2.2828492534781617, 2.3995326862968795, 2.566047195860847, 2.699401935977221, 2.9991678941887585, 3.415842152670848]",2017_Feb_08_1104,60.0380559131,famFaceFilter,001,13,
35,./img/edges5_WillSmith1_1.png,0,45,45,34,,,1.ja,1.259,None,dummy,0.491,None,None,None,None,None,Will Smith,"['lshift', 'w', 'i', 'l', 'l', 'space', 'lshift', 's', 'm', 'i', 'o', 'backspace', 't', 'j', 'h', 'backspace', 'backspace', 'h', 'return']","[0.36701576189352636, 0.5670153128003221, 0.7335243690886273, 0.9333465281242752, 1.0832975127932514, 1.183266332884159, 1.2331496969263753, 1.3165928442749646, 1.532943883862572, 1.7332805755586378, 2.199537626323945, 2.5661081442440263, 2.682812748606011, 3.1992803599932813, 3.382385019272988, 3.815579497220824, 4.365459011892199]",2017_Feb_08_1104,60.0380559131,famFaceFilter,001,13,
39,./img/edges5_AlysonHannigan(Lily)8_3.png,0,46,46,38,,,2.nein,3.238,None,act,0.923,None,None,None,None,None,,['return'],[0.8333687261656451],2017_Feb_08_1104,60.0380559131,famFaceFilter,001,13,
45,./img/edges5_WillSmith4_1.png,0,47,47,44,,,1.ja,1.206,None,act,2.772,None,None,None,None,None,Will Smith,"['lshift', 'w', 'i', 'l', 'l', 'space', 'lshift', 's', 'm', 'i', 't', 'h', 'return']","[0.3836187428469202, 0.5834617526443253, 0.7502854950553228, 0.9500351575934474, 1.1000451659592727, 1.2333591668939334, 1.2584288405178086, 1.3498616792503526, 1.5832295072295892, 1.7662860493646804, 2.0162950312314933, 2.11625936038854, 2.24957175741838]",2017_Feb_08_1104,60.0380559131,famFaceFilter,001,13,
34,./img/edges5_KatjaBurkard1_1.png,0,48,48,33,,,2.nein,2.825,None,None,None,host,0.689,None,None,None,,['return'],[0.7000579330415349],2017_Feb_08_1104,60.0380559131,famFaceFilter,001,13,
46,./img/edges5_TomCruise5_1.png,0,49,49,45,,,1.ja,1.456,None,act,8.287,None,None,None,None,None,,['return'],[1.73297968301722],2017_Feb_08_1104,60.0380559131,famFaceFilter,001,13,
68,./img/edges5_MariskaHargitay(Liv)4_4.png,0,50,50,67,,,2.nein,3.547,None,None,None,host,1.922,None,None,None,,['return'],[0.7002629120752317],2017_Feb_08_1104,60.0380559131,famFaceFilter,001,13,
13,./img/edges5_MariskaHargitay(Liv)6_5.png,0,51,51,12,,,2.nein,1.772,None,None,None,host,4.837,None,None,None,,['return'],[0.8668569753172051],2017_Feb_08_1104,60.0380559131,famFaceFilter,001,13,
18,./img/edges5_JoshRadnor(Ted)6_2.png,0,52,52,17,,,2.nein,1.646,None,dummy,1.54,None,None,None,None,None,,['return'],[0.7668682668072506],2017_Feb_08_1104,60.0380559131,famFaceFilter,001,13,
64,./img/edges5_EmilyDeschanel3_1.png,0,53,53,63,,,1.ja,12.871,None,None,None,music,0.833,None,None,None,,['return'],[0.9000042343086534],2017_Feb_08_1104,60.0380559131,famFaceFilter,001,13,
19,./img/edges5_HughLaurie(DrHouse)2_1.png,0,54,54,18,,,1.ja,6.753,None,act,0.899,None,None,None,None,None,,['return'],[0.7168273993138428],2017_Feb_08_1104,60.0380559131,famFaceFilter,001,13,
12,./img/edges5_UrsulavonderLeyen4_1.png,0,55,55,11,,,2.nein,1.33,None,None,None,None,None,polit,0.824,None,,['return'],[0.6501604546365343],2017_Feb_08_1104,60.0380559131,famFaceFilter,001,13,
48,./img/edges5_GeorgeClooney3_1.png,0,56,56,47,,,1.ja,5.951,None,act,0.751,None,None,None,None,None,,"['s', 'o', 'r', 'r', 'y', 'space', 'e', 's', 'space', 'f', u'\xe4', 'l', 'l', 't', 'space', 'm', 'i', 'r', 'space', 'e', 'i', 'n', 'f', 'a', 'c', 'h', 'n', 'i', 'c', 'h', 't', 'space', 'backspace', 'backspace', 'backspace', 'backspace', 'backspace', 'backspace', 'space', 'n', 'i', 'c', 'h', 't', 'space', 'e', 'i', 'n', 'backspace', 'backspace', 'backspace', 'backspace', 'backspace', 'backspace', 'backspace', 'backspace', 'backspace', 'backspace', 'backspace', 'backspace', 'backspace', 'backspace', 'backspace', 'backspace', 'backspace', 'backspace', 'backspace', 'backspace', 'backspace', 'backspace', 'backspace', 'backspace', 'backspace', 'backspace', 'backspace', 'backspace', 'backspace', 'backspace', 'backspace', 'backspace', 'backspace', 'backspace', 'backspace', 'backspace', 'backspace', 'return']","[8.396971571107315, 8.580321627821831, 8.76355620339018, 8.946826064863671, 9.146607163937006, 9.479993853836277, 9.646206187735515, 9.846502461031378, 10.046145624291057, 10.229734983600792, 10.44599460061454, 10.729599614035578, 10.895923900490743, 11.046057730307439, 11.196009035757925, 11.362520979074361, 11.546348678638424, 11.595671959124047, 11.76244694282832, 11.86242666947237, 11.97908604371787, 12.112140853636447, 12.228967354762972, 12.345484623043376, 12.529952601405057, 12.628653053578091, 12.861694326538782, 12.961933564979518, 13.011918937368137, 13.161806728187912, 13.261505129928992, 13.478460520845147, 13.694903945348415, 13.84488604577109, 13.994985231243845, 14.144753691546612, 14.311352887284556, 14.477675890615501, 14.777790537730652, 14.894531390341399, 15.010829565226231, 15.077705979870188, 15.211015489870988, 15.294330966396956, 15.47764317095789, 15.627631045437738, 15.694209133788718, 15.827419522472155, 21.975117341675286, 23.67443908241239, 23.824270095002248, 23.991004339524807, 24.15723495793918, 24.30738193977504, 24.640597974203956, 24.823857249905814, 24.973949378198085, 25.173903057427196, 25.32362789151921, 25.507091825474163, 25.673674340601792, 25.840117957573966, 26.04002159497395, 26.189968088709975, 26.356676029193295, 26.556525775391492, 26.70651749924218, 26.889856007842354, 27.03965430077369, 27.22300820685996, 27.38966225614149, 27.572811824755263, 27.77244761005295, 27.97270859744276, 28.189320431950364, 28.422644312938246, 28.622598312947957, 28.838975335793293, 29.02229908846857, 29.238755344210404, 29.4053898258544, 29.60543107828562, 29.788307983082632, 29.955145839855504, 30.138608490686238, 31.254705215128524]",2017_Feb_08_1104,60.0380559131,famFaceFilter,001,13,
38,./img/edges5_GeorgeClooney11_1.png,0,57,57,37,,,1.ja,2.626,None,act,0.64,None,None,None,None,None,,['return'],[0.8667575332201523],2017_Feb_08_1104,60.0380559131,famFaceFilter,001,13,
41,./img/edges5_OmarEpps(DrEricForeman)3_1.png,0,58,58,40,,,2.nein,5.121,None,act,0.915,None,None,None,None,None,,['return'],[0.9000812217391285],2017_Feb_08_1104,60.0380559131,famFaceFilter,001,13,
30,./img/edges5_MariskaHargitay(Liv)8_8.png,0,59,59,29,,,2.nein,3.904,None,None,None,host,1.071,None,None,None,,['return'],[0.7166910674050087],2017_Feb_08_1104,60.0380559131,famFaceFilter,001,13,
20,./img/edges5_JoshRadnor(Ted)1_2.png,0,60,60,19,,,2.nein,1.529,None,None,None,music,3.856,None,None,None,,['return'],[0.6668994467163429],2017_Feb_08_1104,60.0380559131,famFaceFilter,001,13,
15,./img/edges5_LisaEdelstein(DrLisaCuddy)6_3.png,0,61,61,14,,,2.nein,1.523,None,None,None,None,None,polit,0.822,None,,['return'],[0.850184384896238],2017_Feb_08_1104,60.0380559131,famFaceFilter,001,13,
11,./img/edges5_RobertSeanLeonard(Wilson)1_1.png,0,62,62,10,,,2.nein,3.405,None,None,None,None,None,sport,1.089,None,,['return'],[0.8833091892201992],2017_Feb_08_1104,60.0380559131,famFaceFilter,001,13,
23,./img/edges5_UrsulavonderLeyen1_1.png,0,63,63,22,,,2.nein,1.822,None,None,None,host,2.289,None,None,None,,['return'],[0.833522380245995],2017_Feb_08_1104,60.0380559131,famFaceFilter,001,13,
1,./img/edges5_BastianSchweinsteiger6_2.png,0,64,64,0,,,1.ja,1.558,None,None,None,None,None,sport,1.073,None,Sebastian Schweinsteiger,"['lshift', 's', 'e', 'b', 'a', 's', 't', 'i', 'a', 'n', 'space', 'lshift', 's', 'c', 'h', 'w', 'e', 'i', 'n', 's', 't', 'e', 'i', 'g', 'e', 'r', 'return']","[0.5335941068688044, 0.7334656661723784, 0.9508614893475169, 1.1333759116596411, 1.2332488182428278, 1.4499434142389873, 1.633292508609884, 1.7664704984172204, 1.88322001211327, 2.1995879889345815, 2.3495328787657854, 2.3995198550583154, 2.532856952221664, 2.6495602734594286, 2.7157191010946917, 2.89950477835373, 3.0158683925537844, 3.1325296914856153, 3.299211648711207, 3.4487719221706357, 3.665769335393634, 3.8657012015173677, 4.032778681666969, 4.232098176938052, 4.415217912922344, 4.4985478245916966, 4.632019328977549]",2017_Feb_08_1104,60.0380559131,famFaceFilter,001,13,
28,./img/edges5_Ice-T(OdafinFinTutuola)5_1.png,0,65,65,27,,,2.nein,1.472,None,act,0.924,None,None,None,None,None,,['return'],[0.8334197303383917],2017_Feb_08_1104,60.0380559131,famFaceFilter,001,13,
25,./img/edges5_JoachimLoew8_1.png,0,66,66,24,,,1.ja,1.438,None,None,None,None,None,sport,0.506,None,Löw,"['lshift', 'l', u'\xf6', 'w', 'return']","[0.48338290468473133, 0.6834132505637172, 0.8999493807650651, 1.033066422189222, 1.2330278001618353]",2017_Feb_08_1104,60.0380559131,famFaceFilter,001,13,
43,./img/edges5_BarackObama1_3.png,0,67,67,42,,,1.ja,2.322,None,None,None,None,None,polit,0.688,None,Barack Obama,"['lshift', 'b', 'a', 'r', 'a', 'c', 'k', 'space', 'lshift', 'o', 'b', 'a', 'm', 'a', 'return']","[0.41675349138040474, 1.983022667665864, 2.249549302750893, 2.416113212582786, 2.533204358001967, 2.7990082735832402, 2.932660377648972, 3.0993015956928502, 3.125267852102297, 3.249105021120158, 3.5155832182799713, 3.648822477250178, 4.082132436344182, 4.1823100848405375, 4.365332303413197]",2017_Feb_08_1104,60.0380559131,famFaceFilter,001,13,
21,./img/edges5_JoshRadnor(Ted)3_1.png,0,68,68,20,,,2.nein,1.329,None,act,2.623,None,None,None,None,None,,['return'],[0.6170122333023755],2017_Feb_08_1104,60.0380559131,famFaceFilter,001,13,
26,./img/edges5_NicoleKidman7_1.png,0,69,69,25,,,2.nein,5.255,None,dummy,0.569,None,None,None,None,None,,['return'],[0.6502361589436987],2017_Feb_08_1104,60.0380559131,famFaceFilter,001,13,
63,./img/edges5_LisaEdelstein(DrLisaCuddy)2_2.png,0,70,70,62,,,2.nein,1.222,None,None,None,host,0.74,None,None,None,,['return'],[0.6836198335022345],2017_Feb_08_1104,60.0380559131,famFaceFilter,001,13,
72,./img/edges5_EmilyDeschanel6_12.png,0,71,71,71,,,1.ja,2.288,None,dummy,2.739,None,None,None,None,None,Emma Watson,"['lshift', 'e', 'm', 'comma', 'k', 'a', 'backspace', 'backspace', 'm', 'a', 'space', 'lshift', 'w', 'a', 't', 's', 'o', 'n', 'return']","[0.31647960859663726, 0.433602832111319, 0.933473557383877, 0.9573175269588319, 1.1333242659247844, 1.4499780585829285, 1.6164053157253875, 1.7664079461292204, 2.2827943999345734, 2.4163143422456415, 2.5993901312385788, 2.8491989457861564, 2.9826415798852395, 3.2657067189502413, 3.4657438012291095, 3.68228698861094, 3.832135644153823, 3.982230659474226, 4.148756396372846]",2017_Feb_08_1104,60.0380559131,famFaceFilter,001,13,
51,./img/gray_AlysonHannigan(Lily)1_1.png,0,0,0,50,,,2.nein,2.219,None,None,None,host,5.088,None,None,None,,['return'],[0.6337557163169549],2017_Feb_08_1104,60.0380559131,famFaceFilter,001,13,
60,./img/gray_EmilyDeschanel3_1.png,0,1,1,59,,,2.nein,3.259,None,None,None,music,5.304,None,None,None,,['return'],[0.5669335136553855],2017_Feb_08_1104,60.0380559131,famFaceFilter,001,13,
35,./img/gray_JoachimLoew4_1.png,0,2,2,34,,,1.ja,1.028,None,None,None,None,None,sport,0.745,None,Löw,"['lshift', 'l', u'\xf6', 'w', 'return']","[0.29988111857619515, 0.599800089305063, 0.7670844731746911, 0.9003503569647364, 1.0669598176937143]",2017_Feb_08_1104,60.0380559131,famFaceFilter,001,13,
4,./img/gray_AngelaMerkel1_1.png,0,3,3,3,,,1.ja,1.145,None,None,None,None,None,polit,0.772,None,Angela Merkel,"['lshift', 'a', 'n', 'g', 'e', 'l', 'a', 'space', 'lshift', 'm', 'e', 'r', 'k', 'e', 'l', 'return']","[0.35017123287616414, 0.5002296791672052, 0.8332740957821443, 1.03330315853691, 1.1166664314268928, 1.2665548638087785, 1.3665695555764614, 1.6164412431926394, 1.7164283477977733, 1.8329921293179723, 1.9497195091280446, 2.016225421762101, 2.249530055892137, 2.3822698589074207, 2.5325704948236307, 2.7656816980343137]",2017_Feb_08_1104,60.0380559131,famFaceFilter,001,13,
55,./img/gray_Ice-T(OdafinFinTutuola)6_1.png,0,4,4,54,,,2.nein,1.403,None,act,1.056,None,None,None,None,None,,['return'],[0.5502878688339479],2017_Feb_08_1104,60.0380559131,famFaceFilter,001,13,
65,./img/gray_KatjaBurkard5_3.png,0,5,5,64,,,2.nein,4.893,None,None,None,host,1.067,None,None,None,,['return'],[0.6666845234740322],2017_Feb_08_1104,60.0380559131,famFaceFilter,001,13,
50,./img/gray_BastianSchweinsteiger3_1.png,0,6,6,49,,,1.ja,1.356,None,None,None,None,None,sport,0.54,None,Sebastian Schweinsteiger,"['lshift', 's', 'e', 'b', 's', 'backspace', 'a', 's', 't', 'i', 'a', 'n', 'space', 'lshift', 's', 'c', 'h', 'w', 'e', 'i', 'n', 's', 't', 'e', 'i', 'g', 'e', 'r', 'return']","[0.33352943742738717, 0.8340093257438639, 1.1165782166635836, 1.3331297443510266, 1.4498654644658018, 1.7830417220548043, 1.883056093041887, 2.166197577975254, 2.3994633976099067, 2.5493444520288904, 2.749246164743454, 2.9825681210450057, 3.149214471583946, 3.18216316716007, 3.298997367030097, 3.4324082438142796, 3.5155819351566606, 3.682345691527189, 3.782092531192575, 3.898987037882762, 4.065389274111112, 4.265310875244722, 4.46531459630387, 4.664882376037895, 4.781720746059364, 4.931800043113071, 5.114955385784015, 5.214975210047669, 5.398273621027329]",2017_Feb_08_1104,60.0380559131,famFaceFilter,001,13,
38,./img/gray_MariskaHargitay(Liv)4_4.png,0,7,7,37,,,2.nein,1.474,None,None,None,music,1.422,None,None,None,,['return'],[0.6501777768080501],2017_Feb_08_1104,60.0380559131,famFaceFilter,001,13,
31,./img/gray_AngelaMerkel3_1.png,0,8,8,30,,,1.ja,1.121,None,None,None,None,None,polit,0.655,None,Angela Merkel,"['lshift', 'a', 'n', 'g', 'e', 'l', 'a', 'space', 'lshift', 'm', 'e', 'r', 'k', 'e', 'l', 'return']","[0.30024937511916505, 0.3669949111308597, 0.6834033063532843, 0.900227497857486, 0.9831589995737886, 1.1166609781512307, 1.2500708925927029, 1.4831564333262577, 1.5831351976266888, 1.7163709280066541, 1.8328651000583704, 1.9163570061127757, 2.0831380846557295, 2.199610122820559, 2.366189750920057, 2.599364789542051]",2017_Feb_08_1104,60.0380559131,famFaceFilter,001,13,
27,./img/gray_LeonardoDiCaprio1_1.png,0,9,9,26,,,1.ja,1.113,None,act,1.356,None,None,None,None,None,Leonardo DiCaprio,"['lshift', 'l', 'e', 'o', 'n', 'a', 'r', 'd', 'o', 'space', 'lshift', 'd', 'i', 'lshift', 'c', 'a', 'p', 'r', 'i', 'o', 'return']","[0.3168914913494518, 0.6331844054266185, 0.7835828795359703, 1.0833424221273162, 1.4665887382789151, 1.5996753055123918, 1.716404610007885, 1.9829716634931174, 2.149732853616115, 2.332669423672087, 2.3827808629785068, 2.482877033110526, 2.63272985880576, 2.982590575712493, 3.0990728788683555, 3.3658933493125005, 3.649040287522439, 3.865355399641885, 3.9489406529564803, 4.132181964924712, 4.398746452163323]",2017_Feb_08_1104,60.0380559131,famFaceFilter,001,13,
5,./img/gray_OmarEpps(DrEricForeman)2_2.png,0,10,10,4,,,2.nein,1.491,None,dummy,0.639,None,None,None,None,None,,['return'],[0.6168168776985112],2017_Feb_08_1104,60.0380559131,famFaceFilter,001,13,
62,./img/gray_LisaEdelstein(DrLisaCuddy)1_1.png,0,11,11,61,,,2.nein,1.528,None,None,None,host,0.506,None,None,None,,['return'],[0.6001465327435653],2017_Feb_08_1104,60.0380559131,famFaceFilter,001,13,
15,./img/gray_GeorgeClooney11_1.png,0,12,12,14,,,1.ja,9.911,None,act,0.834,None,None,None,None,None,,['return'],[6.297968622488952],2017_Feb_08_1104,60.0380559131,famFaceFilter,001,13,
8,./img/gray_BastianSchweinsteiger6_2.png,0,13,13,7,,,1.ja,1.297,None,None,None,None,None,sport,1.005,None,Sebastian Schweinsteiger,"['lshift', 's', 'e', 'b', 'a', 's', 't', 'i', 'a', 'n', 'space', 'lshift', 's', 'c', 'h', 'w', 'e', 'i', 'n', 's', 't', 'e', 'i', 'g', 'e', 'r', 'return']","[0.3834974876435808, 0.6168184816024223, 0.8666548833125489, 1.0500065439309765, 1.1499891576031587, 1.3664848694033935, 1.5333118196231226, 1.7329540205400917, 2.116243000558825, 2.449380122871844, 2.5993654311032515, 2.625606276014878, 2.766002799776288, 2.898914862166748, 2.9490898161020596, 3.1323991336348627, 3.232435317726413, 3.3157145460045285, 3.499146081082472, 3.6489819053877, 3.8156535976222585, 4.048798482834172, 4.148789757591658, 4.298780519100546, 4.498390962701706, 4.581695853456949, 4.798634884544299]",2017_Feb_08_1104,60.0380559131,famFaceFilter,001,13,
33,./img/gray_KatjaBurkard4_1.png,0,14,14,32,,,2.nein,1.462,None,None,None,host,0.755,None,None,None,,['return'],[0.766849019950314],2017_Feb_08_1104,60.0380559131,famFaceFilter,001,13,
14,./img/gray_JoshRadnor(Ted)6_2.png,0,15,15,13,,,2.nein,1.296,None,act,0.906,None,None,None,None,None,,['return'],[0.666962640566453],2017_Feb_08_1104,60.0380559131,famFaceFilter,001,13,
25,./img/gray_MariskaHargitay(Liv)8_8.png,0,16,16,24,,,2.nein,1.122,None,None,None,music,2.405,None,None,None,,['return'],[0.6334593147093983],2017_Feb_08_1104,60.0380559131,famFaceFilter,001,13,
44,./img/gray_BritneySpears5_1.png,0,17,17,43,,,1.ja,1.066,None,None,None,music,0.689,None,None,None,Britney Spears,"['lshift', 'b', 'r', 'i', 't', 'n', 'e', 'y', 'space', 'lshift', 's', 'p', 'e', 'a', 'r', 's', 'return']","[0.2505876707191419, 0.5337528934442162, 0.7834016382921618, 0.9167772291712026, 1.1167251343431417, 1.3665150228134735, 1.4499122984852875, 1.6497075119204965, 1.8663892766771824, 1.9329060958643822, 2.049511899690515, 2.282819420848682, 2.3825636942674464, 2.5329008992130184, 2.7159083618616933, 2.865897519464852, 3.0658621052471062]",2017_Feb_08_1104,60.0380559131,famFaceFilter,001,13,
17,./img/gray_JasonSegel(Marshall)6_1.png,0,18,18,16,,,2.nein,1.283,None,dummy,2.055,None,None,None,None,None,,['return'],[0.6998558410359692],2017_Feb_08_1104,60.0380559131,famFaceFilter,001,13,
12,./img/gray_BarackObama2_1.png,0,19,19,11,,,1.ja,1.16,None,None,None,None,None,polit,0.623,None,Barack Obama,"['lshift', 'b', 'a', 'r', 'a', 'c', 'k', 'space', 'lshift', 'o', 'b', 'a', 'm', 'a', 'return']","[0.3669971565977903, 0.5835380985135998, 0.8001945215746673, 0.9834031138852879, 1.1000788479605035, 1.549766920554248, 1.6497405523596171, 1.7996777434473188, 1.8662622474175805, 1.983037423589849, 2.2495133752827314, 2.3662333771308113, 2.5826623664906947, 2.7160488639219693, 2.849448834153918]",2017_Feb_08_1104,60.0380559131,famFaceFilter,001,13,
64,./img/gray_LisaEdelstein(DrLisaCuddy)2_2.png,0,20,20,63,,,2.nein,2.295,None,None,None,music,0.972,None,None,None,,['return'],[0.5169924090396307],2017_Feb_08_1104,60.0380559131,famFaceFilter,001,13,
67,./img/gray_AngelaMerkel4_1.png,0,21,21,66,,,1.ja,0.867,None,None,None,None,None,polit,0.723,None,Angela Merkel,"['lshift', 'a', 'n', 'g', 'e', 'l', 'a', 'space', 'lshift', 'm', 'e', 'r', 'k', 'e', 'l', 'return']","[0.31700280234235834, 0.43359352946299623, 0.6334724667285627, 0.816659566715316, 0.9165491539079085, 1.0832869270216179, 1.2000133444880703, 1.349922948413223, 1.48319556860406, 1.6165156643755836, 1.7164892961809528, 1.8163435974684035, 1.983047688580882, 2.1828733762067714, 2.3995384603540515, 2.5993519583034868]",2017_Feb_08_1104,60.0380559131,famFaceFilter,001,13,
54,./img/gray_LeonardoDiCaprio3_1.png,0,22,22,53,,,1.ja,1.215,None,act,0.789,None,None,None,None,None,Leonardo DiCaprio,"['lshift', 'l', 'e', 'o', 'n', 'a', 'r', 'd', 'o', 'space', 'lshift', 'd', 'i', 'lshift', 'c', 'a', 'p', 'r', 'i', 'o', 'return']","[0.28357935094390996, 0.6333499284010031, 0.9998835565111222, 1.349875793611318, 1.6165576866815172, 1.74969205027719, 2.049606530073106, 2.349550842498502, 2.549484633308566, 2.7325944250833345, 2.8158720494566296, 2.882744935509436, 3.048907227579548, 3.299054466040616, 3.3990842345137935, 3.732298665037888, 4.015537667382887, 4.215385488895663, 4.265474473533686, 4.4152977873809505, 4.664953268629688]",2017_Feb_08_1104,60.0380559131,famFaceFilter,001,13,
57,./img/gray_UrsulavonderLeyen5_1.png,0,23,23,56,,,2.nein,1.473,None,act,3.056,None,None,None,None,None,,['return'],[0.5335889743737425],2017_Feb_08_1104,60.0380559131,famFaceFilter,001,13,
11,./img/gray_EmilyDeschanel6_12.png,0,24,24,10,,,1.ja,1.244,None,dummy,7.47,None,None,None,None,None,,['return'],[3.5656904874331303],2017_Feb_08_1104,60.0380559131,famFaceFilter,001,13,
69,./img/gray_OmarEpps(DrEricForeman)3_1.png,0,25,25,68,,,2.nein,2.888,None,act,0.689,None,None,None,None,None,,['return'],[0.5001777126526576],2017_Feb_08_1104,60.0380559131,famFaceFilter,001,13,
18,./img/gray_JasonSegel(Marshall)7_1.png,0,26,26,17,,,2.nein,4.759,None,None,None,host,0.93,None,None,None,,['return'],[0.533623939498284],2017_Feb_08_1104,60.0380559131,famFaceFilter,001,13,
30,./img/gray_BarackObama4_1.png,0,27,27,29,,,1.ja,0.973,None,None,None,None,None,polit,0.84,None,Barack Obama,"['lshift', 'b', 'a', 'r', 'a', 'c', 'k', 'space', 'lshift', 'o', 'b', 'a', 'm', 'a', 'return']","[0.41701236161588895, 0.7001172775198938, 0.9833841878089515, 1.1832769186557925, 1.283308611814391, 1.5331751669345977, 1.6498964519059882, 1.7997858466314938, 1.849405849505274, 1.9498821450752075, 2.2162750144998427, 2.3329112925166555, 2.616089025698784, 2.6992835678029223, 2.8493888481143586]",2017_Feb_08_1104,60.0380559131,famFaceFilter,001,13,
61,./img/gray_AlysonHannigan(Lily)8_3.png,0,28,28,60,,,2.nein,1.441,None,None,None,music,2.572,None,None,None,,['return'],[0.5668273351575408],2017_Feb_08_1104,60.0380559131,famFaceFilter,001,13,
72,./img/gray_WillSmith4_1.png,0,29,29,71,,,1.ja,1.134,None,act,0.506,None,None,None,None,None,Will Smith,"['lshift', 'w', 'i', 'l', 'l', 'space', 'lshift', 's', 'm', 'i', 't', 'h', 'return']","[0.33355445834240527, 0.6668016085241106, 0.8335390608563102, 1.0000647977540211, 1.1499548340407273, 1.2333206731782411, 1.2597799699233292, 1.399405015474258, 1.5501255536682947, 1.7497562064700105, 2.1661792934610276, 2.232770213049662, 2.4161350256881633]",2017_Feb_08_1104,60.0380559131,famFaceFilter,001,13,
24,./img/gray_JoachimLoew1_1.png,0,30,30,23,,,1.ja,1.595,None,None,None,None,None,sport,0.639,None,Löw,"['lshift', 'l', u'\xf6', 'w', 'return']","[0.4169940771007532, 0.8168013518998123, 1.0002380194728175, 1.0833796327187883, 1.2832723635656293]",2017_Feb_08_1104,60.0380559131,famFaceFilter,001,13,
20,./img/gray_WillSmith1_1.png,0,31,31,19,,,1.ja,1.113,None,act,1.19,None,None,None,None,None,Will Smith,"['lshift', 'w', 'i', 'l', 'l', 'space', 'lshift', 's', 'm', 'i', 'o', 't', 'h', 'backspace', 'backspace', 'backspace', 't', 'h', 'return']","[0.8501243988566785, 1.0666768888868319, 1.18329744863604, 1.3831776690258266, 1.4998136262620392, 1.5832853231158879, 1.6091915934857752, 1.7163526434915184, 1.8996998131769942, 2.11644220553535, 2.366211564025434, 2.449500094950963, 2.7660133855479216, 2.9158501721949506, 3.0326324055495206, 3.2491585915404357, 3.3156750899470353, 3.515661488833757]",2017_Feb_08_1104,60.0380559131,famFaceFilter,001,13,
29,./img/gray_UrsulavonderLeyen4_1.png,0,32,32,28,,,2.nein,1.622,None,act,1.373,None,None,None,None,None,,['return'],[0.5002097907481584],2017_Feb_08_1104,60.0380559131,famFaceFilter,001,13,
58,./img/gray_GeorgeClooney3_1.png,0,33,33,57,,,1.ja,4.921,None,act,1.282,None,None,None,None,None,,['return'],[14.328132297767297],2017_Feb_08_1104,60.0380559131,famFaceFilter,001,13,
66,./img/gray_NeilPatrickHarris(Barney)3_7.png,0,34,34,65,,,2.nein,8.135,None,None,None,None,None,sport,0.849,None,,['return'],[0.9501038047192196],2017_Feb_08_1104,60.0380559131,famFaceFilter,001,13,
42,./img/gray_NicoleKidman5_1.png,0,35,35,41,,,1.ja,8.478,None,act,0.733,None,None,None,None,None,,['return'],[0.6168720520226998],2017_Feb_08_1104,60.0380559131,famFaceFilter,001,13,
16,./img/gray_JoshRadnor(Ted)1_2.png,0,36,36,15,,,2.nein,1.312,None,None,None,host,2.171,None,None,None,,['return'],[0.6167966684979547],2017_Feb_08_1104,60.0380559131,famFaceFilter,001,13,
47,./img/gray_HughLaurie(DrHouse)5_3.png,0,37,37,46,,,1.ja,7.353,None,act,0.665,None,None,None,None,None,,['return'],[0.5835974429910493],2017_Feb_08_1104,60.0380559131,famFaceFilter,001,13,
28,./img/gray_GeorgeClooney4_2.png,0,38,38,27,,,1.ja,2.088,None,act,0.822,None,None,None,None,None,,['return'],[0.9998113807951086],2017_Feb_08_1104,60.0380559131,famFaceFilter,001,13,
37,./img/gray_TomCruise1_1.png,0,39,39,36,,,1.ja,1.565,None,act,0.756,None,None,None,None,None,,['return'],[0.8168924536921622],2017_Feb_08_1104,60.0380559131,famFaceFilter,001,13,
32,./img/gray_MariskaHargitay(Liv)6_5.png,0,40,40,31,,,2.nein,7.319,None,None,None,host,2.231,None,None,None,,['return'],[0.6504571770246912],2017_Feb_08_1104,60.0380559131,famFaceFilter,001,13,
34,./img/gray_RobertSeanLeonard(Wilson)2_6.png,0,41,41,33,,,1.ja,2.642,None,act,0.839,None,None,None,None,None,,['return'],[0.6498800920771828],2017_Feb_08_1104,60.0380559131,famFaceFilter,001,13,
63,./img/gray_JoshRadnor(Ted)3_1.png,0,42,42,62,,,2.nein,1.359,None,None,None,host,1.256,None,None,None,,['return'],[0.600306281660778],2017_Feb_08_1104,60.0380559131,famFaceFilter,001,13,
19,./img/gray_JasonSegel(Marshall)9_1.png,0,43,43,18,,,2.nein,1.4,None,None,None,host,1.255,None,None,None,,['return'],[0.6001693081907433],2017_Feb_08_1104,60.0380559131,famFaceFilter,001,13,
70,./img/gray_WillSmith5_1.png,0,44,44,69,,,1.ja,1.291,None,act,1.456,None,None,None,None,None,Will Smith,"['lshift', 'lshift', 'w', 'i', 'l', 'l', 'space', 'lshift', 's', 'm', 'i', 't', 'h', 'return']","[0.4501769427779436, 0.700159299824918, 0.9335033900133567, 1.116900280747359, 1.3332683217249723, 1.4832295713849817, 1.5999181366987614, 1.6498415983614905, 1.7498694421492473, 1.9664363673218759, 2.149802783865198, 2.3829001934946064, 2.432883961978405, 2.6162365849404523]",2017_Feb_08_1104,60.0380559131,famFaceFilter,001,13,
68,./img/gray_Ice-T(OdafinFinTutuola)7_1.png,0,45,45,67,,,2.nein,1.262,None,dummy,1.339,None,None,None,None,None,,['return'],[1.449970039058826],2017_Feb_08_1104,60.0380559131,famFaceFilter,001,13,
53,./img/gray_Ice-T(OdafinFinTutuola)5_1.png,0,46,46,52,,,2.nein,1.399,None,act,0.773,None,None,None,None,None,,['return'],[0.5835303997700976],2017_Feb_08_1104,60.0380559131,famFaceFilter,001,13,
21,./img/gray_HughLaurie(DrHouse)4_1.png,0,47,47,20,,,2.nein,4.144,None,act,0.766,None,None,None,None,None,,['return'],[0.6165958596156997],2017_Feb_08_1104,60.0380559131,famFaceFilter,001,13,
48,./img/gray_LeonardoDiCaprio2_1.png,0,48,48,47,,,1.ja,1.127,None,act,1.389,None,None,None,None,None,Leonardo DiCaprio,"['lshift', 'l', 'e', 'o', 'n', 'a', 'r', 'd', 'o', 'lshift', 'space', 'd', 'i', 'lshift', 'v', 'c', 'a', 'backspace', 'backspace', 'backspace', 'lshift', 'v', 'a', 'backspace', 'backspace', 'lshift', 'c', 'a', 'p', 'r', 'i', 'o', 'return']","[0.2003100668762272, 0.5501508953630037, 0.716801095273695, 0.9667735081111459, 1.216722183157799, 1.383169649501724, 1.4664431037217582, 1.766384208337513, 1.8829662743728477, 2.1328299424640136, 2.1495583487730983, 2.2495069596634494, 2.3994868146191948, 2.8325712646974353, 2.982828915965001, 3.232559139177283, 3.599033743590553, 3.7656566771192956, 3.8988138161639654, 3.9988811160092155, 4.132129036065635, 4.398731054676318, 4.681810628883795, 4.831856564717782, 5.14842952057279, 5.431656974804355, 5.6649596842480605, 5.881260682005632, 6.064659176644454, 6.18130475730959, 6.381311044616268, 6.64781522503381]",2017_Feb_08_1104,60.0380559131,famFaceFilter,001,13,
40,./img/gray_BritneySpears1_1.png,0,49,49,39,,,1.ja,1.129,None,None,None,music,0.688,None,None,None,Britney Spears,"['lshift', 'b', 'r', 'i', 't', 'n', 'e', 'y', 'space', 'lshift', 's', 'e', 'p', 'a', 'backspace', 'backspace', 'backspace', 'o', 'p', 'e', 'a', 'backspace', 'backspace', 'backspace', 'backspace', 'p', 'e', 'a', 'r', 's', 'return']","[0.3003529873685693, 0.5835146815034022, 0.8167801803556358, 0.933381814029417, 1.2333604500172441, 1.5166065095436352, 1.6165422891954222, 1.83304634130036, 2.0996688898922002, 2.182966723466052, 2.2828797276697514, 2.516352130242012, 2.71620508424985, 2.7429819541466713, 3.0826755185107686, 3.2158804539176344, 3.349113618050069, 3.6324376273496455, 3.65744603181156, 3.7157835780681125, 3.8323463972446916, 4.098899977930159, 4.265391070484839, 4.4154398933469565, 4.532063981687315, 5.081812938507937, 5.198517542869013, 5.315083890636743, 5.49831237136641, 5.681537965067946, 5.8815885201474885]",2017_Feb_08_1104,60.0380559131,famFaceFilter,001,13,
56,./img/gray_GuentherJauch2_1.png,0,50,50,55,,,1.ja,1.102,None,None,None,host,0.689,None,None,None,Günter Jauch,"['lshift', 'g', u'\xfc', 'n', 't', 'e', 'r', 'space', 'lshift', 'j', 'a', 'u', 'c', 'h', 'return']","[0.3170951872589285, 0.6834818976885799, 0.9000719190917152, 1.0999014560893556, 1.233279613215018, 1.4332326508829283, 1.53318126177237, 1.6498451269526413, 1.7163802306540674, 1.84957746731925, 2.0162125905244466, 2.116180769053244, 2.282816533820551, 2.3494023209141233, 2.549444856469563]",2017_Feb_08_1104,60.0380559131,famFaceFilter,001,13,
3,./img/gray_KatjaBurkard1_1.png,0,51,51,2,,,2.nein,1.579,None,None,None,host,1.288,None,None,None,,['return'],[0.6503586972694393],2017_Feb_08_1104,60.0380559131,famFaceFilter,001,13,
43,./img/gray_LisaEdelstein(DrLisaCuddy)6_3.png,0,52,52,42,,,2.nein,2.904,None,None,None,None,None,polit,6.237,None,,['return'],[0.6001593639812199],2017_Feb_08_1104,60.0380559131,famFaceFilter,001,13,
45,./img/gray_NicoleKidman7_1.png,0,53,53,44,,,1.ja,15.576,None,None,None,music,0.767,None,None,None,,"['lshift', 'k', 'i', 'l', 'e', 'y', 'space', 'lshift', 'm', 'i', 'n', 'o', 'g', 'u', 'r', 't', 'backspace', 'backspace', 'e', 'backspace', 'e', 'backspace', 'e', 'backspace', 'backspace', 'backspace', 'backspace', 'backspace', 'backspace', 'backspace', 'backspace', 'backspace', 'backspace', 'backspace', 'backspace', 'backspace', 'backspace', 'return']","[5.398235768873747, 5.71488474981652, 5.898126382566261, 6.081432171507913, 6.164724551805193, 6.381351142236781, 6.597787509559566, 6.714561723390034, 6.914426546292816, 7.180985901035456, 7.41410159518, 7.580752115871292, 8.047391216760843, 8.113975720731105, 8.313962119617827, 8.680432553878745, 8.896978628289617, 8.925790211818821, 9.246832288015867, 9.713274429394914, 10.97920922360754, 13.811759316762618, 17.426897226912843, 19.34270858461241, 20.425798552123524, 20.592270077038847, 20.742287142586065, 20.89220604915954, 21.05851205109957, 21.19221740480498, 21.358706572674237, 21.492109109152807, 21.641944612676525, 21.808461046926823, 21.925102457438697, 22.108435191981698, 22.291731357494427]",2017_Feb_08_1104,60.0380559131,famFaceFilter,001,13,
10,./img/gray_HughLaurie(DrHouse)2_1.png,0,54,54,9,,,2.nein,2.825,None,act,1.073,None,None,None,None,None,,['return'],[0.683497295174675],2017_Feb_08_1104,60.0380559131,famFaceFilter,001,13,
1,./img/gray_JoachimLoew8_1.png,0,55,55,0,,,1.ja,1.237,None,None,None,None,None,sport,1.105,None,Löw,"['lshift', 'l', u'\xf6', 'w', 'return']","[0.7668275276255372, 0.9499305830004232, 1.1331157583008462, 1.2332757638432668, 1.4331418698702691]",2017_Feb_08_1104,60.0380559131,famFaceFilter,001,13,
6,./img/gray_NicoleKidman3_1.png,0,56,56,5,,,1.ja,8.236,None,act,0.533,None,None,None,None,None,,['return'],[0.6166811873517872],2017_Feb_08_1104,60.0380559131,famFaceFilter,001,13,
7,./img/gray_OmarEpps(DrEricForeman)1_5.png,0,57,57,6,,,2.nein,1.71,None,act,0.872,None,None,None,None,None,,['return'],[0.6169006015288687],2017_Feb_08_1104,60.0380559131,famFaceFilter,001,13,
59,./img/gray_AlysonHannigan(Lily)5_4.png,0,58,58,58,,,2.nein,1.2,None,None,None,host,0.622,None,None,None,,['return'],[0.6002620138888233],2017_Feb_08_1104,60.0380559131,famFaceFilter,001,13,
49,./img/gray_NeilPatrickHarris(Barney)1_1.png,0,59,59,48,,,2.nein,1.205,None,None,None,None,None,sport,0.839,None,,['return'],[0.6501293388828344],2017_Feb_08_1104,60.0380559131,famFaceFilter,001,13,
2,./img/gray_BastianSchweinsteiger1_1.png,0,60,60,1,,,1.ja,1.273,None,None,None,None,None,sport,0.571,None,Sebastian Schweinsteiger,"['lshift', 's', 'e', 'b', 'a', 's', 't', 'i', 'a', 'n', 'lshift', 'space', 's', 'c', 'h', 'w', 'e', 'i', 'n', 's', 't', 'e', 'i', 'g', 'e', 'r', 'return']","[0.36690701714815077, 0.650184513208842, 1.0999527810427026, 1.2832450971845901, 1.4498372357411426, 1.6663300605123368, 1.8496576625593661, 1.9995323013599773, 2.1829352869326613, 2.43274698850837, 2.599610828538971, 2.732646391599701, 2.849295500855078, 2.9325695966372223, 3.115776264262422, 3.199172898372126, 3.349114580393689, 3.5158125766674857, 3.6489626585307633, 3.8322947515107444, 4.015492116487621, 4.165540939349739, 4.331719270467147, 4.515341028654802, 4.598761400556214, 4.748598828765353]",2017_Feb_08_1104,60.0380559131,famFaceFilter,001,13,
36,./img/gray_TomCruise5_1.png,0,61,61,35,,,1.ja,3.125,None,act,1.506,None,None,None,None,None,,['return'],[2.782829044277605],2017_Feb_08_1104,60.0380559131,famFaceFilter,001,13,
22,./img/gray_GuentherJauch4_1.png,0,62,62,21,,,1.ja,1.18,None,None,None,host,0.806,None,None,None,Günter Jauch,"['lshift', 'g', u'\xfc', 'n', 't', 'e', 'r', 'space', 'lshift', 'j', 'a', 'u', 'c', 'h', 'return']","[0.3504849566561461, 0.6171091091528069, 0.783663716337287, 0.9834483439999531, 1.1335170552820273, 1.2999301980626115, 1.4001331882545855, 1.5667192319733658, 1.6165368359188506, 1.7331012590011596, 1.9165738540423263, 1.9997337518025233, 2.1665555695271905, 2.2161903283258653, 2.3830025226216094]",2017_Feb_08_1104,60.0380559131,famFaceFilter,001,13,
46,./img/gray_GuentherJauch3_1.png,0,63,63,45,,,1.ja,1.245,None,None,None,host,0.706,None,None,None,Günter Jauch,"['lshift', 'g', u'\xfc', 'n', 't', 'e', 'r', 'space', 'lshift', 'j', 'a', 'u', 'c', 'h', 'return']","[0.4003882091183186, 0.7001541673289466, 0.8834609186142188, 1.1002305773545231, 1.2334765727246122, 1.4167849279137954, 1.5167046685173773, 1.6496796039764376, 1.6997554365952965, 1.8500384295584809, 2.0165429949138343, 2.1164483003740315, 2.316418980994058, 2.3829585756293454, 2.5496232106834213]",2017_Feb_08_1104,60.0380559131,famFaceFilter,001,13,
9,./img/gray_RobertSeanLeonard(Wilson)8_1.png,0,64,64,8,,,1.ja,2.395,None,act,0.755,None,None,None,None,None,,['return'],[0.600160967885131],2017_Feb_08_1104,60.0380559131,famFaceFilter,001,13,
41,./img/gray_RobertSeanLeonard(Wilson)1_1.png,0,65,65,40,,,1.ja,1.777,None,act,1.156,None,None,None,None,None,,['return'],[0.6001353054089122],2017_Feb_08_1104,60.0380559131,famFaceFilter,001,13,
52,./img/gray_EmilyDeschanel5_1.png,0,66,66,51,,,2.nein,2.203,None,None,None,music,2.105,None,None,None,,['return'],[0.5668719237110054],2017_Feb_08_1104,60.0380559131,famFaceFilter,001,13,
71,./img/gray_BritneySpears7_1.png,0,67,67,70,,,1.ja,1.097,None,None,None,music,0.656,None,None,None,Britney Spears,"['lshift', 'b', 'r', 'i', 't', 'n', 'e', 'y', 'space', 'lshift', 's', 'p', 'e', 'a', 'r', 's', 'return']","[0.2837349297105902, 0.5502904350814788, 0.750169051566445, 0.8835180176256472, 1.0667885206612482, 1.299798357088548, 1.3831876132362595, 1.6165653854250195, 1.8331538029224248, 1.9331627206329358, 2.049770769925999, 2.2329296411871837, 2.3329138587641864, 2.4994479359675097, 2.6494284324844557, 2.865699276831947, 3.032729281399952]",2017_Feb_08_1104,60.0380559131,famFaceFilter,001,13,
39,./img/gray_UrsulavonderLeyen1_1.png,0,68,68,38,,,2.nein,1.376,None,dummy,0.656,None,None,None,None,None,,['return'],[0.5501861812699644],2017_Feb_08_1104,60.0380559131,famFaceFilter,001,13,
26,./img/gray_BarackObama1_3.png,0,69,69,25,,,1.ja,1.071,None,None,None,None,None,polit,1.139,None,Barack Obama,"['lshift', 'b', 'a', 'r', 'a', 'c', 'k', 'space', 'lshift', 'o', 'b', 'a', 'm', 'a', 'return']","[0.3169636670645559, 0.5835483635037235, 0.7834997972659039, 0.9498561618165695, 1.1001093221511837, 1.3332474709623057, 1.466534526295618, 1.5999085132698383, 1.6497120028534482, 1.7497151465067873, 1.9998306276520452, 2.1328206398166003, 2.383067961936831, 2.4828391809560344, 2.6160607969732155]",2017_Feb_08_1104,60.0380559131,famFaceFilter,001,13,
23,./img/gray_TomCruise4_1.png,0,70,70,22,,,1.ja,1.771,None,act,10.436,None,None,None,None,None,,['return'],[2.14941078953143],2017_Feb_08_1104,60.0380559131,famFaceFilter,001,13,
13,./img/gray_NeilPatrickHarris(Barney)2_2.png,0,71,71,12,,,1.ja,5.549,None,act,0.666,None,None,None,None,None,,['return'],[0.6834892756505724],2017_Feb_08_1104,60.0380559131,famFaceFilter,001,13,
