num,pic,trials.thisRepN,trials.thisTrialN,trials.thisN,trials.thisIndex,key_resp_2.keys,key_resp_2.rt,ratingBekannt.response,ratingBekannt.rt,key_resp_5.keys,ratingK1.response,ratingK1.rt,ratingK2.response,ratingK2.rt,ratingK3.response,ratingK3.rt,key_resp_6.keys,inputText,key_resp_4.keys,key_resp_4.rt,date,frameRate,expName,session,participant,
,,,,,,space,28.5702381991,,,,,,,,,,,,,,2017_Feb_08_1322,60.0073146976,famFaceFilter,001,14,
6,./img/smoo15_AlysonHannigan(Lily)1_1.png,0,0,0,5,,,1.ja,12.002,None,act,5.549,None,None,None,None,None,,['return'],[3.1825384808835224],2017_Feb_08_1322,60.0073146976,famFaceFilter,001,14,
45,./img/smoo15_RobertSeanLeonard(Wilson)2_6.png,0,1,1,44,,,1.ja,1.324,None,act,0.458,None,None,None,None,None,,['return'],[0.35026137232671317],2017_Feb_08_1322,60.0073146976,famFaceFilter,001,14,
60,./img/smoo15_LeonardoDiCaprio2_1.png,0,2,2,59,,,1.ja,4.79,None,dummy,1.269,None,None,None,None,None,leonardo di kaprio,"['b', 'r', 'e', 'd', 'space', 'p', 'i', 't', 'backspace', 'backspace', 'backspace', 'backspace', 'backspace', 'backspace', 'backspace', 'backspace', 'l', 'e', 'o', 'n', 'a', 'r', 'd', 'o', 'space', 'd', 'i', 'space', 'k', 'a', 'p', 'r', 'i', 'o', 'return']","[0.7334637414860481, 1.1166250506830693, 1.2833336327275902, 1.4498738047695952, 1.8160821609853883, 2.049666516113575, 2.3495049708217266, 2.7660461052055325, 4.798436962691994, 4.9486169849660655, 5.098268681000263, 5.481717730717719, 5.681522246801251, 5.9980935987514385, 6.231301357031043, 6.714357065135118, 7.497705453788512, 7.664045137729772, 8.04713234652445, 8.36371364268598, 8.663909768165468, 9.130015410317355, 9.529772964066069, 9.630036581860622, 10.412947746064674, 11.479218205473444, 11.562401841025348, 12.378897809450791, 12.528805167909013, 13.14612759640113, 13.828423246097373, 14.128091045335168, 14.244805593905767, 14.428066794294864, 15.110756363010296]",2017_Feb_08_1322,60.0073146976,famFaceFilter,001,14,
31,./img/smoo15_BritneySpears1_1.png,0,3,3,30,,,1.ja,13.863,None,None,None,music,0.986,None,None,None,britney,"['b', 'r', 'i', 't', 'n', 'e', 'y', 'return']","[1.066788841442758, 1.6994641674846207, 1.8498363375547342, 1.9330212562308589, 2.4493634422633477, 2.799122471604278, 3.3324775966575544, 3.9989789542032668]",2017_Feb_08_1322,60.0073146976,famFaceFilter,001,14,
52,./img/smoo15_BastianSchweinsteiger3_1.png,0,4,4,51,,,1.ja,2.45,None,None,None,None,None,polit,0.858,None,,['return'],[0.700090973479746],2017_Feb_08_1322,60.0073146976,famFaceFilter,001,14,
16,./img/smoo15_WillSmith4_1.png,0,5,5,15,,,1.ja,2.89,None,act,15.769,None,None,None,None,None,,['return'],[0.5834123523763992],2017_Feb_08_1322,60.0073146976,famFaceFilter,001,14,
46,./img/smoo15_NeilPatrickHarris(Barney)1_1.png,0,6,6,45,,,1.ja,1.757,None,act,5.339,None,None,None,None,None,nil patrik harris,"['n', 'i', 'l', 'space', 'p', 'a', 't', 'r', 'i', 'k', 'space', 'h', 'a', 'r', 'r', 'i', 's', 'return']","[75.67070262578636, 75.97063154072384, 76.22035374441293, 77.85305152512228, 78.28623734198482, 78.60258510960557, 78.95270373440508, 79.13607881203279, 79.80246500921385, 80.01891581167911, 81.25176365372135, 81.53509504098292, 82.234469069017, 82.56802898063506, 82.68444776916112, 83.2343827789391, 83.33504833527513, 84.2173675944523]",2017_Feb_08_1322,60.0073146976,famFaceFilter,001,14,
38,./img/smoo15_AlysonHannigan(Lily)5_4.png,0,7,7,37,,,1.ja,4.201,None,None,None,music,31.174,None,None,None,,['return'],[0.6499545132592175],2017_Feb_08_1322,60.0073146976,famFaceFilter,001,14,
56,./img/smoo15_MariskaHargitay(Liv)6_5.png,0,8,8,55,,,2.nein,3.106,None,None,None,host,3.772,None,None,None,,['return'],[0.28370413473930967],2017_Feb_08_1322,60.0073146976,famFaceFilter,001,14,
42,./img/smoo15_OmarEpps(DrEricForeman)1_5.png,0,9,9,41,,,1.ja,1.758,None,None,None,music,2.574,None,None,None,,['return'],[0.08359487674169941],2017_Feb_08_1322,60.0073146976,famFaceFilter,001,14,
23,./img/smoo15_JoachimLoew4_1.png,0,10,10,22,,,2.nein,1.407,None,None,None,None,None,polit,0.757,None,,['return'],[0.33358974424845655],2017_Feb_08_1322,60.0073146976,famFaceFilter,001,14,
39,./img/smoo15_BarackObama2_1.png,0,11,11,38,,,1.ja,1.225,None,None,None,None,None,polit,1.124,None,obama,"['o', 'b', 'a', 'm', 'a', 'return']","[1.133321058114234, 1.5164377787587, 2.0660305152505316, 2.2162769391834445, 2.316113597518779, 3.1823889969564334]",2017_Feb_08_1322,60.0073146976,famFaceFilter,001,14,
51,./img/smoo15_LeonardoDiCaprio1_1.png,0,12,12,50,,,1.ja,3.59,None,act,1.807,None,None,None,None,None,leonardo di kaprio,"['l', 'e', 'o', 'n', 'a', 'r', 'd', 'o', 'space', 'd', 'i', 'space', 'k', 'a', 'p', 'r', 'i', 'o', 'return']","[1.0834328823584656, 1.2829907178820577, 1.399848976323483, 2.0497050098292675, 2.3496512469391746, 2.649363634731344, 2.8990033977115672, 3.149070120152828, 3.3159467914210836, 4.048785330815008, 4.348593952894589, 4.565152537763424, 5.5149849617882865, 5.998059916752027, 6.347725919615186, 6.664481720617914, 6.781084316633496, 6.964324024698726, 7.514179160016283]",2017_Feb_08_1322,60.0073146976,famFaceFilter,001,14,
64,./img/smoo15_JoachimLoew8_1.png,0,13,13,63,,,2.nein,1.169,None,None,None,None,None,polit,0.956,None,,['return'],[0.2502094699666486],2017_Feb_08_1322,60.0073146976,famFaceFilter,001,14,
29,./img/smoo15_GuentherJauch3_1.png,0,14,14,28,,,2.nein,1.308,None,None,None,None,None,polit,0.64,None,,['return'],[0.08380883764402824],2017_Feb_08_1322,60.0073146976,famFaceFilter,001,14,
13,./img/smoo15_GeorgeClooney3_1.png,0,15,15,12,,,1.ja,2.857,None,act,9.936,None,None,None,None,None,,['return'],[0.13370599526751903],2017_Feb_08_1322,60.0073146976,famFaceFilter,001,14,
41,./img/smoo15_AngelaMerkel3_1.png,0,16,16,40,,,1.ja,1.224,None,None,None,None,None,polit,0.674,None,merkel,"['m', 'e', 'r', 'k', 'e', 'l', 'return']","[0.6337136940110213, 1.0334625866744318, 1.183306430502853, 1.5165805262859067, 1.8497827671326377, 2.2495595677410165, 2.5328296858388057]",2017_Feb_08_1322,60.0073146976,famFaceFilter,001,14,
48,./img/smoo15_JoshRadnor(Ted)6_2.png,0,17,17,47,,,1.ja,2.606,None,None,None,music,1.656,None,None,None,,['return'],[0.18376931743114255],2017_Feb_08_1322,60.0073146976,famFaceFilter,001,14,
63,./img/smoo15_RobertSeanLeonard(Wilson)8_1.png,0,18,18,62,,,1.ja,15.418,None,act,0.753,None,None,None,None,None,ted mosbi,"['t', 'e', 'd', 'space', 'm', 'o', 's', 'b', 'i', 'return']","[0.7667903170331556, 1.0333721264432825, 1.199935073933375, 2.0661860940163024, 2.4994546723664826, 2.8158556896269147, 3.5156233158995747, 3.9321718282462825, 4.232172918900687, 4.931836612142433]",2017_Feb_08_1322,60.0073146976,famFaceFilter,001,14,
43,./img/smoo15_JoachimLoew1_1.png,0,19,19,42,,,2.nein,7.082,None,None,None,None,None,polit,0.885,None,,['return'],[0.20024943927455752],2017_Feb_08_1322,60.0073146976,famFaceFilter,001,14,
54,./img/smoo15_LisaEdelstein(DrLisaCuddy)6_3.png,0,20,20,53,,,2.nein,1.292,None,None,None,None,None,sport,0.824,None,,['return'],[0.10033290648243565],2017_Feb_08_1322,60.0073146976,famFaceFilter,001,14,
28,./img/smoo15_HughLaurie(DrHouse)5_3.png,0,21,21,27,,,1.ja,1.274,None,act,3.09,None,None,None,None,None,chyu lori,"['c', 'h', 'y', 'u', 'space', 'l', 'o', 'r', 'i', 'return']","[1.466439575131517, 2.182939777865613, 2.4661669113156677, 2.5330295323783503, 2.799470198166091, 3.9822611336658156, 4.148924806375362, 4.615273921277549, 4.682009513080629, 5.265195394098555]",2017_Feb_08_1322,60.0073146976,famFaceFilter,001,14,
26,./img/smoo15_TomCruise4_1.png,0,22,22,25,,,1.ja,8.742,None,act,0.802,None,None,None,None,None,,['return'],[0.3670587465421704],2017_Feb_08_1322,60.0073146976,famFaceFilter,001,14,
66,./img/smoo15_NicoleKidman3_1.png,0,23,23,65,,,2.nein,2.107,None,None,None,None,None,sport,2.391,None,,['return'],[0.9332419535294321],2017_Feb_08_1322,60.0073146976,famFaceFilter,001,14,
69,./img/smoo15_BritneySpears5_1.png,0,24,24,68,,,1.ja,1.974,None,None,None,music,1.408,None,None,None,britney,"['b', 'r', 'i', 't', 'm', 'backspace', 'n', 'e', 'y', 'return']","[2.699424390644708, 3.249215690551864, 3.6321450751147495, 4.14876794448719, 4.398656312712774, 4.981904746018699, 5.481544829781342, 6.281396436508658, 6.764408839184398, 7.464247999609142]",2017_Feb_08_1322,60.0073146976,famFaceFilter,001,14,
36,./img/smoo15_BastianSchweinsteiger6_2.png,0,25,25,35,,,2.nein,1.319,None,None,None,None,None,polit,1.673,None,,['return'],[0.06719944107135234],2017_Feb_08_1322,60.0073146976,famFaceFilter,001,14,
12,./img/smoo15_MariskaHargitay(Liv)8_8.png,0,26,26,11,,,2.nein,1.69,None,None,None,None,None,sport,1.324,None,,['return'],[0.08376970236713532],2017_Feb_08_1322,60.0073146976,famFaceFilter,001,14,
32,./img/smoo15_TomCruise1_1.png,0,27,27,31,,,1.ja,3.006,None,dummy,1.124,None,None,None,None,None,,['return'],[0.11727848149894271],2017_Feb_08_1322,60.0073146976,famFaceFilter,001,14,
70,./img/smoo15_JasonSegel(Marshall)7_1.png,0,28,28,69,,,1.ja,3.173,None,act,0.79,None,None,None,None,None,,['return'],[0.13381538157591422],2017_Feb_08_1322,60.0073146976,famFaceFilter,001,14,
2,./img/smoo15_WillSmith5_1.png,0,29,29,1,,,1.ja,1.174,None,None,None,music,1.257,None,None,None,,['return'],[0.18364774144538387],2017_Feb_08_1322,60.0073146976,famFaceFilter,001,14,
8,./img/smoo15_AngelaMerkel4_1.png,0,30,30,7,,,1.ja,1.074,None,None,None,None,None,polit,0.876,None,merkel,"['m', 'e', 'r', 'k', 'e', 'l', 'return']","[0.5170199962012703, 1.0167665792432672, 1.183469708012126, 1.5165750730102445, 1.8498908703168127, 2.199641559354859, 2.4995890795889864]",2017_Feb_08_1322,60.0073146976,famFaceFilter,001,14,
71,./img/smoo15_AngelaMerkel1_1.png,0,31,31,70,,,1.ja,1.29,None,None,None,None,None,polit,0.624,None,merkel,"['m', 'e', 'r', 'k', 'e', 'l', 'return']","[0.6000586387599469, 0.9998800279208808, 1.1501062426541466, 1.8830714905270725, 2.2164065346933057, 2.582779130760173, 2.882733708176602]",2017_Feb_08_1322,60.0073146976,famFaceFilter,001,14,
18,./img/smoo15_HughLaurie(DrHouse)4_1.png,0,32,32,17,,,1.ja,4.989,None,act,0.734,None,None,None,None,None,,['return'],[0.750281966464172],2017_Feb_08_1322,60.0073146976,famFaceFilter,001,14,
30,./img/smoo15_KatjaBurkard4_1.png,0,33,33,29,,,2.nein,1.473,None,None,None,music,0.841,None,None,None,,['return'],[0.15062237922029453],2017_Feb_08_1322,60.0073146976,famFaceFilter,001,14,
50,./img/smoo15_OmarEpps(DrEricForeman)2_2.png,0,34,34,49,,,1.ja,1.524,None,None,None,music,1.241,None,None,None,,['return'],[0.08379761031028465],2017_Feb_08_1322,60.0073146976,famFaceFilter,001,14,
49,./img/smoo15_TomCruise5_1.png,0,35,35,48,,,1.ja,26.265,None,act,0.452,None,None,None,None,None,,['return'],[49.68070233066646],2017_Feb_08_1322,60.0073146976,famFaceFilter,001,14,
62,./img/smoo15_RobertSeanLeonard(Wilson)1_1.png,0,36,36,61,,,1.ja,1.468,None,act,0.574,None,None,None,None,None,,['return'],[0.6502406498766504],2017_Feb_08_1322,60.0073146976,famFaceFilter,001,14,
47,./img/smoo15_BarackObama4_1.png,0,37,37,46,,,1.ja,1.192,None,None,None,None,None,polit,0.941,None,obama,"['o', 'b', 'a', 'm', 'a', 'return']","[0.3668370868981583, 1.0001106694326154, 1.366512456566852, 1.733094843382787, 2.116126557071766, 2.482806461299333]",2017_Feb_08_1322,60.0073146976,famFaceFilter,001,14,
55,./img/smoo15_MariskaHargitay(Liv)4_4.png,0,38,38,54,,,2.nein,1.675,None,None,None,music,0.757,None,None,None,,['return'],[0.11729387898594723],2017_Feb_08_1322,60.0073146976,famFaceFilter,001,14,
22,./img/smoo15_WillSmith1_1.png,0,39,39,21,,,1.ja,2.573,None,None,None,music,4.989,None,None,None,,['return'],[0.25028774052043445],2017_Feb_08_1322,60.0073146976,famFaceFilter,001,14,
4,./img/smoo15_UrsulavonderLeyen1_1.png,0,40,40,3,,,2.nein,1.524,None,None,None,None,None,polit,1.79,None,,['return'],[0.36689258200567565],2017_Feb_08_1322,60.0073146976,famFaceFilter,001,14,
11,./img/smoo15_LeonardoDiCaprio3_1.png,0,41,41,10,,,1.ja,1.274,None,act,1.707,None,None,None,None,None,leonardo di kaprio,"['l', 'e', 'o', 'n', 'a', 'r', 'd', 'i', 'backspace', 'o', 'space', 'd', 'i', 'space', 'k', 'a', 'p', 'r', 'i', 'o', 'return']","[0.46696341044116707, 0.9001132998346293, 1.1998760502374353, 1.7163471902149467, 2.282770662142866, 2.566013834641126, 2.7658189922858583, 3.1159328053709032, 4.132252215955305, 4.515215282517602, 5.431295775442777, 6.314674894912969, 6.597877007447096, 6.880959789465123, 7.7640447527937795, 8.197241476209456, 9.06480032026775, 9.446724377299688, 9.730028177400527, 9.913105891078885, 10.179783293215223]",2017_Feb_08_1322,60.0073146976,famFaceFilter,001,14,
21,./img/smoo15_NeilPatrickHarris(Barney)3_7.png,0,42,42,20,,,1.ja,1.485,None,dummy,4.555,None,None,None,None,None,nil patrik harris,"['n', 'i', 'l', 'space', 'p', 'a', 't', 'r', 'i', 'k', 'space', 'h', 'a', 'r', 'r', 'i', 's', 'return']","[6.43133587306329, 6.547705902883536, 6.79774984987489, 6.947738045135338, 7.397266368810961, 7.547552248803186, 8.097288053604643, 8.24702956830697, 8.547154480413155, 8.730304049026017, 8.83043935443493, 10.113204563302133, 10.229690715828838, 10.546359905973077, 10.679518328141057, 10.812974755821415, 11.31271364011991, 11.39591395628122]",2017_Feb_08_1322,60.0073146976,famFaceFilter,001,14,
27,./img/smoo15_JasonSegel(Marshall)9_1.png,0,43,43,26,,,1.ja,1.484,None,act,15.701,None,None,None,None,None,dgeison sigel,"['d', 'g', 'e', 'i', 's', 'o', 'n', 'space', 's', 'i', 'g', 'e', 'l', 'return']","[2.5826697444535966, 2.6993984073869797, 2.849123883041102, 4.115205274152686, 4.631966400120291, 5.048333671222281, 5.148435615412382, 5.348279266772806, 9.263445213178784, 9.363139444767512, 9.829850721373077, 10.096460438726353, 10.212964234206083, 13.444901058321193]",2017_Feb_08_1322,60.0073146976,famFaceFilter,001,14,
33,./img/smoo15_Ice-T(OdafinFinTutuola)7_1.png,0,44,44,32,,,2.nein,3.202,None,None,None,None,None,polit,6.122,None,,['return'],[0.300399821388055],2017_Feb_08_1322,60.0073146976,famFaceFilter,001,14,
44,./img/smoo15_GuentherJauch2_1.png,0,45,45,43,,,2.nein,1.341,None,None,None,None,None,polit,1.54,None,,['return'],[0.06674617757380474],2017_Feb_08_1322,60.0073146976,famFaceFilter,001,14,
25,./img/smoo15_JasonSegel(Marshall)6_1.png,0,46,46,24,,,2.nein,2.141,None,None,None,None,None,sport,0.707,None,,['return'],[0.21709845922487148],2017_Feb_08_1322,60.0073146976,famFaceFilter,001,14,
17,./img/smoo15_GeorgeClooney11_1.png,0,47,47,16,,,1.ja,2.174,None,act,1.241,None,None,None,None,None,,['return'],[0.2836980399006279],2017_Feb_08_1322,60.0073146976,famFaceFilter,001,14,
72,./img/smoo15_HughLaurie(DrHouse)2_1.png,0,48,48,71,,,1.ja,1.041,None,act,2.739,None,None,None,None,None,chyu lori,"['c', 'h', 'y', 'u', 'space', 'l', 'o', 'r', 'i', 'return']","[0.9334408377253567, 1.2166108721648925, 1.8831905002643907, 2.2328016495848715, 2.5159784204242897, 2.7993944938589266, 2.9324252452042856, 3.3325606789258018, 3.6323997751969728, 3.899091291696095]",2017_Feb_08_1322,60.0073146976,famFaceFilter,001,14,
37,./img/smoo15_Ice-T(OdafinFinTutuola)5_1.png,0,49,49,36,,,2.nein,1.257,None,None,None,None,None,polit,1.74,None,,['return'],[0.150335601039842],2017_Feb_08_1322,60.0073146976,famFaceFilter,001,14,
65,./img/smoo15_UrsulavonderLeyen4_1.png,0,50,50,64,,,2.nein,1.441,None,None,None,host,0.958,None,None,None,,['return'],[0.21700607430830132],2017_Feb_08_1322,60.0073146976,famFaceFilter,001,14,
40,./img/smoo15_NeilPatrickHarris(Barney)2_2.png,0,51,51,39,,,1.ja,6.022,None,act,1.036,None,None,None,None,None,nil patrik harris,"['n', 'i', 'l', 'space', 'p', 'a', 't', 'r', 'i', 'k', 'space', 'h', 'a', 'r', 'r', 'i', 's', 'return']","[1.0167008191456262, 1.2499031241495686, 1.4497904017189285, 1.7330646899699786, 2.0327857388474513, 2.5658470285416115, 4.232086949603399, 4.382312843556065, 4.681862916180762, 4.815115327170133, 5.281500369539572, 6.680335036466204, 7.03014410763717, 7.296737144381041, 7.430465273535447, 7.680432233097235, 8.047069794238269, 8.49690157670193]",2017_Feb_08_1322,60.0073146976,famFaceFilter,001,14,
59,./img/smoo15_JoshRadnor(Ted)1_2.png,0,52,52,58,,,1.ja,1.786,None,act,0.724,None,None,None,None,None,,['return'],[0.30019965406972915],2017_Feb_08_1322,60.0073146976,famFaceFilter,001,14,
35,./img/smoo15_KatjaBurkard1_1.png,0,53,53,34,,,2.nein,1.391,None,None,None,music,0.656,None,None,None,,['return'],[0.1001667419423029],2017_Feb_08_1322,60.0073146976,famFaceFilter,001,14,
7,./img/smoo15_LisaEdelstein(DrLisaCuddy)2_2.png,0,54,54,6,,,1.ja,2.741,None,None,None,music,0.54,None,None,None,,['return'],[0.08387876789311122],2017_Feb_08_1322,60.0073146976,famFaceFilter,001,14,
1,./img/smoo15_Ice-T(OdafinFinTutuola)6_1.png,0,55,55,0,,,2.nein,1.258,None,None,None,None,None,sport,1.456,None,boks,"['b', 'o', 'k', 's', 'return']","[0.9167704927713203, 1.2330832952666242, 1.4330793175831786, 1.8496226974348247, 2.1661465738015977]",2017_Feb_08_1322,60.0073146976,famFaceFilter,001,14,
53,./img/smoo15_GuentherJauch4_1.png,0,56,56,52,,,2.nein,1.224,None,None,None,None,None,polit,1.89,None,,['return'],[0.18376386415184243],2017_Feb_08_1322,60.0073146976,famFaceFilter,001,14,
61,./img/smoo15_OmarEpps(DrEricForeman)3_1.png,0,57,57,60,,,1.ja,4.906,None,None,None,music,0.952,None,None,None,,['return'],[0.2502434727484797],2017_Feb_08_1322,60.0073146976,famFaceFilter,001,14,
3,./img/smoo15_JoshRadnor(Ted)3_1.png,0,58,58,2,,,1.ja,8.389,None,dummy,1.052,None,None,None,None,None,dgosch rednor,"['d', 'g', 'o', 's', 'c', 'h', 'space', 'r', 'e', 'd', 'n', 'o', 'r', 'return']","[1.683259917264877, 1.9163563645524846, 2.732777911793164, 2.9160904371346987, 3.0991687923760765, 3.19906287050253, 3.3657923033115367, 15.860899431319922, 15.994153125433513, 18.30989750406843, 18.609530338180775, 18.726580744418243, 19.292861468818955, 19.426238663601907]",2017_Feb_08_1322,60.0073146976,famFaceFilter,001,14,
67,./img/smoo15_GeorgeClooney4_2.png,0,59,59,66,,,1.ja,1.935,None,None,None,host,2.007,None,None,None,,['return'],[0.2669167047315568],2017_Feb_08_1322,60.0073146976,famFaceFilter,001,14,
58,./img/smoo15_EmilyDeschanel3_1.png,0,60,60,57,,,2.nein,1.94,None,None,None,music,1.057,None,None,None,,['return'],[0.21709460985402984],2017_Feb_08_1322,60.0073146976,famFaceFilter,001,14,
34,./img/smoo15_EmilyDeschanel5_1.png,0,61,61,33,,,2.nein,1.273,None,None,None,music,0.59,None,None,None,,['return'],[0.30035747830334003],2017_Feb_08_1322,60.0073146976,famFaceFilter,001,14,
15,./img/smoo15_LisaEdelstein(DrLisaCuddy)1_1.png,0,62,62,14,,,1.ja,2.274,None,None,None,music,0.591,None,None,None,,['return'],[0.2171266879504401],2017_Feb_08_1322,60.0073146976,famFaceFilter,001,14,
9,./img/smoo15_EmilyDeschanel6_12.png,0,63,63,8,,,2.nein,1.191,None,None,None,music,0.541,None,None,None,,['return'],[0.3002554699578468],2017_Feb_08_1322,60.0073146976,famFaceFilter,001,14,
24,./img/smoo15_BastianSchweinsteiger1_1.png,0,64,64,23,,,2.nein,2.89,None,None,None,None,None,polit,0.872,None,,['return'],[0.15135119356273208],2017_Feb_08_1322,60.0073146976,famFaceFilter,001,14,
5,./img/smoo15_BarackObama1_3.png,0,65,65,4,,,1.ja,1.491,None,None,None,None,None,polit,0.625,None,obama,"['o', 'b', 'a', 'm', 'a', 'return']","[0.5834133147200191, 1.1666729753596883, 1.466427064675372, 1.7495204324641236, 2.082734542207618, 2.6160739489932894]",2017_Feb_08_1322,60.0073146976,famFaceFilter,001,14,
19,./img/smoo15_NicoleKidman7_1.png,0,66,66,18,,,2.nein,1.257,None,None,None,host,6.439,None,None,None,,['return'],[0.20021960664416838],2017_Feb_08_1322,60.0073146976,famFaceFilter,001,14,
57,./img/smoo15_UrsulavonderLeyen5_1.png,0,67,67,56,,,2.nein,1.358,None,None,None,None,None,polit,0.874,None,,['return'],[0.08367827979236608],2017_Feb_08_1322,60.0073146976,famFaceFilter,001,14,
20,./img/smoo15_NicoleKidman5_1.png,0,68,68,19,,,2.nein,1.008,None,None,None,None,None,sport,0.774,None,,['return'],[0.06662460158986505],2017_Feb_08_1322,60.0073146976,famFaceFilter,001,14,
14,./img/smoo15_BritneySpears7_1.png,0,69,69,13,,,1.ja,1.675,None,act,1.156,None,None,None,None,None,britney,"['b', 'r', 'i', 't', 'n', 'e', 'y', 'return']","[0.7169467298299423, 1.1666299907101347, 1.4665136755338608, 8.730425304229357, 8.980439739372741, 9.463550942582515, 9.996590739952808, 10.562998814393723]",2017_Feb_08_1322,60.0073146976,famFaceFilter,001,14,
10,./img/smoo15_KatjaBurkard5_3.png,0,70,70,9,,,2.nein,1.184,None,None,None,None,None,polit,5.438,None,,['return'],[0.08352430493323482],2017_Feb_08_1322,60.0073146976,famFaceFilter,001,14,
68,./img/smoo15_AlysonHannigan(Lily)8_3.png,0,71,71,67,,,1.ja,2.057,None,None,None,music,1.024,None,None,None,stirling,"['s', 't', 'i', 'r', 'l', 'i', 'n', 'g', 'return']","[1.332773035921491, 1.7992748425604077, 2.082536620353494, 2.4655009700400115, 2.9320518561653444, 3.115418272709576, 3.4985494284956076, 3.932005663707969, 4.231550283057004]",2017_Feb_08_1322,60.0073146976,famFaceFilter,001,14,
44,./img/edges5_EmilyDeschanel5_1.png,0,0,0,43,,,2.nein,2.209,None,None,None,None,None,sport,5.102,None,,['return'],[0.16706432813225547],2017_Feb_08_1322,60.0073146976,famFaceFilter,001,14,
11,./img/edges5_RobertSeanLeonard(Wilson)1_1.png,0,1,1,10,,,1.ja,2.904,None,act,0.406,None,None,None,None,None,,['return'],[0.11713124303787481],2017_Feb_08_1322,60.0073146976,famFaceFilter,001,14,
27,./img/edges5_OmarEpps(DrEricForeman)2_2.png,0,2,2,26,,,1.ja,1.19,None,None,None,music,0.573,None,None,None,,['return'],[0.15035324399468664],2017_Feb_08_1322,60.0073146976,famFaceFilter,001,14,
36,./img/edges5_AngelaMerkel1_1.png,0,3,3,35,,,1.ja,1.207,None,None,None,None,None,polit,0.607,None,merkel,"['m', 'e', 'r', 'k', 'e', 'l', 'return']","[0.8500182203588338, 1.2332725560336257, 1.383224823826822, 1.6664769781909854, 1.9660004259967536, 2.265811293542356, 2.549410853687732]",2017_Feb_08_1322,60.0073146976,famFaceFilter,001,14,
58,./img/edges5_HughLaurie(DrHouse)5_3.png,0,4,4,57,,,1.ja,1.789,None,act,0.957,None,None,None,None,None,chyu lori,"['s', 'backspace', 'c', 'h', 'y', 'u', 'space', 'l', 'o', 'r', 'i', 'return']","[0.6667413017039507, 2.2158442056697822, 3.265689396777816, 3.515635184794519, 3.965338334093758, 4.265446565590537, 4.831965630244667, 5.198214404861574, 5.348268360219663, 5.748230893002983, 6.031472461596422, 6.297724508178362]",2017_Feb_08_1322,60.0073146976,famFaceFilter,001,14,
32,./img/edges5_Ice-T(OdafinFinTutuola)7_1.png,0,5,5,31,,,2.nein,1.317,None,None,None,None,None,polit,2.14,None,,['return'],[0.21718250383491977],2017_Feb_08_1322,60.0073146976,famFaceFilter,001,14,
46,./img/edges5_TomCruise5_1.png,0,6,6,45,,,1.ja,4.322,None,dummy,0.416,None,None,None,None,None,,['return'],[0.21699837556479906],2017_Feb_08_1322,60.0073146976,famFaceFilter,001,14,
16,./img/edges5_BritneySpears7_1.png,0,7,7,15,,,1.ja,3.356,None,None,None,music,2.355,None,None,None,britney,"['b', 'r', 'i', 't', 'n', 'e', 'y', 'return']","[3.3159349225243204, 3.865549792903039, 4.115447784557546, 4.381986930100538, 4.798430226290293, 5.365009597766402, 6.297858915400866, 6.664215472419528]",2017_Feb_08_1322,60.0073146976,famFaceFilter,001,14,
47,./img/edges5_UrsulavonderLeyen5_1.png,0,8,8,46,,,2.nein,1.683,None,None,None,None,None,sport,0.889,None,,['return'],[0.08381781950993172],2017_Feb_08_1322,60.0073146976,famFaceFilter,001,14,
48,./img/edges5_GeorgeClooney3_1.png,0,9,9,47,,,1.ja,3.256,None,None,None,host,0.674,None,None,None,,['return'],[0.28364222401251027],2017_Feb_08_1322,60.0073146976,famFaceFilter,001,14,
34,./img/edges5_KatjaBurkard1_1.png,0,10,10,33,,,2.nein,1.139,None,None,None,None,None,polit,0.64,None,,['return'],[0.06719976185195264],2017_Feb_08_1322,60.0073146976,famFaceFilter,001,14,
1,./img/edges5_BastianSchweinsteiger6_2.png,0,11,11,0,,,2.nein,1.472,None,None,None,None,None,sport,0.856,None,,['return'],[0.13386061169148888],2017_Feb_08_1322,60.0073146976,famFaceFilter,001,14,
8,./img/edges5_LeonardoDiCaprio3_1.png,0,12,12,7,,,1.ja,3.538,None,act,1.106,None,None,None,None,None,leonardo di kaprio,"['l', 'e', 'o', 'n', 'a', 'r', 'd', 'o', 'space', 'd', 'i', 'space', 'k', 's', 'p', 'backspace', 'backspace', 'a', 'p', 'r', 'i', 'o', 'return']","[0.5501643681654969, 0.98307142637168, 1.2165492822205124, 1.6996598438690853, 2.1162407550928037, 2.3827609745585505, 2.61601620842157, 2.982506210319116, 3.3490270071906707, 4.83166698317109, 5.1150018990229, 5.414642431878747, 5.598124008787636, 5.948124906974044, 6.331195435159316, 7.464077985701806, 7.61405078347525, 8.280406506464715, 9.613295023533283, 10.063047252318938, 10.362974242572818, 10.529585948768727, 10.796133113834003]",2017_Feb_08_1322,60.0073146976,famFaceFilter,001,14,
14,./img/edges5_AngelaMerkel4_1.png,0,13,13,13,,,1.ja,2.55,None,None,None,None,None,polit,0.639,None,merkel,"['m', 'e', 'r', 'k', 'l', 'backspace', 'e', 'l', 'return']","[0.5501848981457442, 0.983346014874769, 1.116678941885766, 1.4334758028508077, 2.6160020940587856, 3.4323957333563158, 3.748940139706974, 3.998801241550609]",2017_Feb_08_1322,60.0073146976,famFaceFilter,001,14,
18,./img/edges5_JoshRadnor(Ted)6_2.png,0,14,14,17,,,1.ja,1.806,None,act,1.44,None,None,None,None,None,comedien,"['c', 'o', 'm', 'e', 'd', 'i', 'e', 'n', 'return']","[0.5834675267014973, 0.9165154719066777, 1.216719616910268, 1.7332067959378037, 1.8997655732746352, 2.149508627724572, 2.4992076710277615, 2.8327053511402482, 3.2158740382983524]",2017_Feb_08_1322,60.0073146976,famFaceFilter,001,14,
23,./img/edges5_UrsulavonderLeyen1_1.png,0,15,15,22,,,2.nein,1.04,None,None,None,None,None,polit,0.573,None,,['return'],[0.16718430020955566],2017_Feb_08_1322,60.0073146976,famFaceFilter,001,14,
25,./img/edges5_JoachimLoew8_1.png,0,16,16,24,,,2.nein,1.789,None,None,None,None,None,polit,0.623,None,,['return'],[0.10030756478408875],2017_Feb_08_1322,60.0073146976,famFaceFilter,001,14,
33,./img/edges5_BarackObama2_1.png,0,17,17,32,,,1.ja,1.006,None,None,None,None,None,polit,0.789,None,obama,"['o', 'b', 'a', 'm', 'a', 'return']","[0.400359980394569, 1.0499680502161937, 1.4831172980484553, 1.7827953622781934, 2.0996692106746195, 2.449545966628648]",2017_Feb_08_1322,60.0073146976,famFaceFilter,001,14,
43,./img/edges5_BarackObama1_3.png,0,18,18,42,,,1.ja,1.089,None,None,None,None,None,polit,0.589,None,obama,"['o', 'b', 'a', 'm', 'a', 'return']","[0.7665369000751525, 2.1829773092376854, 2.766114431549795, 3.082671348358417, 3.465687022999191, 3.8155727608209418]",2017_Feb_08_1322,60.0073146976,famFaceFilter,001,14,
50,./img/edges5_WillSmith5_1.png,0,19,19,49,,,1.ja,1.19,None,None,None,music,0.523,None,None,None,,['return'],[0.11699266566392907],2017_Feb_08_1322,60.0073146976,famFaceFilter,001,14,
57,./img/edges5_BritneySpears5_1.png,0,20,20,56,,,1.ja,2.357,None,None,None,music,1.14,None,None,None,britney,"['b', 'r', 'o', 'backspace', 'i', 't', 'n', 'e', 'y', 'return']","[0.6001186247995065, 1.0498856095109659, 1.3830143915183726, 2.033048458455596, 2.7493135287459154, 3.648932184340083, 3.8988253642801283, 4.298575540067759, 5.231557340239306, 5.798099180341524]",2017_Feb_08_1322,60.0073146976,famFaceFilter,001,14,
56,./img/edges5_NeilPatrickHarris(Barney)1_1.png,0,21,21,55,,,1.ja,7.781,None,act,0.902,None,None,None,None,None,nil patrik harris,"['n', 'i', 'l', 'space', 'p', 'a', 't', 'r', 'i', 'k', 'space', 'h', 'a', 'r', 'r', 'i', 's', 'return']","[2.482885052633719, 2.8161257871961425, 2.9826078978840087, 3.3326110415364383, 3.6322932759176183, 4.131805368077039, 4.398600496824656, 4.58190981435655, 4.831904040300287, 5.015233567031828, 5.364837659171826, 5.731465276101517, 6.8143608503505675, 7.264189104225807, 7.380908464510867, 8.1472625194383, 8.53039239210193, 8.830302380963985]",2017_Feb_08_1322,60.0073146976,famFaceFilter,001,14,
22,./img/edges5_JasonSegel(Marshall)6_1.png,0,22,22,21,,,2.nein,1.35,None,None,None,None,None,polit,1.456,None,,['return'],[0.13375379162971512],2017_Feb_08_1322,60.0073146976,famFaceFilter,001,14,
2,./img/edges5_OmarEpps(DrEricForeman)1_5.png,0,23,23,1,,,1.ja,1.589,None,None,None,music,0.506,None,None,None,,['return'],[0.10025720217527123],2017_Feb_08_1322,60.0073146976,famFaceFilter,001,14,
4,./img/edges5_LeonardoDiCaprio1_1.png,0,24,24,3,,,1.ja,1.04,None,act,0.805,None,None,None,None,None,leonardo,"['l', 'e', 'o', 'n', 'a', 'r', 'd', 'o', 'return']","[0.9832914821108716, 1.3500823765498353, 1.7665176532173064, 2.233049292484793, 2.6325720345721493, 3.132646134974493, 3.3493044827209815, 3.6990115455482737, 4.215533689699441]",2017_Feb_08_1322,60.0073146976,famFaceFilter,001,14,
71,./img/edges5_HughLaurie(DrHouse)4_1.png,0,25,25,70,,,1.ja,2.003,None,act,0.624,None,None,None,None,None,chyu lori,"['c', 'h', 'y', 'u', 'space', 'l', 'o', 'r', 'i', 'return']","[0.9333978530776221, 1.1833888712098997, 1.583189409608167, 1.8996917936528916, 2.1663242864542553, 2.4495604017720325, 2.5661562613877322, 2.9491860503912903, 3.79897395001899, 4.081893133747144]",2017_Feb_08_1322,60.0073146976,famFaceFilter,001,14,
20,./img/edges5_JoshRadnor(Ted)1_2.png,0,26,26,19,,,1.ja,7.414,None,dummy,1.565,None,None,None,None,None,ted mosbi,"['t', 'e', 'd', 'space', 'm', 'o', 's', 'b', 'i', 'return']","[0.366983042236825, 0.8001505745833128, 1.0166340967080032, 2.0163239015182626, 2.265959815127644, 2.5161339991900604, 3.1821259565695073, 3.515079912953297, 3.848715528878529, 4.09868826249658]",2017_Feb_08_1322,60.0073146976,famFaceFilter,001,14,
64,./img/edges5_EmilyDeschanel3_1.png,0,27,27,63,,,2.nein,1.294,None,None,None,music,3.239,None,None,None,,['return'],[0.23352148205958656],2017_Feb_08_1322,60.0073146976,famFaceFilter,001,14,
19,./img/edges5_HughLaurie(DrHouse)2_1.png,0,28,28,18,,,1.ja,0.973,None,act,1.072,None,None,None,None,None,chyu lori,"['c', 'h', 'y', 'u', 'space', 'l', 'o', 'r', 'i', 'return']","[2.882496651047404, 3.2156376227321743, 3.665733407926382, 3.9989010044300812, 4.233372639693698, 4.565267377347482, 5.814694462551415, 6.414460549074647, 6.614528105545105, 6.881071100458939]",2017_Feb_08_1322,60.0073146976,famFaceFilter,001,14,
24,./img/edges5_JasonSegel(Marshall)7_1.png,0,29,29,23,,,1.ja,8.648,None,act,2.216,None,None,None,None,None,marshal erikson,"['m', 'a', 'r', 's', 'h', 'a', 'l', 'space', 'e', 'r', 'i', 'k', 's', 'o', 'n', 'return']","[2.2827889466570923, 2.7493645329177525, 2.9659725180536043, 4.398602100729477, 4.6484545414878085, 4.965229268567782, 5.264734111076905, 8.797001788674606, 9.696499830626635, 9.830017848253192, 10.146364011969126, 11.012800443448214, 11.51263139188086, 11.845736756878978, 12.178887031210252, 13.128471812335192]",2017_Feb_08_1322,60.0073146976,famFaceFilter,001,14,
53,./img/edges5_KatjaBurkard4_1.png,0,30,30,52,,,2.nein,1.334,None,None,None,None,None,polit,0.872,None,,['return'],[0.1337281291544059],2017_Feb_08_1322,60.0073146976,famFaceFilter,001,14,
9,./img/edges5_RobertSeanLeonard(Wilson)8_1.png,0,31,31,8,,,1.ja,1.474,None,dummy,0.74,None,None,None,None,None,,['return'],[0.18343762991571566],2017_Feb_08_1322,60.0073146976,famFaceFilter,001,14,
30,./img/edges5_MariskaHargitay(Liv)8_8.png,0,32,32,29,,,2.nein,1.056,None,None,None,None,None,sport,0.722,None,,['return'],[0.20053717979681096],2017_Feb_08_1322,60.0073146976,famFaceFilter,001,14,
42,./img/edges5_JoachimLoew4_1.png,0,33,33,41,,,2.nein,1.239,None,None,None,None,None,polit,0.523,None,,['return'],[0.13360879863648734],2017_Feb_08_1322,60.0073146976,famFaceFilter,001,14,
6,./img/edges5_GuentherJauch3_1.png,0,34,34,5,,,2.nein,1.206,None,None,None,None,None,polit,0.673,None,,['return'],[0.11716107566826395],2017_Feb_08_1322,60.0073146976,famFaceFilter,001,14,
26,./img/edges5_NicoleKidman7_1.png,0,35,35,25,,,2.nein,1.273,None,None,None,None,None,polit,2.889,None,,['return'],[0.350364022235226],2017_Feb_08_1322,60.0073146976,famFaceFilter,001,14,
68,./img/edges5_MariskaHargitay(Liv)4_4.png,0,36,36,67,,,2.nein,1.274,None,None,None,None,None,sport,0.707,None,,['return'],[0.11715626395380241],2017_Feb_08_1322,60.0073146976,famFaceFilter,001,14,
72,./img/edges5_EmilyDeschanel6_12.png,0,37,37,71,,,2.nein,1.206,None,None,None,host,1.256,None,None,None,,['return'],[0.06698002689518034],2017_Feb_08_1322,60.0073146976,famFaceFilter,001,14,
21,./img/edges5_JoshRadnor(Ted)3_1.png,0,38,38,20,,,1.ja,5.005,None,act,0.599,None,None,None,None,None,ted mosbi,"['t', 'e', 'd', 'space', 'm', 'o', 's', 'b', 'i', 'return']","[0.7167824899788684, 0.9500733305267204, 1.1665347187645239, 1.5497435035431408, 1.7830901599791105, 1.9996728034202533, 2.466114303237191, 2.799292164732833, 3.1323282410430693, 3.365542414941956]",2017_Feb_08_1322,60.0073146976,famFaceFilter,001,14,
3,./img/edges5_NicoleKidman5_1.png,0,39,39,2,,,2.nein,1.024,None,None,None,music,1.356,None,None,None,,['return'],[0.2501722593769955],2017_Feb_08_1322,60.0073146976,famFaceFilter,001,14,
65,./img/edges5_LisaEdelstein(DrLisaCuddy)1_1.png,0,40,40,64,,,1.ja,2.089,None,act,0.624,None,None,None,None,None,,['return'],[0.28323386984993704],2017_Feb_08_1322,60.0073146976,famFaceFilter,001,14,
60,./img/edges5_TomCruise1_1.png,0,41,41,59,,,1.ja,5.139,None,act,0.568,None,None,None,None,None,,['return'],[0.11708857917255955],2017_Feb_08_1322,60.0073146976,famFaceFilter,001,14,
37,./img/edges5_JasonSegel(Marshall)9_1.png,0,42,42,36,,,1.ja,5.089,None,dummy,0.483,None,None,None,None,None,marshal ericson,"['m', 'a', 'r', 's', 'h', 'a', 'l', 'space', 'e', 'r', 'i', 'k', 's', 'backspace', 'backspace', 'c', 's', 'o', 'n', 'return']","[0.6667964760290488, 1.1000371464342606, 1.366377728561929, 2.2329427932072576, 2.5162382530015748, 2.7828210247535026, 3.1325531084949034, 3.432383222898352, 5.714992532219185, 5.898177386738098, 6.214847860006557, 6.397968879115069, 7.480739669570539, 8.31372923264098, 8.447164809558672, 9.197751838715703, 9.413036281610403, 9.746757225269903, 10.17961937414293, 11.445862759639567]",2017_Feb_08_1322,60.0073146976,famFaceFilter,001,14,
54,./img/edges5_KatjaBurkard5_3.png,0,43,43,53,,,2.nein,1.317,None,None,None,None,None,polit,0.573,None,,['return'],[0.16659181777686172],2017_Feb_08_1322,60.0073146976,famFaceFilter,001,14,
15,./img/edges5_LisaEdelstein(DrLisaCuddy)6_3.png,0,44,44,14,,,1.ja,2.606,None,act,0.407,None,None,None,None,None,,['return'],[0.11694583164353389],2017_Feb_08_1322,60.0073146976,famFaceFilter,001,14,
67,./img/edges5_LeonardoDiCaprio2_1.png,0,45,45,66,,,1.ja,1.007,None,dummy,0.657,None,None,None,None,None,leonardo,"['l', 'e', 'o', 'n', 'a', 'r', 'd', 'o', 'return']","[0.6833952868291817, 1.0832750581248547, 1.3664428470983694, 1.8330296606909542, 2.2162259350116074, 2.5493107700276596, 2.76607112612146, 3.115815078757805, 3.3322681266909058]",2017_Feb_08_1322,60.0073146976,famFaceFilter,001,14,
55,./img/edges5_JoachimLoew1_1.png,0,46,46,54,,,1.ja,2.089,None,None,None,None,None,polit,0.856,None,,['return'],[0.3170204452944745],2017_Feb_08_1322,60.0073146976,famFaceFilter,001,14,
10,./img/edges5_GuentherJauch4_1.png,0,47,47,9,,,2.nein,1.107,None,None,None,None,None,polit,0.607,None,,['return'],[0.10043138623586856],2017_Feb_08_1322,60.0073146976,famFaceFilter,001,14,
12,./img/edges5_UrsulavonderLeyen4_1.png,0,48,48,11,,,2.nein,1.174,None,None,None,None,None,polit,0.624,None,,['return'],[0.08361508594316547],2017_Feb_08_1322,60.0073146976,famFaceFilter,001,14,
13,./img/edges5_MariskaHargitay(Liv)6_5.png,0,49,49,12,,,2.nein,0.84,None,None,None,None,None,sport,0.655,None,,['return'],[0.10033451038543717],2017_Feb_08_1322,60.0073146976,famFaceFilter,001,14,
62,./img/edges5_AlysonHannigan(Lily)5_4.png,0,50,50,61,,,1.ja,1.556,None,None,None,music,1.656,None,None,None,stirling,"['s', 't', 'i', 'r', 'l', 'i', 'n', 'g', 'return']","[1.184141744124645, 1.516479159503433, 1.8165065541961667, 2.2493475315259275, 2.582743203292921, 2.7325854432165215, 3.2157778040109406, 3.448992619471028, 3.832201404251464]",2017_Feb_08_1322,60.0073146976,famFaceFilter,001,14,
52,./img/edges5_BarackObama4_1.png,0,51,51,51,,,1.ja,0.941,None,None,None,None,None,polit,1.057,None,obama,"['o', 'b', 'a', 'm', 'a', 'return']","[0.4668450422668684, 1.1998875983517792, 1.5333066871298797, 1.88294381970627, 2.2329767959890887, 2.6827890108143038]",2017_Feb_08_1322,60.0073146976,famFaceFilter,001,14,
35,./img/edges5_WillSmith1_1.png,0,52,52,34,,,1.ja,1.257,None,None,None,music,0.84,None,None,None,,['return'],[0.13371722260126262],2017_Feb_08_1322,60.0073146976,famFaceFilter,001,14,
70,./img/edges5_BastianSchweinsteiger1_1.png,0,53,53,69,,,2.nein,1.29,None,None,None,None,None,polit,0.556,None,,['return'],[0.10033098179519584],2017_Feb_08_1322,60.0073146976,famFaceFilter,001,14,
5,./img/edges5_AlysonHannigan(Lily)1_1.png,0,54,54,4,,,1.ja,1.423,None,None,None,music,1.222,None,None,None,stirling,"['s', 't', 'i', 'r', 'l', 'i', 'n', 'g', 'return']","[0.4503097460947174, 1.6330814347365958, 1.9163124175593111, 3.01573302298857, 4.098889071377926, 4.24862128343193, 4.6818420654180954, 4.931898202086813, 5.2649605824353785]",2017_Feb_08_1322,60.0073146976,famFaceFilter,001,14,
17,./img/edges5_NeilPatrickHarris(Barney)3_7.png,0,55,55,16,,,1.ja,4.516,None,dummy,0.766,None,None,None,None,None,barni stinson,"['n', 'i', 'l', 'backspace', 'backspace', 'backspace', 'b', 'a', 'r', 'n', 'i', 'space', 's', 't', 'i', 'n', 's', 'o', 'n', 'return']","[0.6168409362689999, 1.099967536965778, 1.2329655686553451, 3.5156063145095686, 3.715548124842826, 4.065253262982878, 4.748539484286084, 5.214698055297049, 5.414881092912765, 5.764787681497182, 6.048010324013376, 8.563679511591545, 9.013477932836395, 9.29670538706705, 9.546649250398332, 10.04633648896197, 10.945983052499287, 11.262615994395674, 11.745729122292687, 12.045436377587976]",2017_Feb_08_1322,60.0073146976,famFaceFilter,001,14,
29,./img/edges5_TomCruise4_1.png,0,56,56,28,,,1.ja,1.833,None,dummy,1.406,None,None,None,None,None,,['return'],[0.18385592828963127],2017_Feb_08_1322,60.0073146976,famFaceFilter,001,14,
59,./img/edges5_BastianSchweinsteiger3_1.png,0,57,57,58,,,2.nein,1.04,None,None,None,None,None,polit,0.791,None,,['return'],[0.11708376745809801],2017_Feb_08_1322,60.0073146976,famFaceFilter,001,14,
51,./img/edges5_Ice-T(OdafinFinTutuola)6_1.png,0,58,58,50,,,2.nein,1.19,None,None,None,host,1.306,None,None,None,,['return'],[0.1005224880282185],2017_Feb_08_1322,60.0073146976,famFaceFilter,001,14,
66,./img/edges5_BritneySpears1_1.png,0,59,59,65,,,2.nein,0.972,None,None,None,None,None,sport,1.223,None,,['return'],[0.13376822677491873],2017_Feb_08_1322,60.0073146976,famFaceFilter,001,14,
39,./img/edges5_AlysonHannigan(Lily)8_3.png,0,60,60,38,,,1.ja,1.556,None,None,None,music,0.938,None,None,None,stirling,"['s', 't', 'i', 'r', 'l', 'i', 'n', 'g', 'return']","[0.816701909800031, 2.0326356133573427, 2.332729409710737, 2.749284658457327, 3.049135302842842, 3.215874679859553, 3.598915054635654, 3.8656373661051475, 4.182140070930473]",2017_Feb_08_1322,60.0073146976,famFaceFilter,001,14,
40,./img/edges5_NicoleKidman3_1.png,0,61,61,39,,,2.nein,1.015,None,None,None,None,None,sport,1.423,None,,['return'],[0.16726032529732038],2017_Feb_08_1322,60.0073146976,famFaceFilter,001,14,
31,./img/edges5_GeorgeClooney4_2.png,0,62,62,30,,,1.ja,1.123,None,dummy,0.906,None,None,None,None,None,,['return'],[0.18374012636195403],2017_Feb_08_1322,60.0073146976,famFaceFilter,001,14,
61,./img/edges5_NeilPatrickHarris(Barney)2_2.png,0,63,63,60,,,1.ja,2.94,None,dummy,0.64,None,None,None,None,None,barni stinson,"['b', 'a', 'r', 'n', 'i', 'space', 's', 't', 'i', 'n', 's', 'o', 'n', 'return']","[0.7000290627547656, 1.0499308396247216, 1.28321366065029, 1.7663559796128538, 2.0329207876329747, 2.61604475792592, 2.9992407114659727, 3.3158309894934064, 3.599046574829117, 4.049470518946691, 4.598585291807467, 4.915010367640207, 5.398284527578653, 5.698154098041414]",2017_Feb_08_1322,60.0073146976,famFaceFilter,001,14,
41,./img/edges5_OmarEpps(DrEricForeman)3_1.png,0,64,64,40,,,1.ja,2.034,None,None,None,music,0.622,None,None,None,,['return'],[0.11694551086293359],2017_Feb_08_1322,60.0073146976,famFaceFilter,001,14,
45,./img/edges5_WillSmith4_1.png,0,65,65,44,,,1.ja,1.124,None,act,2.206,None,None,None,None,None,,['return'],[0.16687667126825545],2017_Feb_08_1322,60.0073146976,famFaceFilter,001,14,
38,./img/edges5_GeorgeClooney11_1.png,0,66,66,37,,,1.ja,1.007,None,act,0.407,None,None,None,None,None,,['return'],[0.06712566144960874],2017_Feb_08_1322,60.0073146976,famFaceFilter,001,14,
7,./img/edges5_AngelaMerkel3_1.png,0,67,67,6,,,1.ja,1.073,None,None,None,None,None,polit,0.789,None,merkel,"['m', 'e', 'r', 'k', 'e', 'l', 'return']","[0.6500552384804905, 1.3498267141239921, 1.516521502588148, 1.949635143733758, 2.249566624921499, 2.5493245636080246, 2.8325719062595454]",2017_Feb_08_1322,60.0073146976,famFaceFilter,001,14,
28,./img/edges5_Ice-T(OdafinFinTutuola)5_1.png,0,68,68,27,,,2.nein,1.208,None,None,None,host,1.057,None,None,None,,['return'],[0.3836437637601193],2017_Feb_08_1322,60.0073146976,famFaceFilter,001,14,
49,./img/edges5_RobertSeanLeonard(Wilson)2_6.png,0,69,69,48,,,1.ja,1.206,None,dummy,0.706,None,None,None,None,None,,['return'],[0.13355105806476786],2017_Feb_08_1322,60.0073146976,famFaceFilter,001,14,
63,./img/edges5_LisaEdelstein(DrLisaCuddy)2_2.png,0,70,70,62,,,1.ja,1.706,None,dummy,0.491,None,None,None,None,None,,['return'],[0.08384572745308105],2017_Feb_08_1322,60.0073146976,famFaceFilter,001,14,
69,./img/edges5_GuentherJauch2_1.png,0,71,71,68,,,2.nein,0.839,None,None,None,None,None,polit,0.64,None,,['return'],[0.11717711471646908],2017_Feb_08_1322,60.0073146976,famFaceFilter,001,14,
57,./img/gray_UrsulavonderLeyen5_1.png,0,0,0,56,,,2.nein,1.45,None,None,None,None,None,polit,2.705,None,,['return'],[0.11736733782709052],2017_Feb_08_1322,60.0073146976,famFaceFilter,001,14,
11,./img/gray_EmilyDeschanel6_12.png,0,1,1,10,,,2.nein,2.088,None,act,0.906,None,None,None,None,None,,['return'],[0.13357351273225504],2017_Feb_08_1322,60.0073146976,famFaceFilter,001,14,
34,./img/gray_RobertSeanLeonard(Wilson)2_6.png,0,2,2,33,,,1.ja,0.856,None,dummy,0.473,None,None,None,None,None,,['return'],[0.13346316408023995],2017_Feb_08_1322,60.0073146976,famFaceFilter,001,14,
1,./img/gray_JoachimLoew8_1.png,0,3,3,0,,,2.nein,0.972,None,None,None,None,None,polit,0.522,None,,['return'],[0.10002271129269502],2017_Feb_08_1322,60.0073146976,famFaceFilter,001,14,
17,./img/gray_JasonSegel(Marshall)6_1.png,0,4,4,16,,,1.ja,6.72,None,act,0.449,None,None,None,None,None,marshal erikson,"['m', 'a', 'r', 's', 'h', 'a', 'k', 'backspace', 'l', 'space', 'e', 'r', 'i', 'k', 's', 'o', 'n', 'return']","[1.0995697685757477, 1.4995470572830527, 1.7331990971943014, 2.1996367476403975, 3.1656272294276278, 3.532367761255955, 3.8488794479490025, 4.731528790733137, 5.198252257014246, 5.531517370931397, 6.980949460317788, 7.147698460765241, 7.430882288785142, 8.047247827671526, 8.696937055075978, 8.996875272663601, 9.313384713888809, 9.596703590694233]",2017_Feb_08_1322,60.0073146976,famFaceFilter,001,14,
31,./img/gray_AngelaMerkel3_1.png,0,5,5,30,,,1.ja,1.428,None,None,None,None,None,polit,1.239,None,merkel,"['m', 'e', 'r', 'k', 'e', 'l', 'return']","[0.5336762267943413, 0.8999991018135916, 1.050057548105542, 1.3166589251541154, 1.6496956430255523, 1.9496556737176434, 2.216196102383037]",2017_Feb_08_1322,60.0073146976,famFaceFilter,001,14,
61,./img/gray_AlysonHannigan(Lily)8_3.png,0,6,6,60,,,1.ja,9.503,None,act,2.178,None,None,None,None,None,lili oldrin,"['l', 'i', 'l', 'i', 'space', 'o', 'l', 'd', 'r', 'i', 'n', 'return']","[0.566674322637482, 0.7168283616556437, 0.8833066229708493, 1.033280383087913, 3.7656569979008054, 4.26542186545521, 4.432093236910077, 4.998330335100036, 5.165106601927619, 5.464871597796446, 5.74822030723044, 6.281133716900513]",2017_Feb_08_1322,60.0073146976,famFaceFilter,001,14,
39,./img/gray_UrsulavonderLeyen1_1.png,0,7,7,38,,,2.nein,1.383,None,None,None,None,None,polit,0.706,None,,['return'],[0.15038083115541667],2017_Feb_08_1322,60.0073146976,famFaceFilter,001,14,
49,./img/gray_NeilPatrickHarris(Barney)1_1.png,0,8,8,48,,,1.ja,1.106,None,act,3.955,None,None,None,None,None,barni,"['b', 'a', 'r', 'n', 'i', 'return']","[0.9659442893298547, 1.8660944789753557, 2.133751546165513, 2.449423107522307, 2.7154259072976856, 3.3156731652616145]",2017_Feb_08_1322,60.0073146976,famFaceFilter,001,14,
53,./img/gray_Ice-T(OdafinFinTutuola)5_1.png,0,9,9,52,,,2.nein,0.94,None,None,None,host,7.654,None,None,None,,['return'],[0.21695603247826512],2017_Feb_08_1322,60.0073146976,famFaceFilter,001,14,
10,./img/gray_HughLaurie(DrHouse)2_1.png,0,10,10,9,,,1.ja,1.173,None,act,2.872,None,None,None,None,None,chyu lori,"['c', 'h', 'y', 'u', 'space', 'l', 'o', 'r', 'i', 'return']","[0.5664430395663658, 0.8334162017472408, 1.783012210205925, 2.099600563547938, 2.649283118709718, 3.082533412543853, 3.2324282605459302, 3.7488644353998097, 4.015751949065816, 4.33194285479658]",2017_Feb_08_1322,60.0073146976,famFaceFilter,001,14,
36,./img/gray_TomCruise5_1.png,0,11,11,35,,,1.ja,1.944,None,act,4.604,None,None,None,None,None,,['return'],[53.41271646299174],2017_Feb_08_1322,60.0073146976,famFaceFilter,001,14,
20,./img/gray_WillSmith1_1.png,0,12,12,19,,,2.nein,1.213,None,None,None,music,0.556,None,None,None,,['return'],[0.06697232815167808],2017_Feb_08_1322,60.0073146976,famFaceFilter,001,14,
64,./img/gray_LisaEdelstein(DrLisaCuddy)2_2.png,0,13,13,63,,,1.ja,1.339,None,dummy,3.739,None,None,None,None,None,,['return'],[0.1503102593451331],2017_Feb_08_1322,60.0073146976,famFaceFilter,001,14,
72,./img/gray_WillSmith4_1.png,0,14,14,71,,,1.ja,1.722,None,act,1.456,None,None,None,None,None,,['return'],[0.1833927205825603],2017_Feb_08_1322,60.0073146976,famFaceFilter,001,14,
52,./img/gray_EmilyDeschanel5_1.png,0,15,15,51,,,2.nein,1.238,None,None,None,music,0.939,None,None,None,,['return'],[0.13336404276378744],2017_Feb_08_1322,60.0073146976,famFaceFilter,001,14,
37,./img/gray_TomCruise1_1.png,0,16,16,36,,,2.nein,1.723,None,None,None,music,0.639,None,None,None,,['return'],[0.13352154621679801],2017_Feb_08_1322,60.0073146976,famFaceFilter,001,14,
55,./img/gray_Ice-T(OdafinFinTutuola)6_1.png,0,17,17,54,,,2.nein,1.156,None,None,None,host,0.772,None,None,None,,['return'],[0.10063636527047493],2017_Feb_08_1322,60.0073146976,famFaceFilter,001,14,
16,./img/gray_JoshRadnor(Ted)1_2.png,0,18,18,15,,,1.ja,12.301,None,act,0.719,None,None,None,None,None,ted mosbi,"['t', 'e', 'd', 'space', 'm', 'o', 's', 'b', 'i', 'return']","[0.5170947381648148, 0.8003484964356176, 1.4165087355067953, 2.049788092097515, 2.4828802409192576, 2.7495383961977495, 4.931988983098563, 5.248565467543813, 5.5649215754692705, 5.831453022268761]",2017_Feb_08_1322,60.0073146976,famFaceFilter,001,14,
60,./img/gray_EmilyDeschanel3_1.png,0,19,19,59,,,2.nein,1.086,None,None,None,music,1.205,None,None,None,,['return'],[0.10034124678713852],2017_Feb_08_1322,60.0073146976,famFaceFilter,001,14,
5,./img/gray_OmarEpps(DrEricForeman)2_2.png,0,20,20,4,,,2.nein,1.439,None,None,None,music,1.505,None,None,None,rep,"['r', 'e', 'p', 'return']","[2.1162744370940345, 2.2660165933575627, 2.932735119613426, 3.1991767477429676]",2017_Feb_08_1322,60.0073146976,famFaceFilter,001,14,
12,./img/gray_BarackObama2_1.png,0,21,21,11,,,1.ja,1.072,None,None,None,None,None,polit,0.823,None,obama,"['o', 'b', 'a', 'm', 'a', 'return']","[0.25024218962607847, 0.8170255777913553, 1.2002507223987777, 1.4998704044919577, 1.8998460892962612, 2.299702122800227]",2017_Feb_08_1322,60.0073146976,famFaceFilter,001,14,
8,./img/gray_BastianSchweinsteiger6_2.png,0,22,22,7,,,2.nein,1.239,None,None,None,None,None,sport,0.706,None,,['return'],[0.116958662882098],2017_Feb_08_1322,60.0073146976,famFaceFilter,001,14,
18,./img/gray_JasonSegel(Marshall)7_1.png,0,23,23,17,,,1.ja,1.289,None,act,1.173,None,None,None,None,None,marshal,"['m', 'a', 'r', 's', 'h', 'a', 'l', 'return']","[4.815238186278293, 5.831479647089509, 6.098082628042903, 6.997551799708162, 7.2808450140364585, 7.580889089340417, 7.914260702535103, 8.163679447434333]",2017_Feb_08_1322,60.0073146976,famFaceFilter,001,14,
48,./img/gray_LeonardoDiCaprio2_1.png,0,24,24,47,,,1.ja,1.084,None,act,0.973,None,None,None,None,None,di kaprio,"['d', 'o', 'backspace', 'i', 'space', 'k', 'a', 'p', 'r', 'i', 'o', 'return']","[0.8167493853834458, 1.4330379368402646, 2.1329611418768764, 2.516091014540507, 2.832654346966592, 3.6323972089485324, 3.9820978561565425, 4.3819224531271175, 4.831872603766897, 5.114857547590873, 5.264992660531789, 5.814762147332658]",2017_Feb_08_1322,60.0073146976,famFaceFilter,001,14,
29,./img/gray_UrsulavonderLeyen4_1.png,0,25,25,28,,,2.nein,1.049,None,None,None,None,None,polit,0.673,None,,['return'],[0.10045544480817625],2017_Feb_08_1322,60.0073146976,famFaceFilter,001,14,
13,./img/gray_NeilPatrickHarris(Barney)2_2.png,0,26,26,12,,,1.ja,5.004,None,act,0.615,None,None,None,None,None,barni stinson,"['n', 'backspace', 'b', 'a', 'r', 'n', 'i', 'space', 's', 't', 'i', 'n', 's', 'o', 'n', 'return']","[0.8166736810762814, 1.349844677859437, 1.7996206444368, 2.366149974081054, 2.565991700754239, 2.8993787114359293, 3.1325361071048974, 3.4989561787551793, 4.082133398687802, 4.382039217396596, 4.648548851089799, 5.148360873447018, 5.548219793981843, 5.88146886884897, 6.281254651323252, 6.630897878740143]",2017_Feb_08_1322,60.0073146976,famFaceFilter,001,14,
51,./img/gray_AlysonHannigan(Lily)1_1.png,0,27,27,50,,,1.ja,2.116,None,dummy,1.156,None,None,None,None,None,lili,"['l', 'i', 'l', 'i', 'return']","[0.30057657169709273, 0.4669515415444039, 0.6334660511092807, 0.8167519516300672, 1.2333719981306785]",2017_Feb_08_1322,60.0073146976,famFaceFilter,001,14,
4,./img/gray_AngelaMerkel1_1.png,0,28,28,3,,,1.ja,1.322,None,None,None,None,None,polit,0.789,None,merkel,"['m', 'e', 'r', 'k', 'e', 'l', 'return']","[0.4667966043398337, 0.8333331194789935, 0.9833610915775353, 1.2830863106082688, 1.6330782269269548, 2.0661440717103687, 2.332711445977111]",2017_Feb_08_1322,60.0073146976,famFaceFilter,001,14,
19,./img/gray_JasonSegel(Marshall)9_1.png,0,29,29,18,,,1.ja,3.872,None,act,0.988,None,None,None,None,None,marshal,"['m', 'a', 'r', 's', 'h', 'a', 'l', 'return']","[0.35033418960483687, 0.7334849130311341, 1.0001023291260935, 2.316073179119485, 2.548972025335388, 2.816031156813551, 3.132534503200077, 3.39925873935681]",2017_Feb_08_1322,60.0073146976,famFaceFilter,001,14,
21,./img/gray_HughLaurie(DrHouse)4_1.png,0,30,30,20,,,1.ja,1.155,None,dummy,6.537,None,None,None,None,None,chyu lori,"['c', 'h', 'y', 'u', 'space', 'l', 'o', 'r', 'i', 'return']","[2.049478859251394, 3.0825956440512527, 3.4322863470497396, 3.7322579258561746, 4.0323408156564255, 4.3486949988964625, 4.498690251339212, 4.83176097199248, 5.081800107269373, 5.331695532677259]",2017_Feb_08_1322,60.0073146976,famFaceFilter,001,14,
7,./img/gray_OmarEpps(DrEricForeman)1_5.png,0,31,31,6,,,1.ja,2.032,None,None,None,music,0.572,None,None,None,,['return'],[0.11706291669543134],2017_Feb_08_1322,60.0073146976,famFaceFilter,001,14,
66,./img/gray_NeilPatrickHarris(Barney)3_7.png,0,32,32,65,,,1.ja,3.521,None,dummy,2.555,None,None,None,None,None,barni,"['b', 'a', 'r', 'n', 'i', 'return']","[0.533628109651545, 0.8668528051657631, 1.100071469998511, 1.499774170204546, 1.7329979675323557, 1.9996368759530014]",2017_Feb_08_1322,60.0073146976,famFaceFilter,001,14,
59,./img/gray_AlysonHannigan(Lily)5_4.png,0,33,33,58,,,1.ja,2.489,None,dummy,0.939,None,None,None,None,None,lili,"['l', 'i', 'l', 'i', 'return']","[0.2170173016420449, 0.4670153769566241, 0.6501286973216338, 0.8506344405832351, 1.2666838177556201]",2017_Feb_08_1322,60.0073146976,famFaceFilter,001,14,
33,./img/gray_KatjaBurkard4_1.png,0,34,34,32,,,2.nein,1.056,None,None,None,None,None,polit,0.839,None,,['return'],[0.2502344908825762],2017_Feb_08_1322,60.0073146976,famFaceFilter,001,14,
46,./img/gray_GuentherJauch3_1.png,0,35,35,45,,,2.nein,1.073,None,None,None,None,None,polit,0.572,None,,['return'],[0.2334759311634116],2017_Feb_08_1322,60.0073146976,famFaceFilter,001,14,
50,./img/gray_BastianSchweinsteiger3_1.png,0,36,36,49,,,2.nein,1.073,None,None,None,None,None,sport,0.839,None,,['return'],[0.1670684982836974],2017_Feb_08_1322,60.0073146976,famFaceFilter,001,14,
35,./img/gray_JoachimLoew4_1.png,0,37,37,34,,,2.nein,1.006,None,None,None,None,None,polit,0.639,None,,['return'],[0.31712437832538853],2017_Feb_08_1322,60.0073146976,famFaceFilter,001,14,
15,./img/gray_GeorgeClooney11_1.png,0,38,38,14,,,1.ja,1.406,None,act,0.556,None,None,None,None,None,,['return'],[0.5500767949615692],2017_Feb_08_1322,60.0073146976,famFaceFilter,001,14,
40,./img/gray_BritneySpears1_1.png,0,39,39,39,,,1.ja,2.339,None,None,None,music,0.672,None,None,None,,['return'],[0.06698387626602198],2017_Feb_08_1322,60.0073146976,famFaceFilter,001,14,
14,./img/gray_JoshRadnor(Ted)6_2.png,0,40,40,13,,,1.ja,1.106,None,dummy,3.538,None,None,None,None,None,ted mosbi,"['t', 'e', 'd', 'space', 'm', 'o', 's', 'b', 'i', 'return']","[0.9832715936918248, 1.2000014755922166, 1.6162888722374191, 1.9996888424684585, 2.6827951056529855, 2.9324823442166235, 3.315676052290655, 3.698883553945052, 3.982247981646651, 4.232117744577408]",2017_Feb_08_1322,60.0073146976,famFaceFilter,001,14,
2,./img/gray_BastianSchweinsteiger1_1.png,0,41,41,1,,,2.nein,0.999,None,None,None,None,None,sport,0.806,None,,['return'],[0.10037172097690927],2017_Feb_08_1322,60.0073146976,famFaceFilter,001,14,
41,./img/gray_RobertSeanLeonard(Wilson)1_1.png,0,42,42,40,,,1.ja,2.072,None,act,0.406,None,None,None,None,None,,['return'],[0.10039481720559706],2017_Feb_08_1322,60.0073146976,famFaceFilter,001,14,
68,./img/gray_Ice-T(OdafinFinTutuola)7_1.png,0,43,43,67,,,2.nein,0.922,None,None,None,music,0.689,None,None,None,,['return'],[0.10043266936008877],2017_Feb_08_1322,60.0073146976,famFaceFilter,001,14,
9,./img/gray_RobertSeanLeonard(Wilson)8_1.png,0,44,44,8,,,1.ja,1.323,None,dummy,0.456,None,None,None,None,None,,['return'],[0.2004813639105123],2017_Feb_08_1322,60.0073146976,famFaceFilter,001,14,
65,./img/gray_KatjaBurkard5_3.png,0,45,45,64,,,2.nein,0.873,None,None,None,None,None,polit,0.722,None,,['return'],[0.08346624357727706],2017_Feb_08_1322,60.0073146976,famFaceFilter,001,14,
69,./img/gray_OmarEpps(DrEricForeman)3_1.png,0,46,46,68,,,2.nein,1.106,None,None,None,music,0.606,None,None,None,,['return'],[0.1006074949818867],2017_Feb_08_1322,60.0073146976,famFaceFilter,001,14,
30,./img/gray_BarackObama4_1.png,0,47,47,29,,,1.ja,1.039,None,None,None,None,None,polit,0.49,None,obama,"['o', 'b', 'a', 'm', 'a', 'return']","[0.5334811919710774, 1.0998927950040525, 1.4165510785951483, 1.7829685839969898, 2.1161692209389003, 2.482515833748039]",2017_Feb_08_1322,60.0073146976,famFaceFilter,001,14,
58,./img/gray_GeorgeClooney3_1.png,0,48,48,57,,,1.ja,1.09,None,act,2.306,None,None,None,None,None,,['return'],[0.48364402038714616],2017_Feb_08_1322,60.0073146976,famFaceFilter,001,14,
43,./img/gray_LisaEdelstein(DrLisaCuddy)6_3.png,0,49,49,42,,,1.ja,1.372,None,dummy,0.406,None,None,None,None,None,,['return'],[0.08369945133563306],2017_Feb_08_1322,60.0073146976,famFaceFilter,001,14,
22,./img/gray_GuentherJauch4_1.png,0,50,50,21,,,2.nein,0.889,None,None,None,None,None,polit,1.156,None,,['return'],[0.10031141415674938],2017_Feb_08_1322,60.0073146976,famFaceFilter,001,14,
27,./img/gray_LeonardoDiCaprio1_1.png,0,51,51,26,,,1.ja,1.256,None,act,1.271,None,None,None,None,None,leonardo,"['l', 'e', 'o', 'n', 'a', 'r', 'd', 'o', 'return']","[0.6002956958891446, 1.0001087447453756, 1.333191655076007, 1.8664559991175338, 2.383015033077754, 2.6328190359108703, 2.832695406928906, 3.2991943265387818, 3.8490959750961338]",2017_Feb_08_1322,60.0073146976,famFaceFilter,001,14,
45,./img/gray_NicoleKidman7_1.png,0,52,52,44,,,2.nein,0.99,None,None,None,music,0.989,None,None,None,,['return'],[0.150408739100385],2017_Feb_08_1322,60.0073146976,famFaceFilter,001,14,
63,./img/gray_JoshRadnor(Ted)3_1.png,0,53,53,62,,,1.ja,1.305,None,act,1.389,None,None,None,None,None,mosbi,"['m', 'o', 's', 'b', 'i', 'return']","[0.6335542658744089, 0.866460490051395, 2.033002586778821, 2.3162252292950143, 2.6326955352433288, 2.898955280568771]",2017_Feb_08_1322,60.0073146976,famFaceFilter,001,14,
23,./img/gray_TomCruise4_1.png,0,54,54,22,,,1.ja,5.371,None,act,0.417,None,None,None,None,None,,['return'],[6.131422676391594],2017_Feb_08_1322,60.0073146976,famFaceFilter,001,14,
67,./img/gray_AngelaMerkel4_1.png,0,55,55,66,,,1.ja,1.634,None,None,None,None,None,polit,0.922,None,merkel,"['m', 'e', 'r', 'k', 'e', 'l', 'return']","[0.5002867781786335, 0.9004125884712266, 1.0335668404859462, 1.333545797255283, 1.650127734978014, 1.9664517648070614, 2.2160350703397853]",2017_Feb_08_1322,60.0073146976,famFaceFilter,001,14,
28,./img/gray_GeorgeClooney4_2.png,0,56,56,27,,,1.ja,1.156,None,None,None,host,0.856,None,None,None,,['return'],[0.08354355178926198],2017_Feb_08_1322,60.0073146976,famFaceFilter,001,14,
71,./img/gray_BritneySpears7_1.png,0,57,57,70,,,1.ja,2.439,None,None,None,music,2.222,None,None,None,spirs,"['s', 'p', 'i', 'r', 's', 'return']","[0.4503225773351005, 1.0001597489190317, 1.5158565236579307, 1.9998287029666244, 2.3495867699675728, 2.9159313297786866]",2017_Feb_08_1322,60.0073146976,famFaceFilter,001,14,
38,./img/gray_MariskaHargitay(Liv)4_4.png,0,58,58,37,,,2.nein,1.323,None,None,None,music,1.039,None,None,None,,['return'],[0.117045594523006],2017_Feb_08_1322,60.0073146976,famFaceFilter,001,14,
70,./img/gray_WillSmith5_1.png,0,59,59,69,,,2.nein,1.007,None,act,3.005,None,None,None,None,None,comedien,"['v', 'backspace', 'c', 'o', 'm', 'e', 'd', 'i', 'e', 'm', 'backspace', 'n', 'return']","[1.316704155267871, 1.8332506787719467, 2.299661062836094, 2.649659073995281, 2.899652016812979, 3.4160477732657455, 3.5823101489950204, 3.8324923525815393, 4.165642947693414, 4.46546664647758, 4.981713560564458, 5.4486551579011575, 5.731644592658995]",2017_Feb_08_1322,60.0073146976,famFaceFilter,001,14,
6,./img/gray_NicoleKidman3_1.png,0,60,60,5,,,2.nein,1.216,None,None,None,None,None,sport,0.573,None,,['return'],[0.1838710049942165],2017_Feb_08_1322,60.0073146976,famFaceFilter,001,14,
47,./img/gray_HughLaurie(DrHouse)5_3.png,0,61,61,46,,,1.ja,1.088,None,dummy,0.756,None,None,None,None,None,chyu lori,"['c', 'h', 'y', 'u', 'space', 'l', 'o', 'r', 'i', 'return']","[1.8829483106401312, 2.066083764890209, 2.449513246971037, 2.765857806782151, 3.115868969960502, 3.449066078312171, 3.6156213270587614, 4.815118214199174, 5.064989260254151, 5.348334441097904]",2017_Feb_08_1322,60.0073146976,famFaceFilter,001,14,
26,./img/gray_BarackObama1_3.png,0,62,62,25,,,1.ja,0.967,None,None,None,None,None,polit,0.621,None,obama,"['o', 'b', 'a', 'm', 'a', 'return']","[0.4832812171189289, 1.1832368210343702, 1.6164152599340014, 1.9329295128736703, 2.2996020391401544, 2.7159301749670703]",2017_Feb_08_1322,60.0073146976,famFaceFilter,001,14,
54,./img/gray_LeonardoDiCaprio3_1.png,0,63,63,53,,,1.ja,2.022,None,act,1.472,None,None,None,None,None,leonardo,"['l', 'e', 'o', 'n', 'a', 'r', 'd', 'o', 'return']","[0.8000229037606914, 1.5999290432519047, 1.9161600466031814, 2.499545132599451, 2.932603599419963, 3.148954318225151, 3.349226532949615, 3.6488487812894164, 3.9154305906995432]",2017_Feb_08_1322,60.0073146976,famFaceFilter,001,14,
56,./img/gray_GuentherJauch2_1.png,0,64,64,55,,,2.nein,1.007,None,None,None,None,None,polit,0.672,None,,['return'],[0.16674354717179085],2017_Feb_08_1322,60.0073146976,famFaceFilter,001,14,
24,./img/gray_JoachimLoew1_1.png,0,65,65,23,,,2.nein,1.089,None,None,None,None,None,polit,0.906,None,,['return'],[0.0834341654808668],2017_Feb_08_1322,60.0073146976,famFaceFilter,001,14,
25,./img/gray_MariskaHargitay(Liv)8_8.png,0,66,66,24,,,2.nein,1.323,None,None,None,music,0.606,None,None,None,,['return'],[0.13379741784228827],2017_Feb_08_1322,60.0073146976,famFaceFilter,001,14,
3,./img/gray_KatjaBurkard1_1.png,0,67,67,2,,,2.nein,0.938,None,None,None,None,None,polit,0.623,None,,['return'],[0.08355670380842639],2017_Feb_08_1322,60.0073146976,famFaceFilter,001,14,
44,./img/gray_BritneySpears5_1.png,0,68,68,43,,,1.ja,1.289,None,dummy,0.689,None,None,None,None,None,spirs,"['s', 'p', 'i', 'r', 's', 'return']","[1.0000150767045852, 1.5662441553704411, 1.7662950312314933, 2.382707404138273, 2.6159658458091144, 2.949400973633601]",2017_Feb_08_1322,60.0073146976,famFaceFilter,001,14,
62,./img/gray_LisaEdelstein(DrLisaCuddy)1_1.png,0,69,69,61,,,1.ja,1.122,None,dummy,0.44,None,None,None,None,None,,['return'],[0.9163855556180351],2017_Feb_08_1322,60.0073146976,famFaceFilter,001,14,
42,./img/gray_NicoleKidman5_1.png,0,70,70,41,,,2.nein,1.156,None,None,None,None,None,sport,0.673,None,,['return'],[0.08382712216007349],2017_Feb_08_1322,60.0073146976,famFaceFilter,001,14,
32,./img/gray_MariskaHargitay(Liv)6_5.png,0,71,71,31,,,2.nein,1.089,None,None,None,None,None,polit,0.589,None,,['return'],[0.10013979634277348],2017_Feb_08_1322,60.0073146976,famFaceFilter,001,14,
