num,pic,trials.thisRepN,trials.thisTrialN,trials.thisN,trials.thisIndex,key_resp_2.keys,key_resp_2.rt,ratingBekannt.response,ratingBekannt.rt,key_resp_5.keys,ratingK1.response,ratingK1.rt,ratingK2.response,ratingK2.rt,ratingK3.response,ratingK3.rt,key_resp_6.keys,inputText,key_resp_4.keys,key_resp_4.rt,date,frameRate,expName,session,participant,
,,,,,,space,36.6661940494,,,,,,,,,,,,,,2017_Feb_08_1512,60.0299630656,famFaceFilter,001,15,
49,./img/smoo15_TomCruise5_1.png,0,0,0,48,,,1.ja,5.694,None,act,1.302,None,None,None,None,None,Tom Cruise,"['lshift', 't', 'o', 'm', 'space', 'lshift', 'c', 'r', 'u', 'i', 's', 'e', 'return']","[0.9497477378499752, 1.3331130637379829, 1.4663099796234746, 1.6826087319132057, 1.8993552944230032, 1.9229747173267242, 2.0661174468914396, 2.332667819766357, 2.682426528328506, 2.915627550206409, 3.0656359546701424, 3.2156215836803312, 3.3823378644701734]",2017_Feb_08_1512,60.0299630656,famFaceFilter,001,15,
50,./img/smoo15_OmarEpps(DrEricForeman)2_2.png,0,1,1,49,,,2.nein,4.122,None,None,None,music,0.603,None,None,None,,['return'],[0.9501217684519361],2017_Feb_08_1512,60.0299630656,famFaceFilter,001,15,
66,./img/smoo15_NicoleKidman3_1.png,0,2,2,65,,,1.ja,2.107,None,act,1.191,None,None,None,None,None,Nicole Kidman ,"['lshift', 'n', 'i', 'c', 'o', 'l', 'e', 'space', 'lshift', 'k', 'i', 'd', 'm', 'a', 'n', 'space', 'return']","[1.1832448405584728, 1.35000570990087, 1.5331822241132613, 1.6165140604716726, 1.7665269558638101, 1.9663173575863766, 2.0663503338691953, 2.232989948006434, 2.449605311107007, 2.4662724482514022, 2.7660278206894873, 3.0656994692981243, 3.349076086677087, 3.499110795175511, 3.5822912229195936, 3.7655607636115747, 4.015570707822917]",2017_Feb_08_1512,60.0299630656,famFaceFilter,001,15,
37,./img/smoo15_Ice-T(OdafinFinTutuola)5_1.png,0,3,3,36,,,1.ja,2.966,None,act,0.658,None,None,None,None,None,,['return'],[0.7501363319097436],2017_Feb_08_1512,60.0299630656,famFaceFilter,001,15,
34,./img/smoo15_EmilyDeschanel5_1.png,0,4,4,33,,,2.nein,1.958,None,act,0.791,None,None,None,None,None,,['return'],[0.6001968953532923],2017_Feb_08_1512,60.0299630656,famFaceFilter,001,15,
62,./img/smoo15_RobertSeanLeonard(Wilson)1_1.png,0,5,5,61,,,2.nein,25.898,None,None,None,music,1.168,None,None,None,,['return'],[0.9665996448311489],2017_Feb_08_1512,60.0299630656,famFaceFilter,001,15,
17,./img/smoo15_GeorgeClooney11_1.png,0,6,6,16,,,1.ja,2.557,None,act,0.958,None,None,None,None,None,George Clooney,"['lshift', 'g', 'e', 'o', 'r', 'g', 'e', 'space', 'lshift', 'c', 'l', 'o', 'o', 'n', 'e', 'y', 'return']","[0.8998999804935011, 1.050013921892969, 1.2333081627184583, 1.799696990303346, 1.8330598141001246, 2.1662036728121166, 2.3662458875878656, 2.5327138839129475, 2.6660394329592236, 2.9156714971977635, 3.082569340011105, 3.298996404686477, 3.448920443752286, 3.6489780560150393, 3.731944843635574, 4.098797007241956, 4.265259871070157]",2017_Feb_08_1512,60.0299630656,famFaceFilter,001,15,
6,./img/smoo15_AlysonHannigan(Lily)1_1.png,0,7,7,5,,,1.ja,14.946,None,act,1.319,None,None,None,None,None,Lilly aus How I met your Mother,"['lshift', 'l', 'i', 'l', 'l', 'y', 'space', 'a', 'u', 's', 'space', 'lshift', 'h', 'o', 'w', 'space', 'lshift', 'i', 'space', 'e', 'backspace', 'm', 'e', 't', 'space', 'y', 'o', 'u', 'r', 'space', 'm', 'backspace', 'lshift', 'm', 'o', 't', 'h', 'e', 'r', 'return']","[1.0166357006128237, 1.1832964862951485, 1.3832498447409307, 1.6163709921638656, 1.7664220604929142, 2.2661253381047572, 2.4324932507697667, 2.6160928750687162, 2.766067597531219, 2.8825649773898476, 3.0827566760926857, 3.249098926280567, 3.7489776710790466, 4.032568890917901, 4.1154115363096935, 4.348817858004622, 4.715204568434274, 4.898357344856777, 5.1650831849183305, 5.31489206362312, 5.6648573551210575, 5.948197403471568, 6.048195093848335, 6.2980270046246005, 6.514440596500208, 6.781199797780573, 6.864144130733621, 7.263961991306132, 7.380876386414457, 7.580771683511557, 7.8472989601577865, 8.230596280482132, 8.43044923448906, 8.597058695217129, 8.846889964432194, 8.94694186679044, 9.146764025826997, 9.26337239590066, 9.41339363159932, 9.563182621885062]",2017_Feb_08_1512,60.0299630656,famFaceFilter,001,15,
16,./img/smoo15_WillSmith4_1.png,0,8,8,15,,,1.ja,2.269,None,act,0.658,None,None,None,None,None,Will Smith,"['lshift', 'w', 'i', 'l', 'l', 'space', 'lshift', 's', 'm', 'i', 't', 'h', 'return']","[1.7829053901441512, 1.9329477973878966, 2.116186863888288, 2.3494199638662394, 2.4994979777948174, 2.7325771029099997, 2.8659405041107675, 2.882610849068442, 3.015912981107249, 3.1990696069005935, 3.59886950373766, 3.748997238715674, 4.06543931593842]",2017_Feb_08_1512,60.0299630656,famFaceFilter,001,15,
52,./img/smoo15_BastianSchweinsteiger3_1.png,0,9,9,51,,,1.ja,10.631,None,None,None,None,None,sport,1.801,None,Bastian Schweinsteiger,"['lshift', 'b', 'a', 's', 't', 'i', 'a', 'n', 'space', 'lshift', 's', 'c', 'h', 'w', 'e', 'i', 'n', 's', 't', 'e', 'i', 'g', 'e', 'r', 'return']","[1.832976411053096, 1.9997828312916681, 2.1995892720588017, 2.6160155668585503, 2.9993433613744855, 3.0660019657443627, 3.349078011364327, 3.482512946720817, 3.6823412005942373, 4.365327491697826, 4.965303048189526, 5.398357344856777, 5.665038917148195, 5.814868325833231, 5.998155509478238, 6.08145655086264, 6.298016739634477, 6.481185234322766, 6.747592859672295, 6.981112417044642, 7.09727907173874, 8.063937740265828, 8.263856454370398, 8.696805855663115, 8.830252339135768]",2017_Feb_08_1512,60.0299630656,famFaceFilter,001,15,
53,./img/smoo15_GuentherJauch4_1.png,0,10,10,52,,,1.ja,3.935,None,None,None,host,3.939,None,None,None,Günter Jauch,"['lshift', 'g', u'\xfc', 'n', 't', 'e', 'r', 'space', 'lshift', 'j', 'a', 'c', 'backspace', 'i', 'c', 'backspace', 'backspace', 'u', 'c', 'h', 'return']","[0.8835305280808825, 1.0501335731896688, 1.499941617865261, 1.7331262799161777, 1.8665352320131205, 2.032998416623741, 2.1995039443208952, 2.2830179842640064, 2.532863688622456, 2.6661719154981256, 2.899344708654098, 3.4158697398343065, 3.9154411764684482, 4.165373812469625, 4.282127817095898, 4.848571177444683, 5.01523902030749, 5.29848443827359, 5.498350865080283, 5.648126382566261, 5.981583323497034]",2017_Feb_08_1512,60.0299630656,famFaceFilter,001,15,
68,./img/smoo15_AlysonHannigan(Lily)8_3.png,0,11,11,67,,,1.ja,6.25,None,dummy,0.818,None,None,None,None,None,Lilly aus How I met your Mother,"['lshift', 'l', 'i', 'l', 'l', 'y', 'space', 'a', 'u', 's', 'space', 'lshift', 'h', 'o', 'w', 'space', 'lshift', 'i', 'space', 'm', 'e', 't', 'space', 'y', 'o', 'u', 'r', 'lshift', 'space', 'lshift', 'm', 'o', 't', 'h', 'e', 'r', 'return']","[3.2658003869910317, 3.382342996967054, 3.6157307133653376, 3.8155955362708482, 3.9821222355094505, 4.2821011922787875, 4.5153740690948325, 4.648745810602122, 4.748594017051801, 4.898533132825833, 5.048554047742073, 5.248424003140826, 5.365168063563033, 5.631742174227838, 5.698239425775682, 5.898181556891359, 6.064696387238655, 6.164734816797136, 6.447866678299761, 6.681131214812922, 6.764489675984805, 7.164192376192659, 7.314349943801062, 7.597544999152888, 7.714086326006509, 7.963980147509574, 8.080616104743967, 8.596932307518728, 9.146817275468493, 9.34672797004896, 9.713307149053435, 10.246375495928078, 10.379612509430444, 10.54628195620171, 10.679521215170098, 10.829271711740148, 11.01275713801806]",2017_Feb_08_1512,60.0299630656,famFaceFilter,001,15,
26,./img/smoo15_TomCruise4_1.png,0,12,12,25,,,1.ja,1.769,None,act,0.741,None,None,None,None,None,Tom Cruise,"['lshift', 't', 'o', 'm', 'space', 'lshift', 'c', 'r', 'i', 'u', 'backspace', 'backspace', 'u', 'i', 's', 'e', 'return']","[0.5003332914202474, 1.183259917266696, 1.3001014950968965, 1.4831811334624945, 1.6831162073940504, 1.733060840600956, 2.0496552887816506, 2.316128674225183, 2.516142981057783, 2.7826779564456956, 3.065764908616984, 3.2158794915776525, 3.465634094140114, 3.6656647607997, 3.782216352643445, 3.932276082057797, 4.098820424253063]",2017_Feb_08_1512,60.0299630656,famFaceFilter,001,15,
30,./img/smoo15_KatjaBurkard4_1.png,0,13,13,29,,,1.ja,2.582,None,None,None,host,0.79,None,None,None,RTL ,"['lshift', 'r', 't', 'l', 'backspace', 'lshift', 'backspace', 't', 'l', 'backspace', 'lshift', 'l', 'space', 'return']","[3.3990236069112143, 3.848814329412562, 4.098734454953956, 4.282070076525997, 4.731742430853046, 4.848375821838999, 4.915033143086475, 5.148225503882713, 6.647714820592228, 7.297453448267333, 7.4307799596572295, 7.814071826705913, 8.09727875095632, 9.19672469807847]",2017_Feb_08_1512,60.0299630656,famFaceFilter,001,15,
44,./img/smoo15_GuentherJauch2_1.png,0,14,14,43,,,1.ja,1.886,None,None,None,host,1.107,None,None,None,Günter Jauch,"['lshift', 'g', u'\xfc', 'n', 't', 'e', 'r', 'space', 'lshift', 'j', 'a', 'u', 'c', 'h', 'return']","[0.8332927010778803, 0.9498940139674232, 1.3163612404205196, 2.082545922999998, 2.4160878708862583, 2.5992852358613163, 2.749347210745327, 2.8326123246588395, 3.032451485087222, 3.4324258867636672, 3.5990058356437657, 3.748759540023457, 3.915551204339863, 4.015617541841493, 4.281947217416018]",2017_Feb_08_1512,60.0299630656,famFaceFilter,001,15,
12,./img/smoo15_MariskaHargitay(Liv)8_8.png,0,15,15,11,,,2.nein,3.352,None,act,0.891,None,None,None,None,None,,['return'],[0.8500291269083391],2017_Feb_08_1512,60.0299630656,famFaceFilter,001,15,
7,./img/smoo15_LisaEdelstein(DrLisaCuddy)2_2.png,0,16,16,6,,,2.nein,2.29,None,None,None,host,0.807,None,None,None,,['return'],[0.6834584806783823],2017_Feb_08_1512,60.0299630656,famFaceFilter,001,15,
21,./img/smoo15_NeilPatrickHarris(Barney)3_7.png,0,17,17,20,,,1.ja,2.824,None,act,1.641,None,None,None,None,None,Der Blonde aus How I met your Mother,"['lshift', 'd', 'e', 'r', 'space', 'lshift', 'b', 'l', 'o', 'n', 'd', 'e', 'space', 'a', 'u', 's', 'space', 'lshift', 'h', 'o', 'w', 'space', 'lshift', 'i', 'space', 'm', 'e', 't', 'space', 'y', 'o', 'u', 'r', 'space', 'lshift', 'm', 'o', 't', 'h', 'e', 'r', 'return']","[6.780982308289822, 6.981034146490856, 7.180797923392674, 7.330984682066628, 7.430692065674521, 7.68065742132967, 8.047331872283394, 8.330490358606767, 8.547117911381065, 8.763662061108334, 8.863566404223093, 9.01358828148659, 9.113955511529639, 9.280223340534576, 9.363020755812613, 9.496728675763734, 9.613550685957307, 9.72994220810142, 9.86303904032684, 10.112554019513482, 10.196411936645745, 10.39612855874293, 10.529586590328108, 10.796097186364932, 11.046145945070748, 11.262681112930295, 11.395965602016076, 11.595818876805424, 11.845756966078625, 12.245644436119619, 12.378837823409413, 12.612161383618513, 12.761695032259013, 12.945298185150023, 13.128456414848188, 13.211805573377205, 13.478494202845468, 13.928228147116897, 13.99482034983157, 14.1781797091935, 14.328122674338374, 14.444601448903995]",2017_Feb_08_1512,60.0299630656,famFaceFilter,001,15,
45,./img/smoo15_RobertSeanLeonard(Wilson)2_6.png,0,18,18,44,,,2.nein,2.769,None,None,None,music,2.106,None,None,None,,['return'],[1.183287504427426],2017_Feb_08_1512,60.0299630656,famFaceFilter,001,15,
33,./img/smoo15_Ice-T(OdafinFinTutuola)7_1.png,0,19,19,32,,,1.ja,2.241,None,act,0.574,None,None,None,None,None,,['return'],[0.7667989781220967],2017_Feb_08_1512,60.0299630656,famFaceFilter,001,15,
5,./img/smoo15_BarackObama1_3.png,0,20,20,4,,,1.ja,1.991,None,None,None,None,None,polit,0.891,None,Barack Obama,"['lshift', 'b', 'e', 'backspace', 'a', 'r', 'a', 'c', 'k', 'space', 'lshift', 'o', 'b', 'a', 'n', 'backspace', 'm', 'a', 'return']","[0.9334042686969042, 1.050082889800251, 1.3166101664464804, 1.6663124175611301, 1.7663935109885642, 1.9828378978345427, 2.2327583441547176, 2.449368253979628, 2.732647353943321, 3.1819735856151965, 3.3491139388315787, 3.432368466976186, 3.732290003954404, 3.94887713832577, 4.165398191824352, 4.6151603648177115, 4.848532362950209, 4.96519269953933, 5.248192720071529]",2017_Feb_08_1512,60.0299630656,famFaceFilter,001,15,
48,./img/smoo15_JoshRadnor(Ted)6_2.png,0,21,21,47,,,2.nein,2.234,None,None,None,music,0.574,None,None,None,,['return'],[1.416505206914735],2017_Feb_08_1512,60.0299630656,famFaceFilter,001,15,
71,./img/smoo15_AngelaMerkel1_1.png,0,22,22,70,,,1.ja,1.54,None,None,None,None,None,polit,0.955,None,Angela Merkel,"['lshift', 'a', 'n', 'g', 'e', 'l', 'a', 'space', 'lshift', 'm', 'e', 'r', 'k', 'e', 'l', 'return']","[0.7168476085134898, 0.8166598874959163, 1.0832981543535425, 1.2498428173275897, 1.4498628982182709, 1.5331164640192583, 1.7330858615132456, 1.8664107690019591, 1.9828812032610585, 2.1329877666976245, 2.3491995873482665, 2.499271827218763, 2.649368767226406, 2.7658905264397617, 2.949280039210862, 3.2491736682459305]",2017_Feb_08_1512,60.0299630656,famFaceFilter,001,15,
13,./img/smoo15_GeorgeClooney3_1.png,0,23,23,12,,,1.ja,1.657,None,act,1.091,None,None,None,None,None,George Clooney,"['lshift', 'g', 'e', 'o', 'r', 'g', 'e', 'space', 'lshift', 'c', 'l', 'o', 'o', 'e', 'n', 'backspace', 'backspace', 'n', 'e', 'y', 'return']","[0.7500096234289231, 0.9334456494398182, 1.1000717907809303, 1.2665818094101269, 1.4165834774721588, 1.616425524927763, 1.8163506546516146, 1.9329975184409705, 2.132869719305745, 2.349309294437262, 2.5492616905430623, 2.7160546379818697, 2.9159929197230667, 3.1159571847238112, 3.299148134083225, 3.7488631522755895, 3.899317121493368, 4.148901389366074, 4.2486934591470344, 4.481806587045867, 4.648591194178152]",2017_Feb_08_1512,60.0299630656,famFaceFilter,001,15,
36,./img/smoo15_BastianSchweinsteiger6_2.png,0,24,24,35,,,1.ja,1.568,None,None,None,None,None,sport,1.24,None,Bastian Schweinsteiger,"['lshift', 'b', 'a', 's', 't', 'i', 'o', 'backspace', 'a', 'n', 'space', 'lshift', 's', 'c', 'h', 'w', 'e', 'i', 'n', 's', 'e', 'backspace', 't', 'e', 'i', 'g', 'e', 'r', 'return']","[0.4335139757858997, 0.866708453733736, 1.0001100278714148, 1.433196402635076, 1.6663072850642493, 1.7996331548929447, 1.9829896272276528, 2.3326283637106826, 2.4160041470568103, 2.5825901907774096, 2.798852053256269, 2.882373471158644, 3.0157590062481177, 3.232291287076805, 3.3488849012246646, 3.498910307076585, 3.632246441899042, 3.7154143591833417, 3.9320922745682765, 4.248407001752639, 4.415211818086391, 4.7317469217850885, 4.815120780447614, 5.015005491772172, 5.1317517976567615, 5.264852158470603, 5.448149607109372, 5.614588091586484, 5.748037141303939]",2017_Feb_08_1512,60.0299630656,famFaceFilter,001,15,
58,./img/smoo15_EmilyDeschanel3_1.png,0,25,25,57,,,2.nein,1.619,None,act,1.04,None,None,None,None,None,,['return'],[0.683424157115951],2017_Feb_08_1512,60.0299630656,famFaceFilter,001,15,
10,./img/smoo15_KatjaBurkard5_3.png,0,26,26,9,,,1.ja,1.574,None,None,None,host,1.357,None,None,None,RTl,"['less', 'lshift', 'r', 't', 'l', 'backspace', 'backspace', 'lshift', 't', 'l', 'return']","[1.2332962938235141, 1.5829058392373554, 1.9831006174390495, 2.216179742554232, 2.6159533353529696, 3.06547139403483, 3.215874679859553, 3.2834847205594997, 3.6323455632118566, 4.448686594434548, 4.715193982661731]",2017_Feb_08_1512,60.0299630656,famFaceFilter,001,15,
20,./img/smoo15_NicoleKidman5_1.png,0,27,27,19,,,2.nein,3.119,None,act,1.074,None,None,None,None,None,,['return'],[0.5836105950111232],2017_Feb_08_1512,60.0299630656,famFaceFilter,001,15,
41,./img/smoo15_AngelaMerkel3_1.png,0,28,28,40,,,1.ja,1.124,None,None,None,None,None,polit,0.791,None,Angela Merkel,"['lshift', 'a', 'n', 'g', 'e', 'l', 'a', 'space', 'lshift', 'm', 'e', 'r', 'k', 'e', 'l', 'return']","[0.8502687502877961, 1.11659714273992, 1.4168218177219387, 1.5999267977822456, 1.7830831027968088, 1.8832270692910242, 2.0831496327700734, 2.233047047018772, 2.3664588861465745, 2.4661665905332484, 2.682895189311239, 2.8161225793846825, 2.9659949727210915, 3.3992497574872687, 3.4658615278385696, 3.7825031308202597]",2017_Feb_08_1512,60.0299630656,famFaceFilter,001,15,
65,./img/smoo15_UrsulavonderLeyen4_1.png,0,29,29,64,,,1.ja,1.923,None,None,None,None,None,polit,1.423,None,Ursula von der Leyen,"['lshift', 'u', 'r', 's', 'u', 'a', 'l', 'backspace', 'backspace', 'l', 'a', 'space', 'v', 'o', 'n', 'space', 'd', 'e', 'r', 'space', 'lshift', 'l', 'e', 'y', 'e', 'n', 'return']","[0.6834636131752632, 1.1997320195878274, 1.4498901646002196, 1.7164944286778336, 1.8496175649379438, 2.0162498011159187, 2.182895189311239, 2.4994367086328566, 2.6494030907888373, 2.8491902847017627, 2.9993138495265157, 3.1491795064612234, 3.499040864928247, 3.598907355892152, 3.848858597186336, 4.0320418478004285, 4.115522205742309, 4.265463246199943, 4.398717902658973, 4.44857239641351, 4.6651880802928645, 4.731821984532871, 4.948460764640913, 5.165098261622916, 5.33167179488737, 5.431553041773441, 5.714771193357592]",2017_Feb_08_1512,60.0299630656,famFaceFilter,001,15,
24,./img/smoo15_BastianSchweinsteiger1_1.png,0,30,30,23,,,1.ja,1.818,None,None,None,None,None,sport,1.055,None,Bastian Schweinsteiger,"['lshift', 'b', 'a', 's', 't', 'i', 'o', 'backspace', 'a', 'n', 'space', 'lshift', 's', 'c', 'h', 'w', 'e', 'i', 'n', 's', 't', 'e', 'i', 'g', 'e', 'r', 'return']","[0.5670207660732558, 1.0502044657841907, 1.1835293732692662, 1.333434486259648, 1.566736874923663, 1.7831315407238435, 1.999969205025991, 2.2663906239540665, 2.3497676904262335, 2.516296955916914, 2.71617140224771, 2.9328820372902555, 3.049440686314483, 3.282703939701605, 3.3659658458091144, 3.482560422300594, 3.8492005496882484, 3.9824234488296497, 4.215549407963408, 5.4483000533764425, 5.681682958060264, 5.914930813960382, 6.048411620995466, 6.181546305371739, 6.36472057411811, 6.51477998275368, 6.598091289128206]",2017_Feb_08_1512,60.0299630656,famFaceFilter,001,15,
72,./img/smoo15_HughLaurie(DrHouse)2_1.png,0,31,31,71,,,1.ja,8.283,None,act,0.803,None,None,None,None,None,,['return'],[0.7501915062348417],2017_Feb_08_1512,60.0299630656,famFaceFilter,001,15,
46,./img/smoo15_NeilPatrickHarris(Barney)1_1.png,0,32,32,45,,,1.ja,2.389,None,act,1.174,None,None,None,None,None,Der Blonde aus How I met your Mother,"['lshift', 'd', 'e', 'r', 'space', 'lshift', 'b', 'l', 'o', 'n', 'd', 'e', 'space', 'a', 'u', 's', 'space', 'lshift', 'h', 'o', 'w', 'space', 'lshift', 'i', 'space', 'm', 'e', 't', 'space', 'y', 'o', 'u', 'r', 'space', 'lshift', 'm', 'o', 't', 'e', 'r', 'backspace', 'backspace', 'h', 'e', 'r', 'return']","[0.7000903319167264, 0.8831584221661615, 1.066711533228954, 1.2166333268323797, 1.283229699696676, 1.4664232153008925, 1.7328674096788745, 2.766081711892184, 2.915896685433836, 3.1158304762429907, 3.215873717515933, 3.3490183461035485, 3.4990899444128445, 3.7157203842180024, 4.515296760881029, 4.631872411297081, 4.7985527646160335, 4.8983040952189185, 4.9816461965638155, 5.231613476906205, 5.314593095765304, 5.5314917084542685, 5.648174178928457, 5.764645254748757, 6.014638518350694, 6.314418911704706, 6.414669698260695, 6.781037803393701, 6.931045887075015, 7.280768988948694, 7.580737680727907, 7.8139505715007544, 7.930589736548427, 8.113907715167443, 8.263740973223321, 8.363879807224293, 8.580295644562284, 8.68032412991306, 8.930237198273971, 9.096811373095989, 9.346360034283862, 9.479916866406711, 9.87975397383343, 9.996437727433658, 10.146143635447515, 10.229704509409203]",2017_Feb_08_1512,60.0299630656,famFaceFilter,001,15,
11,./img/smoo15_LeonardoDiCaprio3_1.png,0,33,33,10,,,1.ja,2.136,None,act,1.191,None,None,None,None,None,Leonardo Di Caprio,"['lshift', 'l', 'e', 'o', 'n', 'a', 'r', 'd', 'o', 'space', 'd', 'backspace', 'lshift', 'd', 'i', 'space', 'lshift', 'c', 'a', 'p', 'r', 'i', 'o', 'return']","[0.2836194485644228, 0.8002750375962933, 0.9333195825238363, 1.0501184964887216, 1.8329857136995997, 1.9496620893369254, 2.1825975045831, 2.4494256737707474, 2.516170568218513, 2.8326838588182, 3.015892771909421, 3.3157100550743053, 3.3655793047546467, 3.5157092851986818, 3.6323769997507043, 3.8654266130179167, 3.9322266817907803, 4.115334548881947, 4.332849702572275, 4.848526909674547, 5.065083569857961, 5.215128222567728, 5.747869052080205, 5.981385401646548]",2017_Feb_08_1512,60.0299630656,famFaceFilter,001,15,
60,./img/smoo15_LeonardoDiCaprio2_1.png,0,34,34,59,,,1.ja,1.718,None,dummy,0.407,None,None,None,None,None,Leonardo Di Caprio,"['lshift', 'lshift', 'l', 'e', 'o', 'n', 'a', 'r', 'd', 'o', 'space', 'lshift', 'd', 'i', 'space', 'lshift', 'c', 'a', 'p', 'r', 'i', 'o', 'return']","[0.6167501552590693, 1.0499234616654576, 1.1664317480790487, 1.3832748656568583, 1.866379974031588, 2.3161565821683325, 2.7993447728113097, 3.332513203346025, 3.5990302150021307, 3.7154425879089104, 3.998843584638962, 4.065404671597207, 4.248733556767547, 4.398454862272047, 4.648665294582315, 4.78183686876946, 4.948308393682964, 5.181500754479202, 5.26496571493044, 5.4649392825813266, 5.59860004773509, 5.881494852106698, 6.214590914456494]",2017_Feb_08_1512,60.0299630656,famFaceFilter,001,15,
9,./img/smoo15_EmilyDeschanel6_12.png,0,35,35,8,,,1.ja,2.969,None,act,0.64,None,None,None,None,None,Nicole Kidman,"['lshift', 'm', 'backspace', 'lshift', 'n', 'i', 'c', 'o', 'l', 'e', 'space', 'lshift', 'k', 'i', 'd', 'm', 'a', 'n', 'return']","[0.716912406267511, 0.966606060450431, 1.5498355676791107, 1.7162249726679875, 1.91639806607418, 2.1497572329681134, 2.2329989298741566, 2.3996789624143275, 2.582790037311497, 2.6827752172321198, 2.8493859610825893, 3.1326262465518084, 3.2660162725769624, 3.4826111056936497, 3.515378880805656, 3.882317334489926, 4.14888502953545, 4.265512967249379, 4.548477060310688]",2017_Feb_08_1512,60.0299630656,famFaceFilter,001,15,
43,./img/smoo15_JoachimLoew1_1.png,0,36,36,42,,,1.ja,1.653,None,None,None,None,None,sport,1.44,None,Jürgen Löw,"['lshift', 'j', u'\xfc', 'r', 'g', 'e', 'n', 'space', 'lshift', 'l', u'\xf6', 's', 'backspace', 'w', 'return']","[0.5669306266245258, 1.116903488557, 1.71641519577679, 1.8998525049137243, 2.083105685778719, 2.2662866909267905, 2.3496679275485803, 2.5328280819339852, 2.5995684854497085, 2.749432859262015, 3.549207157775527, 3.865641215477808, 4.148920315441501, 4.265608559973771, 4.448770959828835]",2017_Feb_08_1512,60.0299630656,famFaceFilter,001,15,
42,./img/smoo15_OmarEpps(DrEricForeman)1_5.png,0,37,37,41,,,1.ja,1.569,None,dummy,1.257,None,None,None,None,None,,"['num_3', 'num_decimal', 'return']","[0.9833052756912366, 1.0000898186663107, 1.3832559395777935]",2017_Feb_08_1512,60.0299630656,famFaceFilter,001,15,
25,./img/smoo15_JasonSegel(Marshall)6_1.png,0,38,38,24,,,2.nein,1.391,None,None,None,host,0.774,None,None,None,,"['num_decimal', 'return']",[0.4504095089760085],2017_Feb_08_1512,60.0299630656,famFaceFilter,001,15,
47,./img/smoo15_BarackObama4_1.png,0,39,39,46,,,1.ja,1.441,None,None,None,None,None,polit,0.874,None,Barack Obama,"['lshift', 'b', 'a', 'r', 'a', 'c', 'k', 'space', 'lshift', 'o', 'b', 'o', 'backspace', 'a', 'm', 'a', 'return']","[0.4335643383965362, 0.8166534718766343, 0.999902482588368, 1.2166872180314385, 1.4497939303109888, 1.6664282194869884, 1.8494119443421368, 2.0662213799223537, 2.1994606388943794, 2.299405721190851, 2.599416114495398, 2.8659013688375126, 3.3324968435154005, 3.4656514163107204, 3.5821568156970898, 3.7488737380481325, 4.11549397701674]",2017_Feb_08_1512,60.0299630656,famFaceFilter,001,15,
14,./img/smoo15_BritneySpears7_1.png,0,40,40,13,,,1.ja,1.519,None,None,None,music,0.739,None,None,None,Britney Spears,"['lshift', 'b', 'r', 'i', 't', 'h', 'backspace', 'n', 'e', 'y', 'space', 'lshift', 's', 'p', 'e', 'a', 'r', 's', 'return']","[0.5003595954585762, 0.8669577005384781, 1.083393105520372, 1.216668612738431, 1.3499944825671264, 1.483147772240045, 2.149482323686243, 2.4000635787851934, 2.4828135184798157, 2.682606807229604, 2.98264222144644, 3.049281578962109, 3.1825448965028045, 3.365839458110713, 3.4658666603354504, 3.7156536617803795, 4.348630521923042, 4.681945356889628, 4.93191680738164]",2017_Feb_08_1512,60.0299630656,famFaceFilter,001,15,
56,./img/smoo15_MariskaHargitay(Liv)6_5.png,0,41,41,55,,,2.nein,1.334,None,None,None,music,0.823,None,None,None,,['return'],[0.5169661049985734],2017_Feb_08_1512,60.0299630656,famFaceFilter,001,15,
39,./img/smoo15_BarackObama2_1.png,0,42,42,38,,,1.ja,1.324,None,None,None,None,None,polit,0.891,None,Barack Obama ich habe mich vertippt er ist politiker,"['lshift', 'b', 'a', 'r', 'a', 'c', 'k', 'space', 'o', 'backspace', 'lshift', 'o', 'b', 'a', 'comma', 'a', 'backspace', 'm', 'comma', 'a', 'space', 'i', 'c', 'h', 'space', 'h', 'a', 'b', 'e', 'space', 'm', 'i', 'c', 'h', 'space', 'v', 'e', 'r', 't', 'i', 'p', 'p', 't', 'space', 'e', 'r', 'space', 'o', 's', 't', 'backspace', 'backspace', 'backspace', 'i', 's', 't', 'space', u'\xfc', 'backspace', 'p', 'o', 'l', 'i', 't', 'i', 'backspace', 'i', 'k', 'e', 'r', 'return']","[2.1329191195727617, 2.4495305691452813, 2.616027114974713, 2.816046875082975, 3.0326224613418162, 3.232477660814766, 3.43241081006272, 3.6322227041091537, 3.8817569301536423, 4.198757166246651, 4.265449452621397, 4.415279502867634, 4.715232155598642, 4.848444148188719, 5.065166010565008, 5.231773867388256, 5.664844523886131, 5.89785179406681, 5.998040990674781, 6.547871746643068, 7.414222850384249, 7.464134443151124, 7.6140847862589, 7.830670316729083, 7.9638611377740745, 8.030650620778033, 8.163840479479404, 8.263885966218368, 8.380173555331567, 8.713366814314213, 8.880259203848254, 9.013639285662066, 9.11343969574591, 9.296723671584914, 9.413458429356979, 9.579783036591834, 9.746594268544868, 9.963127190934756, 10.062927601022238, 10.296329431781487, 10.462956535466219, 10.646339632618037, 10.762776705658325, 10.929465078505018, 11.096017440220749, 11.179340615490219, 11.42943717055823, 11.545858846115152, 11.812497112972778, 12.145726299422677, 12.295618581174494, 12.445349510104279, 12.712020817401935, 12.811756750517816, 13.01193529719967, 13.145045923003636, 13.545131956456316, 14.128234434425394, 14.461340761765314, 14.761239202514844, 15.3278330091307, 15.544364006836986, 15.69419084927722, 15.777516270012711, 16.127136080416676, 16.710542658736813, 16.92707526034792, 17.06038605347203, 17.19360959417463, 17.376919553269545]",2017_Feb_08_1512,60.0299630656,famFaceFilter,001,15,
63,./img/smoo15_RobertSeanLeonard(Wilson)8_1.png,0,43,43,62,,,2.nein,1.203,None,None,None,music,1.973,None,None,None,,['return'],[0.46687295020819874],2017_Feb_08_1512,60.0299630656,famFaceFilter,001,15,
40,./img/smoo15_NeilPatrickHarris(Barney)2_2.png,0,44,44,39,,,1.ja,1.541,None,act,0.742,None,None,None,None,None,Der Blonde aus How I met your Mother ,"['lshift', 'd', 'e', 'r', 'space', 'lshift', 'b', 'l', 'o', 'n', 'd', 'e', 'space', 'a', 'u', 's', 'space', 'lshift', 'i', 'backspace', 'lshift', 'h', 'o', 'w', 'space', 'lshift', 'i', 'space', 'm', 'e', 't', 'space', 'y', 'o', 'u', 'space', 'backspace', 'r', 'space', 'lshift', 'm', 't', 'o', 'h', 'backspace', 'backspace', 'backspace', 't', 'o', 'h', 'backspace', 'backspace', 'backspace', 'o', 't', 'h', 'e', 'r', 'space', 'return']","[0.4168875778232177, 0.6168168776966922, 0.8334469967194309, 0.9833274095799425, 1.0500049400252465, 1.2165739823540207, 1.3334614318628155, 1.6664355974498903, 2.249516583091463, 2.466170439907728, 2.5660619517839223, 2.7160215975418396, 2.866065287907986, 3.0158247663421207, 3.1158368918622728, 3.265898225181445, 3.398941486986587, 3.482363462793728, 3.6488936906243907, 3.982167465626844, 4.065477168092912, 4.26539812766714, 4.548732401955931, 4.6150002951180795, 5.148335210971709, 5.348092572254245, 5.448218895795435, 5.731514676372171, 5.931448467181326, 5.997989344938105, 6.347811568131874, 6.497848522096319, 6.881124350096798, 6.997429902945441, 7.2310017476156645, 7.530670829975861, 7.880636442256218, 7.980714327874011, 8.18047457618377, 8.413755151741498, 8.580308155022067, 8.846881624125672, 9.013266538182506, 9.313405885433895, 9.613239528425765, 9.77980696684972, 9.94651490733304, 10.046504578185704, 10.163096909211163, 10.462988292776572, 10.746055035746394, 10.896202338364674, 11.04600319754536, 11.262640373748582, 11.52915931008829, 11.729002961448714, 11.878974476101575, 12.028972294789128, 12.17897332128996, 12.728697577975254]",2017_Feb_08_1512,60.0299630656,famFaceFilter,001,15,
4,./img/smoo15_UrsulavonderLeyen1_1.png,0,45,45,3,,,1.ja,1.669,None,None,None,None,None,polit,0.907,None,Ursula von der Leyen,"['lshift', 'u', 'r', 's', 'u', 'l', 'a', 'space', 'v', 'o', 'n', 'space', 'd', 'e', 'r', 'space', 'lshift', 'l', 'e', 'y', 'e', 'n', 'return']","[0.9999445048924827, 1.216388891738461, 1.4164506741508376, 1.633038129308261, 1.7664871790257166, 1.982988664884033, 2.149540385038563, 2.2495300558912277, 2.465824958810117, 2.532804344144097, 2.8659828472009394, 3.065951282351307, 3.149365559416765, 3.265911056420009, 3.4322619676931936, 3.461065531701024, 3.681930600963824, 3.699026622252859, 3.9322202661714982, 4.131912188135175, 4.298745233194495, 4.398622951492143, 4.6986487422800565]",2017_Feb_08_1512,60.0299630656,famFaceFilter,001,15,
2,./img/smoo15_WillSmith5_1.png,0,46,46,1,,,1.ja,35.606,None,dummy,0.604,None,None,None,None,None,Will Smith,"['lshift', 'w', 'u', 'backspace', 'i', 'l', 'l', 'space', 'lshift', 's', 'm', 'i', 'z', 'h', 'backspace', 'backspace', 't', 'h', 'return']","[0.9833219563006423, 1.1499339832771511, 1.3664049949438777, 1.8003651770450233, 2.0661155222042, 2.9158472851668193, 3.0654630537319463, 3.2669981830949837, 3.4322808937722584, 3.5488369765480456, 3.781847133759584, 3.998907099266944, 4.448677291788044, 4.565118214199174, 5.04821209524016, 5.231596154735598, 5.44817334489926, 5.581496648479515, 5.948150890231773]",2017_Feb_08_1512,60.0299630656,famFaceFilter,001,15,
31,./img/smoo15_BritneySpears1_1.png,0,47,47,30,,,1.ja,9.598,None,dummy,0.971,None,None,None,None,None,Britney Spears,"['lshift', 'b', 'r', 'i', 't', 'h', 'e', 'backspace', 'backspace', 'n', 'e', 'y', 'space', 'lshift', 's', 'p', 'e', 'a', 'r', 's', 'return']","[0.9331235853569524, 1.0665806545985106, 1.766267123290163, 1.8661262362911657, 2.0662406267802, 2.199444279063755, 2.5159678346535657, 2.799297618010314, 2.949020206633577, 3.2323605757628684, 3.4323360680973565, 3.998751199720573, 4.11531113187084, 4.315216693954426, 4.4652228529485, 4.665188721854065, 4.798388524766779, 5.015009020360594, 5.214979380201839, 5.414834579674789, 5.564707293789979]",2017_Feb_08_1512,60.0299630656,famFaceFilter,001,15,
15,./img/smoo15_LisaEdelstein(DrLisaCuddy)1_1.png,0,48,48,14,,,2.nein,1.818,None,None,None,host,0.789,None,None,None,,['return'],[0.6002337851641641],2017_Feb_08_1512,60.0299630656,famFaceFilter,001,15,
8,./img/smoo15_AngelaMerkel4_1.png,0,49,49,7,,,1.ja,1.391,None,None,None,None,None,polit,1.24,None,Angela Merkel,"['lshift', 'a', 'n', 'g', 'e', 'l', 'a', 'space', 'lshift', 'm', 'e', 'r', 'k', 'e', 'l', 'return']","[1.1499885160410486, 1.5329329773085192, 1.9992869039233483, 2.083052756919642, 2.3161277118815633, 2.449442354380153, 2.68271811822342, 2.8493586947042786, 2.9658679434614896, 3.0825667737663025, 3.4490484353591455, 3.615755413498846, 3.715440984000452, 3.898889841253549, 4.132060709722282, 4.3820825228285685]",2017_Feb_08_1512,60.0299630656,famFaceFilter,001,15,
59,./img/smoo15_JoshRadnor(Ted)1_2.png,0,50,50,58,,,2.nein,2.085,None,None,None,music,1.423,None,None,None,,['return'],[0.5002104323102685],2017_Feb_08_1512,60.0299630656,famFaceFilter,001,15,
57,./img/smoo15_UrsulavonderLeyen5_1.png,0,51,51,56,,,1.ja,1.54,None,None,None,None,None,polit,0.908,None,Ursula von der Leyen,"['lshift', 'u', 'r', 's', 'u', 'l', 'a', 'space', 'v', 'o', 'n', 'space', 'd', 'e', 'e', 'space', 'backspace', 'r', 'space', 'backspace', 'backspace', 'backspace', 'r', 'space', 'lshift', 'l', 'e', 'y', 'e', 'n', 'return']","[0.8166396782944503, 1.14996574059478, 1.4665130339708412, 1.7162939405752695, 1.86628983457922, 2.0828570805351774, 2.2326216914661927, 2.3823984920745715, 2.5994103404373163, 2.7158169392896525, 2.94918797507853, 3.1657856952224392, 3.215686060655571, 3.365666557172517, 3.5489758747062297, 3.598952906788327, 3.9988188845054538, 4.265287458234525, 4.4152400468083215, 4.765098839030543, 4.9316123862518, 5.098446714433521, 5.498231855344784, 5.86485016962979, 6.014471712252998, 6.147893174809724, 6.348634371293883, 6.581001362679672, 7.113992401340511, 7.280686548245285, 7.613873070822592]",2017_Feb_08_1512,60.0299630656,famFaceFilter,001,15,
51,./img/smoo15_LeonardoDiCaprio1_1.png,0,52,52,50,,,1.ja,1.636,None,dummy,1.64,None,None,None,None,None,Leonardo Di Caprio,"['lshift', 'l', 'e', 'o', 'n', 'a', 'r', 'd', 'o', 'space', 'lshift', 'd', 'i', 'space', 'lshift', 'c', 'a', 'p', 'r', 'i', 'o', 'return']","[0.5168589641580184, 1.4662278596952092, 1.5998020139886648, 1.7497600558417616, 2.0328325728660275, 2.1994500531181984, 2.3994714171312808, 2.615944353485247, 2.699358309764648, 2.9823891252672183, 3.2157065906358184, 3.365873140111944, 3.6489495065106894, 3.8820475577012985, 3.9487173894049192, 4.1822343805324635, 4.432096765500319, 4.565371951939596, 4.781797091927729, 4.931716640061495, 5.148232561063196, 5.431487602454581]",2017_Feb_08_1512,60.0299630656,famFaceFilter,001,15,
3,./img/smoo15_JoshRadnor(Ted)3_1.png,0,53,53,2,,,1.ja,1.503,None,act,2.139,None,None,None,None,None,Ted Mosby,"['lshift', 't', 'e', 'd', 'space', 'lshift', 'm', 'o', 's', 'b', 'y', 'return']","[0.5501958046988875, 0.8666975471824117, 1.0500684546568664, 1.2331548294205277, 1.3500265606635367, 1.5661950758840248, 2.316203736969328, 2.5160310285027663, 2.632618547813763, 3.1157932656533376, 3.265797499960172, 3.7989659304948873]",2017_Feb_08_1512,60.0299630656,famFaceFilter,001,15,
23,./img/smoo15_JoachimLoew4_1.png,0,54,54,22,,,1.ja,1.723,None,None,None,None,None,sport,1.007,None,Jogi Löw,"['lshift', 'j', 'o', 'g', 'i', 'space', 'lshift', 'l', u'\xe4', 'w', 'backspace', 'backspace', u'\xf6', 'w', 'return']","[0.6001596847636392, 0.8668662779673468, 1.0833777080333675, 1.21669940771244, 1.3164837787480792, 1.58314289637201, 1.783250871241762, 1.899708153483516, 2.149650733692397, 2.2495226779319637, 2.9825440624736075, 3.165868135929486, 3.515144389926718, 3.631882676290843, 4.13141209062087]",2017_Feb_08_1512,60.0299630656,famFaceFilter,001,15,
29,./img/smoo15_GuentherJauch3_1.png,0,55,55,28,,,1.ja,1.743,None,None,None,host,1.006,None,None,None,Günter Jauch,"['lshift', 'g', u'\xfc', 'n', 't', 'e', 'r', 'space', 'lshift', 'j', 'a', 'u', 'c', 'h', 'return']","[0.5000314365352097, 0.8834400678497332, 1.8163079907826614, 2.066154015919892, 2.2161794217718125, 2.416081134488195, 2.549347339056112, 2.6494743041621405, 2.8656947858980857, 2.8992356431263033, 3.532311624589056, 3.6653799073064874, 3.7822073707757227, 4.731803700015007, 5.015017039884697]",2017_Feb_08_1512,60.0299630656,famFaceFilter,001,15,
27,./img/smoo15_JasonSegel(Marshall)9_1.png,0,56,56,26,,,2.nein,2.184,None,act,1.656,None,None,None,None,None,,['return'],[0.3834747121982218],2017_Feb_08_1512,60.0299630656,famFaceFilter,001,15,
69,./img/smoo15_BritneySpears5_1.png,0,57,57,68,,,1.ja,3.523,None,None,None,music,0.691,None,None,None,,['return'],[0.5337346089290804],2017_Feb_08_1512,60.0299630656,famFaceFilter,001,15,
55,./img/smoo15_MariskaHargitay(Liv)4_4.png,0,58,58,54,,,2.nein,1.224,None,None,None,host,2.157,None,None,None,,['return'],[0.6669536586996401],2017_Feb_08_1512,60.0299630656,famFaceFilter,001,15,
19,./img/smoo15_NicoleKidman7_1.png,0,59,59,18,,,1.ja,1.206,None,dummy,0.56,None,None,None,None,None,Nicole Kidman,"['lshift', 'n', 'i', 'c', 'o', 'l', 'e', 'space', 'lshift', 'k', 'i', 'd', 'm', 'a', 'n', 'return']","[0.9840674512524856, 1.2336834764428204, 1.9004571770237817, 2.1836313816165784, 2.2837240231565374, 2.5001892607651826, 2.6333887428954768, 2.8000306025023747, 2.983366224074416, 3.0167098010133486, 3.3164536253352708, 3.3998579581893864, 3.6996290488968953, 3.999548661187873, 4.099377941558487, 4.449411880184925]",2017_Feb_08_1512,60.0299630656,famFaceFilter,001,15,
18,./img/smoo15_HughLaurie(DrHouse)4_1.png,0,60,60,17,,,1.ja,1.918,None,act,0.741,None,None,None,None,None,,['return'],[0.43355888512087404],2017_Feb_08_1512,60.0299630656,famFaceFilter,001,15,
22,./img/smoo15_WillSmith1_1.png,0,61,61,21,,,1.ja,1.157,None,act,1.007,None,None,None,None,None,Will Smith,"['lshift', 'w', 'o', u'\xf6', 'backspace', 'backspace', 'i', 'l', 'l', 'space', 'lshift', 's', 'm', 'i', 't', 'h', 'return']","[0.4837460287308204, 0.866771006021736, 1.0166972905572038, 1.316555633682583, 1.8163326909161697, 1.9662949029188894, 2.299515749062266, 2.566104936435295, 2.7160267300350824, 2.94983017856066, 3.0657103758530866, 3.199183804925269, 3.332401892352209, 3.515713776130724, 3.6489995483425446, 3.7986727366987907, 4.3486982067079225]",2017_Feb_08_1512,60.0299630656,famFaceFilter,001,15,
1,./img/smoo15_Ice-T(OdafinFinTutuola)6_1.png,0,62,62,0,,,2.nein,2.119,None,act,0.789,None,None,None,None,None,,['return'],[0.4003901338073774],2017_Feb_08_1512,60.0299630656,famFaceFilter,001,15,
54,./img/smoo15_LisaEdelstein(DrLisaCuddy)6_3.png,0,63,63,53,,,2.nein,1.255,None,None,None,host,0.678,None,None,None,,['return'],[0.3836392728262581],2017_Feb_08_1512,60.0299630656,famFaceFilter,001,15,
35,./img/smoo15_KatjaBurkard1_1.png,0,64,64,34,,,2.nein,1.407,None,None,None,host,2.657,None,None,None,,['return'],[0.6334711836025235],2017_Feb_08_1512,60.0299630656,famFaceFilter,001,15,
64,./img/smoo15_JoachimLoew8_1.png,0,65,65,63,,,1.ja,1.258,None,None,None,None,None,sport,0.808,None,Jogi Löw,"['lshift', 'j', 'o', 'g', 'i', 'space', 'lshift', 'l', u'\xf6', 'w', 'return']","[0.683546053878672, 1.266440986568341, 1.499770000049466, 1.6163475751527585, 1.7163577759856707, 1.9662685988805606, 2.0827111251965107, 2.632870681645727, 2.8159150341052737, 2.899220245639299, 3.3323710973782]",2017_Feb_08_1512,60.0299630656,famFaceFilter,001,15,
70,./img/smoo15_JasonSegel(Marshall)7_1.png,0,66,66,69,,,2.nein,1.357,None,act,1.073,None,None,None,None,None,,['return'],[0.5002184518343711],2017_Feb_08_1512,60.0299630656,famFaceFilter,001,15,
38,./img/smoo15_AlysonHannigan(Lily)5_4.png,0,67,67,37,,,1.ja,1.607,None,dummy,1.773,None,None,None,None,None,Lilly aus How I met your Mother,"['lshift', 'l', 'i', 'l', 'l', 'y', 'space', 'a', 'u', 's', 'space', 'lshift', 'h', 'o', 'w', 'space', 'lshift', 'i', 'space', 'm', 'e', 't', 'space', 'y', 'o', 'u', 'r', 'space', 'lshift', 'm', 'o', 't', 'h', 'e', 'r', 'return']","[0.6170375749970844, 1.1001555146103783, 1.333400483479636, 1.5500119972057291, 1.7165322808286874, 1.916418275275646, 2.199528002893203, 2.416247619803471, 2.5994911772395426, 2.766130470598, 2.9161889168899506, 3.0826376663571864, 3.249351380898588, 3.532487733336893, 3.6159584678462124, 3.8321860067626403, 3.932108634395263, 4.115723335402436, 4.398678446599661, 4.598748569314921, 4.715385809675354, 4.9985959417354024, 5.148454220707208, 5.4317679650157515, 5.515066760934133, 5.798348747928685, 5.898066717305483, 6.081527122671105, 6.264867555957608, 6.348060173375416, 6.831276913522743, 6.931241242680699, 7.081127750374435, 7.197744781533402, 7.347657914051524, 7.481080338948232]",2017_Feb_08_1512,60.0299630656,famFaceFilter,001,15,
28,./img/smoo15_HughLaurie(DrHouse)5_3.png,0,68,68,27,,,1.ja,1.87,None,act,0.773,None,None,None,None,None,,['return'],[0.5334853621207003],2017_Feb_08_1512,60.0299630656,famFaceFilter,001,15,
67,./img/smoo15_GeorgeClooney4_2.png,0,69,69,66,,,1.ja,2.324,None,act,0.691,None,None,None,None,None,George Clooney,"['lshift', 'g', 'e', 'p', 'r', 'g', 'backspace', 'backspace', 'backspace', 'o', 'r', 'g', 'e', 'space', 'lshift', 'c', 'l', 'o', 'o', 'n', 'e', 'y', 'return']","[0.43332888517397805, 1.5997551799737266, 1.7662889363964496, 2.366121424576704, 2.51594922935692, 2.699418937369046, 2.9158950815326534, 3.082542715193995, 3.2491008509678068, 3.7154797984985635, 3.8489513028871443, 4.065436428914836, 4.248586959871318, 4.432037741808017, 4.548497269515792, 4.782002391744754, 4.931665315110877, 5.115172233716294, 5.315015564294299, 5.598174371400091, 5.68139970847551, 5.931388160362985, 6.0969544414074335]",2017_Feb_08_1512,60.0299630656,famFaceFilter,001,15,
61,./img/smoo15_OmarEpps(DrEricForeman)3_1.png,0,70,70,60,,,1.ja,2.16,None,None,None,music,0.408,None,None,None,,['return'],[0.4335909632136463],2017_Feb_08_1512,60.0299630656,famFaceFilter,001,15,
32,./img/smoo15_TomCruise1_1.png,0,71,71,31,,,1.ja,1.225,None,act,0.808,None,None,None,None,None,Tom Cruise,"['lshift', 't', 'o', 'm', 'space', 'lshift', 'c', 'r', 'u', 'i', 's', 'e', 'return']","[0.833258377515449, 1.0832240539530176, 1.1998792580452573, 1.4829158476059092, 1.8663594440477027, 1.9163961413905781, 2.066076386927307, 2.4659131735752453, 2.949055492539628, 3.1988585330291244, 3.3657393744506408, 3.515708643633843, 3.615397101166309]",2017_Feb_08_1512,60.0299630656,famFaceFilter,001,15,
32,./img/edges5_Ice-T(OdafinFinTutuola)7_1.png,0,0,0,31,,,1.ja,2.083,None,None,None,music,0.906,None,None,None,,['return'],[0.3502424462494673],2017_Feb_08_1512,60.0299630656,famFaceFilter,001,15,
45,./img/edges5_WillSmith4_1.png,0,1,1,44,,,1.ja,1.273,None,act,1.006,None,None,None,None,None,Will Smith,"['lshift', 'w', 'i', 'l', 'l', 'space', 'lshift', 's', 'm', 'i', 't', 'h', 'return']","[0.500219414177991, 0.700129146414838, 1.4165642306143127, 1.616341801098315, 1.7830167011416052, 1.9663212069572182, 2.0162061749069835, 2.1329932199732866, 2.2662042502197437, 2.449511963848636, 2.565958018756646, 2.732686489220214, 3.2325758197875984]",2017_Feb_08_1512,60.0299630656,famFaceFilter,001,15,
56,./img/edges5_NeilPatrickHarris(Barney)1_1.png,0,2,2,55,,,1.ja,3.736,None,dummy,0.656,None,None,None,None,None,Der Blonde aus How I met your Mother,"['lshift', 'd', 'd', 'r', 'backspace', 'backspace', 'e', 'r', 'space', 'lshift', 'b', 'l', 'o', 'n', 'd', 'e', 'space', 'a', 'u', 's', 'space', 'lshift', 'h', 'o', 'w', 'space', 'lshift', 'i', 'space', 'm', 'e', 't', 'space', 'y', 'o', 'r', 'backspace', 'u', 'r', 'space', 'lshift', 'm', 'o', 't', 'h', 'e', 'r', 'return']","[0.8335188516575727, 1.166713072980201, 1.266702743832866, 1.4999454672361026, 1.8498109958600253, 2.0163851706820424, 2.066338464974251, 2.2160764510845183, 2.349683325035585, 2.549490407367557, 2.6660910786958993, 2.96574444279031, 3.165722822155658, 3.415662515333679, 3.499250334894896, 3.6656769504770637, 3.74907903786152, 3.932247532553447, 4.01563999650898, 4.1818654824310215, 4.298784047692607, 4.4321644502852, 4.53216919784245, 4.731868176990247, 4.831998670684698, 5.0152521723284735, 5.231766489425354, 5.365069583807781, 5.598424259766034, 5.798029250090622, 5.8646493607484445, 6.098190731227078, 6.347982223604049, 6.597420536141726, 6.697911908417154, 7.0477280367704225, 7.41404096757833, 7.630908785293286, 7.780743005692784, 7.897187135913555, 8.363765929982037, 8.463943578477483, 8.730377828647761, 8.86374187140973, 9.046811244785204, 9.23028416060697, 9.380130891462613, 9.813321520039608]",2017_Feb_08_1512,60.0299630656,famFaceFilter,001,15,
71,./img/edges5_HughLaurie(DrHouse)4_1.png,0,3,3,70,,,1.ja,1.535,None,act,0.404,None,None,None,None,None,,"['return', 'num_decimal']","[0.4332926369206689, 0.4500242510403041]",2017_Feb_08_1512,60.0299630656,famFaceFilter,001,15,
51,./img/edges5_Ice-T(OdafinFinTutuola)6_1.png,0,4,4,50,,,1.ja,1.705,None,None,None,music,0.572,None,None,None,,['return'],[0.6171572262937843],2017_Feb_08_1512,60.0299630656,famFaceFilter,001,15,
55,./img/edges5_JoachimLoew1_1.png,0,5,5,54,,,1.ja,0.921,None,None,None,None,None,sport,0.82,None,Jogi Löw,"['lshift', 'j', 'o', 'g', 'i', 'space', 'lshift', 'l', u'\xf6', 'w', 'return']","[0.716801095273695, 1.133382648058614, 1.333298795918381, 1.4509811406460358, 1.5500148842365888, 1.799793545374996, 1.9329680065893626, 2.032953828071186, 2.582874723488203, 2.99932379373422, 3.165565960265667]",2017_Feb_08_1512,60.0299630656,famFaceFilter,001,15,
37,./img/edges5_JasonSegel(Marshall)9_1.png,0,6,6,36,,,2.nein,1.388,None,None,None,music,0.889,None,None,None,,['return'],[0.4002329511313292],2017_Feb_08_1512,60.0299630656,famFaceFilter,001,15,
23,./img/edges5_UrsulavonderLeyen1_1.png,0,7,7,22,,,1.ja,1.239,None,None,None,None,None,polit,1.371,None,Ursula von der Leyen,"['lshift', 'u', 'r', 's', 'u', u'\xf6', 'l', 'a', 'backspace', 'backspace', 'backspace', 'l', 'a', 'space', 'v', 'o', 'n', 'space', 'd', 'e', 'r', 'space', 'lshift', 'l', 'e', 'y', 'e', 'n', 'return']","[0.41688693625837914, 0.8503049985374673, 1.0999970488155668, 1.3165533882165619, 1.3997934812177846, 1.666346099558723, 1.7163465486519272, 1.7425444089167286, 2.0828750442669843, 2.2327192088778247, 2.4326648685819237, 2.6993227030798153, 3.2991295287865796, 3.4156913856204483, 3.682412093185121, 3.7821682354988297, 4.032224372167548, 4.21546664647758, 4.282111136486492, 4.448579453593993, 4.581824807402882, 4.648500092385802, 4.881881713943585, 5.165030897620454, 5.364919458315853, 5.564912914385786, 5.648353174703516, 5.914702097135887]",2017_Feb_08_1512,60.0299630656,famFaceFilter,001,15,
12,./img/edges5_UrsulavonderLeyen4_1.png,0,8,8,11,,,1.ja,1.652,None,None,None,None,None,polit,1.005,None,Ursula von der Leyen,"['lshift', 'u', 'r', 's', 'u', 'l', 'a', 'space', 'v', 'o', 'n', 'space', 'd', 'e', 'r', 'space', 'l', 'lshift', 'e', 'y', 'backspace', 'backspace', 'backspace', 'lshift', 'l', 'e', 'y', 'e', 'n', 'return']","[0.45025360942599946, 0.8835738335110364, 1.08332413761309, 1.2832049995631678, 1.4166139516601106, 1.6331654793502821, 1.8329491446675092, 2.0160627858131193, 2.3661660131292592, 2.4826572981510253, 2.732576461348799, 2.9160804929233564, 2.9825873679001234, 3.1489357129285054, 3.2657949337117316, 3.3324461601223447, 3.5654210314241936, 3.594238068231789, 3.882217571608635, 4.082207178307726, 4.348753060250601, 4.498652399182902, 4.648655671149754, 4.74849393338809, 4.899907679238822, 5.198367417378904, 5.431531870228355, 5.631385145017703, 5.731526866045897, 6.048002304491092]",2017_Feb_08_1512,60.0299630656,famFaceFilter,001,15,
54,./img/edges5_KatjaBurkard5_3.png,0,9,9,53,,,1.ja,2.634,None,None,None,host,0.654,None,None,None,RTL,"['lshift', 'r', 't', 'backspace', 't', 'backspace', 'capslock', 'capslock', 'lshift', 't', 'l', 'backspace', 'capslock', 'l', 'backspace', 'capslock', 'lshift', 'l', 'return']","[0.6166956224951718, 0.9167348860864877, 1.1998988256855228, 1.816384978214046, 2.016413399407611, 2.3995718215737725, 2.8825646566110663, 3.099108806338336, 3.365720769157633, 4.215475307566521, 5.165108847395459, 5.797834856832196, 5.94804920266688, 7.164189168383018, 7.897285294890025, 7.997255398102425, 8.546993448369903, 8.696791099740949, 9.21338638195084]",2017_Feb_08_1512,60.0299630656,famFaceFilter,001,15,
4,./img/edges5_LeonardoDiCaprio1_1.png,0,10,10,3,,,1.ja,2.668,None,dummy,0.637,None,None,None,None,None,Leonardo Di Caprio,"['lshift', 'l', 'e', 'o', 'r', 'backspace', 'd', 'backspace', 'n', 'a', 'r', 'd', 'o', 'space', 'lshift', 'd', 'i', 'space', 'lshift', 'c', 'a', 'p', 't', 'i', 'backspace', 'backspace', 'r', 'i', 'o', 'return']","[1.033391694083548, 1.2497045607342443, 1.433398815421242, 1.5666784927925619, 1.7498412134264072, 2.116306515188626, 2.3162784789346915, 2.6992967198239057, 3.9322680625336943, 4.115437198786822, 4.365591494428372, 4.865039751177392, 4.965078180735873, 5.2147272463662375, 5.398158139880252, 5.631392202198185, 5.748266820472054, 5.998277406240959, 6.131247850767977, 6.29811650251213, 6.54790318317464, 6.76474982934451, 7.214346800144995, 7.497720209714316, 7.897428042415413, 8.03069649245299, 8.163908485043066, 8.330790609586984, 8.530450132675469, 8.847016031348176]",2017_Feb_08_1512,60.0299630656,famFaceFilter,001,15,
15,./img/edges5_LisaEdelstein(DrLisaCuddy)6_3.png,0,11,11,14,,,1.ja,11.197,None,None,None,host,0.668,None,None,None,,"['num_3', 'return']","[0.5003304043893877, 0.517018713078869]",2017_Feb_08_1512,60.0299630656,famFaceFilter,001,15,
16,./img/edges5_BritneySpears7_1.png,0,12,12,15,,,1.ja,1.857,None,dummy,0.54,None,None,None,None,None,Britney Spears Musikerin,"['lshift', 'b', 'r', 't', 'backspace', 'o', 't', 'backspace', 'backspace', 'i', 't', 'n', 'e', 'y', 'space', 'lshift', 's', 'p', 'e', 'a', 'r', 'a', 'space', 'backspace', 'backspace', 's', 'space', 'lshift', 'm', 'u', 's', 'i', 'k', 'e', 'r', 'i', 'n', 'return']","[1.8497978438390419, 2.01646729060667, 2.199554627713951, 2.432798634243227, 2.765993497127056, 2.9993350210679637, 3.115879555731226, 3.415724105278059, 3.5823990053213493, 4.049145888613566, 4.16544695052653, 4.331906927327509, 4.431988341537362, 4.665135792994988, 4.8317875968095905, 5.064925745620712, 5.181843027759896, 5.298149222169741, 5.5480693477111345, 5.781537900911644, 6.01474886700089, 6.264849913004582, 6.731227256630518, 6.981005276204087, 7.147764862424083, 7.997035342363233, 8.097046184757346, 8.24699332005548, 9.196916845874512, 9.413524510229763, 9.513412172738754, 9.64637074836719, 9.879992634869268, 9.963217330383486, 10.113121160251467, 10.396316215603292, 10.579692897139466, 10.862603419780498]",2017_Feb_08_1512,60.0299630656,famFaceFilter,001,15,
11,./img/edges5_RobertSeanLeonard(Wilson)1_1.png,0,13,13,10,,,2.nein,1.532,None,None,None,music,0.805,None,None,None,,['return'],[0.5003919943337678],2017_Feb_08_1512,60.0299630656,famFaceFilter,001,15,
47,./img/edges5_UrsulavonderLeyen5_1.png,0,14,14,46,,,1.ja,1.191,None,dummy,0.522,None,None,None,None,None,Ursula von der Leyen Politikerin,"['lshift', 'u', 'r', 's', 'u', 'a', 'backspace', 'l', 'a', 'space', 'v', 'p', 'o', 'backspace', 'backspace', 'o', 'n', 'space', 'd', 'e', 'r', 'space', 'lshift', 'l', 'e', 'y', 'e', 'n', 'space', 'lshift', 'lshift', u'\xdc', 'f12', 'backspace', 'lshift', 'u', 'r', 's', 'u', 'l', 'a', 'space', 'v', 'o', 'n', 'space', 'd', 'e', 'r', 'space', 'lshift', 'l', 'e', 'y', 'e', 'n', 'space', 'lshift', 'p', 'o', 'l', 'i', 't', 'i', 'k', 'e', 'r', 'i', 'n', 'return']","[2.316281045179494, 2.582847136323835, 2.7828104389809596, 2.9658855864145153, 3.0661075026800972, 3.51579204668451, 3.9155197678046534, 4.18207206536681, 4.548818371255038, 4.681948564695631, 4.865082735825126, 4.9818168520359905, 5.414982780475839, 5.564890459718299, 5.998197531782353, 6.214736869791523, 6.398004806582321, 6.481294941411761, 6.614348468207027, 6.764436105564528, 6.847662725765986, 7.030863298550685, 7.064057070780109, 7.330617708648788, 7.514071377612709, 7.697453191642126, 7.7641422702035925, 7.980780729532853, 8.047251035481167, 8.58025362225817, 8.7136285715751, 10.029826534486347, 10.113166711147642, 10.91277965683912, 10.996140363484301, 11.3126815620235, 11.562566080876422, 12.17900475782153, 12.4455971530042, 13.195236595205643, 13.29519964123756, 13.561874156344857, 13.6617990294435, 13.894995560389361, 14.094937049943837, 14.144921139210055, 14.294789362389565, 14.444737780810101, 14.52818477753317, 14.744566291308729, 14.761363023964805, 15.111142262507201, 15.311168438231107, 15.477497215619223, 15.577787137452106, 15.79401050621891, 15.8940742774721, 16.04425686599643, 17.027117860056023, 17.227143073439947, 17.410029601665883, 17.493522149285127, 17.610078552839695, 17.793413853629318, 17.91002158214178, 18.026716883854533, 18.5431828913388, 18.74319238645694, 19.359563057838386]",2017_Feb_08_1512,60.0299630656,famFaceFilter,001,15,
69,./img/edges5_GuentherJauch2_1.png,0,15,15,68,,,1.ja,1.968,None,None,None,host,0.723,None,None,None,Günter Jauch,"['lshift', 'g', 'plus', u'\xfc', 'n', 't', 'e', 'r', 'space', 'lshift', 'j', 'a', 'u', 'c', 'h', 'return']","[0.5334465476262267, 0.7834301877992402, 1.2993877574590442, 2.3995294784872385, 3.1158587049685593, 3.2821839537682536, 3.4656209421227686, 3.5989820978575153, 3.7152857260189194, 3.8988564800310996, 4.1321036943700165, 4.515140540555876, 4.665248707893625, 4.748412455028301, 4.89852158470967, 5.181698034768488]",2017_Feb_08_1512,60.0299630656,famFaceFilter,001,15,
68,./img/edges5_MariskaHargitay(Liv)4_4.png,0,16,16,67,,,2.nein,1.367,None,None,None,music,0.905,None,None,None,,['return'],[0.3667860827263212],2017_Feb_08_1512,60.0299630656,famFaceFilter,001,15,
30,./img/edges5_MariskaHargitay(Liv)8_8.png,0,17,17,29,,,2.nein,1.222,None,None,None,music,1.938,None,None,None,,['return'],[0.5501727084701997],2017_Feb_08_1512,60.0299630656,famFaceFilter,001,15,
28,./img/edges5_Ice-T(OdafinFinTutuola)5_1.png,0,18,18,27,,,1.ja,1.523,None,act,0.49,None,None,None,None,None,,['return'],[0.48364434116956545],2017_Feb_08_1512,60.0299630656,famFaceFilter,001,15,
61,./img/edges5_NeilPatrickHarris(Barney)2_2.png,0,19,19,60,,,1.ja,2.406,None,dummy,0.623,None,None,None,None,None,Der Blonde aus How I met your Mother,"['lshift', 'd', 'e', 'r', 'space', 'lshift', 'b', 'l', 'o', 'n', 'e', 'space', 'backspace', 'backspace', 'd', 'e', 'space', 'a', 'u', 's', 'space', 'lshift', 'h', 'o', 'w', 'space', 'lshift', 'i', 'space', 'm', 'e', 't', 'space', 'y', 'o', 'u', 'r', 'space', 'lshift', 'm', 'o', 't', 'h', 'e', 'r', 'return']","[0.8501167001122667, 1.2332013426603226, 1.4332660120999208, 1.5661245040719223, 1.6664201999592478, 1.7996764603230986, 2.4159913158146082, 2.666106796961685, 2.8826846286865475, 3.115773377230653, 3.332457066673669, 3.5491260001945193, 3.9321750360541046, 4.065497698073159, 4.198882912380213, 4.348774231792049, 4.432048969138123, 4.665251915703266, 4.731885499160853, 4.9151563229752355, 5.04860216488305, 5.19819996971637, 5.298521007302043, 5.564941143107717, 5.615035581024131, 5.882335298221733, 5.99806537002587, 6.0979815820392105, 6.348027453717805, 6.547853462121566, 6.647847623909911, 6.8810245872191445, 7.014443804306211, 7.280954079560615, 7.447501629565522, 7.66394441250668, 7.764140666298772, 7.964004526860663, 8.130523206575162, 8.214007093105465, 8.447202982490126, 8.497106876515318, 8.829943106287828, 8.94684884031085, 9.096807202942728, 9.280000076985743]",2017_Feb_08_1512,60.0299630656,famFaceFilter,001,15,
31,./img/edges5_GeorgeClooney4_2.png,0,20,20,30,,,1.ja,1.5,None,act,0.672,None,None,None,None,None,George Clooney,"['lshift', 'g', 'e', 'o', 'r', 'g', 'e', 'space', 'lshift', 'c', 'l', 'o', 'o', 'n', 'e', 'y', 'return']","[0.8000607559151831, 1.1501165076442703, 1.2999548981970293, 1.4664892961809528, 1.6830215770096402, 1.8830018810585898, 2.082666857422737, 2.1994933585519902, 2.416012166580913, 2.5492183851129084, 2.6994067476916825, 2.88245174171243, 3.0990606891900825, 3.3656383284505864, 3.449285492490162, 3.6822610053532117, 3.832323301016004]",2017_Feb_08_1512,60.0299630656,famFaceFilter,001,15,
2,./img/edges5_OmarEpps(DrEricForeman)1_5.png,0,21,21,1,,,1.ja,1.671,None,None,None,music,0.838,None,None,None,,['return'],[0.4668309279004461],2017_Feb_08_1512,60.0299630656,famFaceFilter,001,15,
42,./img/edges5_JoachimLoew4_1.png,0,22,22,41,,,1.ja,1.072,None,None,None,None,None,sport,1.306,None,Jogi Löw,"['lshift', 'j', 'o', 'g', 'i', 'space', 'lshift', 'l', u'\xe4', 'insert', 'pound', 'insert', 'insert', 'backspace', 'backspace', 'lshift', 'l', 'w', 'backspace', u'\xf6', 'w', 'return']","[0.5001940724796441, 0.9835487484415353, 1.2331108824291732, 1.3832273900734435, 1.5164794802840333, 1.7664871790257166, 1.9831500177060661, 2.299500030792842, 2.682666472486744, 2.9493146835557127, 3.3156362754489237, 3.582229312192794, 4.065369064908737, 4.24883460277124, 4.981795038929704, 5.497798159485683, 5.898135364430345, 6.464441109746986, 6.864299067936372, 7.014295603505161, 7.447242759331857]",2017_Feb_08_1512,60.0299630656,famFaceFilter,001,15,
3,./img/edges5_NicoleKidman5_1.png,0,23,23,2,,,2.nein,1.767,None,act,2.388,None,None,None,None,None,,['return'],[0.433517504374322],2017_Feb_08_1512,60.0299630656,famFaceFilter,001,15,
34,./img/edges5_KatjaBurkard1_1.png,0,24,24,33,,,2.nein,1.289,None,None,None,host,1.638,None,None,None,,['return'],[0.650182909303112],2017_Feb_08_1512,60.0299630656,famFaceFilter,001,15,
25,./img/edges5_JoachimLoew8_1.png,0,25,25,24,,,1.ja,1.223,None,None,None,None,None,sport,1.14,None,Jogi Löw,"['lshift', 'j', 'o', 'g', 'i', 'space', 'lshift', 'l', u'\xf6', 'w', 'return']","[1.3831805560548673, 1.5999239107586618, 1.816068046624423, 1.8995330070792988, 2.033049420799216, 2.282839309271367, 2.3993184046157694, 3.1991915036669525, 3.365407686938852, 3.4322988575077034, 3.6322935967000376]",2017_Feb_08_1512,60.0299630656,famFaceFilter,001,15,
29,./img/edges5_TomCruise4_1.png,0,26,26,28,,,1.ja,1.539,None,dummy,0.556,None,None,None,None,None,Tom Cruise,"['lshift', 't', 'o', 'm', 'lshift', 'space', 'v', 'u', 'backspace', 'lshift', 'backspace', 'c', '5', 'u', 'backspace', 'backspace', 'r', 'u', 'i', 's', 'e', 'return']","[0.4672864368694718, 0.9171198232361348, 1.0004539050605672, 1.2336568516257103, 1.4502799134679663, 1.6669065038986446, 2.0332001878487063, 2.5164669698278885, 2.699686147909233, 2.7331769633092335, 2.84976384105903, 3.182861507310008, 3.316218492895132, 3.6494412637221103, 3.7827299229611526, 4.24926220378984, 4.3824587988929125, 4.5824618783917686, 4.68234922011834, 4.848787383813033, 4.965555502803909]",2017_Feb_08_1512,60.0299630656,famFaceFilter,001,15,
9,./img/edges5_RobertSeanLeonard(Wilson)8_1.png,0,27,27,8,,,2.nein,1.719,None,None,None,music,0.556,None,None,None,,['return'],[0.5335735768894665],2017_Feb_08_1512,60.0299630656,famFaceFilter,001,15,
40,./img/edges5_NicoleKidman3_1.png,0,28,28,39,,,1.ja,1.506,None,dummy,0.473,None,None,None,None,None,Nicole Kidman,"['lshift', 'm', 'backspace', 'lshift', 'n', 'i', 'c', 'o', 'l', 'e', 'space', 'lshift', 'k', 'i', 'd', 'm', 'e', 'backspace', 'a', 'n', 'return']","[0.5000917433571885, 0.9000257266343397, 1.3665669893307495, 1.566340389661491, 1.9998582148182322, 2.2160684315640538, 2.316156902950752, 2.615910350705235, 2.8493031996003992, 3.0825192981828877, 3.2657410425126727, 3.4489242931304034, 3.548968817525747, 3.7822497138658946, 3.998080446734093, 4.181454882800608, 4.332157136479509, 4.714916827913839, 5.014935882303689, 5.481509223096509, 5.781200439341774]",2017_Feb_08_1512,60.0299630656,famFaceFilter,001,15,
49,./img/edges5_RobertSeanLeonard(Wilson)2_6.png,0,29,29,48,,,2.nein,1.566,None,None,None,music,0.805,None,None,None,,['return'],[0.4669197842304129],2017_Feb_08_1512,60.0299630656,famFaceFilter,001,15,
33,./img/edges5_BarackObama2_1.png,0,30,30,32,,,1.ja,1.055,None,None,None,None,None,polit,1.605,None,Barack Obama,"['lshift', 'b', 'a', 'r', 'a', 'c', 'k', 'space', 'lshift', '0', 'lshift', 'o', 'b', 'a', 'm', 'a', 'return']","[0.33332157136464957, 0.9501872077707958, 1.0998449986400374, 1.316347767620755, 1.5495446193490352, 1.8162370981917775, 1.9162742446278571, 2.43271811822342, 2.516042576615291, 2.716000746779173, 3.3322373317205347, 3.7988793196382176, 4.098819141130662, 4.4817988883041835, 4.698542563786759, 4.848423938987253, 5.081755197934399]",2017_Feb_08_1512,60.0299630656,famFaceFilter,001,15,
63,./img/edges5_LisaEdelstein(DrLisaCuddy)2_2.png,0,31,31,62,,,2.nein,1.4,None,None,None,None,None,polit,1.272,None,,['return'],[0.46705675769771915],2017_Feb_08_1512,60.0299630656,famFaceFilter,001,15,
43,./img/edges5_BarackObama1_3.png,0,32,32,42,,,1.ja,1.305,None,None,None,None,None,polit,0.839,None,Barack Obama,"['lshift', 'b', 'a', 'r', 'a', 'c', 'k', 'space', 'lshift', 'o', 'b', 'a', 'm', 'a', 'return']","[0.7664547801468871, 0.9334828600294713, 1.2998901004430081, 1.4996516318751674, 1.716512713188422, 1.9162954161656671, 2.0829632590321125, 2.3828787011698296, 2.4993780057156982, 2.616044757924101, 2.8994521702734346, 3.032651010842528, 3.1824910053001076, 3.315877181950782, 3.5656125376590353]",2017_Feb_08_1512,60.0299630656,famFaceFilter,001,15,
17,./img/edges5_NeilPatrickHarris(Barney)3_7.png,0,33,33,16,,,2.nein,1.788,None,act,2.022,None,None,None,None,None,,['return'],[0.70022666382647],2017_Feb_08_1512,60.0299630656,famFaceFilter,001,15,
6,./img/edges5_GuentherJauch3_1.png,0,34,34,5,,,1.ja,1.123,None,None,None,host,0.656,None,None,None,Günther Jauch,"['lshift', 'g', u'\xfc', 'n', 't', 'e', 'r', 'space', 'lshift', 'h', 'backspace', 'backspace', 'backspace', 'backspace', 'h', 'e', 'r', 'space', 'lshift', 'j', 'a', 'u', 'c', 'h', 'return']","[0.4503806386892393, 0.8501744406894431, 1.2833182352442236, 1.5664914774934005, 2.083033510065434, 2.266306258567056, 2.4328461098266416, 2.9490949485989404, 3.065602593451331, 4.065623123431578, 4.965159338320518, 5.181731075208518, 5.348431316950155, 5.565023263035982, 5.881258115761739, 6.014819118034211, 6.164769781920768, 6.43127909483519, 7.047648483094235, 7.497562706263125, 7.630711505004001, 7.764206426400051, 7.8481140645781124, 7.963795056894014, 8.263873134979804]",2017_Feb_08_1512,60.0299630656,famFaceFilter,001,15,
19,./img/edges5_HughLaurie(DrHouse)2_1.png,0,35,35,18,,,1.ja,1.333,None,dummy,0.405,None,None,None,None,None,,['return'],[0.46693614406103734],2017_Feb_08_1512,60.0299630656,famFaceFilter,001,15,
5,./img/edges5_AlysonHannigan(Lily)1_1.png,0,36,36,4,,,1.ja,1.438,None,dummy,0.774,None,None,None,None,None,Lilly aus How I met your Mother,"['lshift', 'l', 'i', 'l', 'l', 'y', 'space', 'a', 'u', 's', 'space', 'lshift', 'h', 'o', 'w', 'space', 'lshift', 'i', 'space', 'm', 'e', 't', 'space', 'y', 'o', 'u', 'r', 'space', 'lshift', 'm', 'o', 't', 'h', 'e', 'r', 'return']","[0.5172807911221753, 1.0666306964267278, 1.333460790301615, 1.516674194324878, 1.683367058103613, 2.0665373491683567, 2.2498299860890256, 2.5163919070801057, 2.6330336383762187, 2.7663851706820424, 2.9664389335703163, 3.016244668619038, 3.1494720586961193, 3.3494231716758804, 3.4328310331184184, 3.6326974599287496, 3.8158171959112224, 4.482326252200437, 4.715524707833538, 4.898944053235027, 4.965542030004144, 5.348625389426161, 5.565117893416755, 5.915094412252074, 6.015031475028081, 6.281600773978425, 6.348267718658462, 6.548166223561566, 6.714568139006587, 6.7980693477111345, 7.06467553647235, 7.447677738313359, 7.597740033976152, 7.780997064211988, 7.914298233907175, 8.164156448725407]",2017_Feb_08_1512,60.0299630656,famFaceFilter,001,15,
18,./img/edges5_JoshRadnor(Ted)6_2.png,0,37,37,17,,,2.nein,1.301,None,None,None,music,1.471,None,None,None,,['return'],[0.40036318820421],2017_Feb_08_1512,60.0299630656,famFaceFilter,001,15,
62,./img/edges5_AlysonHannigan(Lily)5_4.png,0,38,38,61,,,1.ja,1.772,None,dummy,0.456,None,None,None,None,None,Lilly aus How I met your Mother,"['lshift', 'l', 'i', 'l', 'l', 'y', 'space', 'a', 'u', 's', 'space', 'h', 'lshift', 'backspace', 'lshift', 'h', 'o', 'w', 'space', 'lshift', 'i', 'space', 'm', 'e', 't', 'space', 'y', 'o', 'u', 'r', 'space', 'lshift', 'm', 'o', 't', 'h', 'e', 'r', 'return']","[0.5334786257226369, 1.0833651975735847, 1.28339810970283, 1.466417441246449, 1.6998452552652452, 1.8830724528706924, 2.0162568582964013, 2.5326715408264135, 2.599371846721624, 2.749292036420229, 2.915999335342349, 3.2992193474528904, 3.3823689802229637, 3.7489735009257856, 3.882159189477534, 4.032634009454341, 4.315428730169515, 4.465388375923794, 4.6319468324800255, 5.015086649353179, 5.1650523899479595, 5.415066825091344, 5.614909514108149, 5.731666084982862, 5.964729171049839, 6.164557104144478, 6.2979262794033275, 6.431188634600403, 6.681128006999643, 6.7976516909002385, 6.981010087918548, 7.130772132604761, 7.1974541539857455, 7.447441322747181, 7.564043277201563, 7.74754730877612, 7.847186686820351, 7.980663002919755, 8.397184248886333]",2017_Feb_08_1512,60.0299630656,famFaceFilter,001,15,
41,./img/edges5_OmarEpps(DrEricForeman)3_1.png,0,39,39,40,,,1.ja,1.517,None,None,None,music,1.455,None,None,None,,['return'],[0.7002420613134746],2017_Feb_08_1512,60.0299630656,famFaceFilter,001,15,
39,./img/edges5_AlysonHannigan(Lily)8_3.png,0,40,40,38,,,1.ja,1.355,None,dummy,1.322,None,None,None,None,None,Lilly aus How I met your Mother,"['lshift', 'l', 'i', 'l', 'l', 'y', 'space', 'a', 'u', 's', 'space', 'lshift', 'h', 'w', 'backspace', 'o', 'w', 'space', 'lshift', 'i', 'space', 'm', 'e', 't', 'space', 'y', 'o', 'u', 'r', 'space', 'lshift', 'm', 'o', 't', 'h', 'e', 'r', 'return']","[0.4003869259940984, 0.9498590488474292, 1.266628643432341, 1.449910694580467, 1.799779751792812, 2.0163723394434783, 2.166075039651332, 2.2996543264380307, 2.382993540755706, 2.532788625878311, 2.666069586372032, 2.832599172641494, 2.9325047988859296, 3.2658180299440573, 3.6324135687791568, 3.8488977324632287, 3.948824209470331, 4.148885350317869, 4.265328197416238, 4.3988468566058145, 4.648419255583576, 4.815338590720785, 4.9150693913397845, 5.131862146306958, 5.315073946429038, 5.498382301619131, 5.614835413707624, 5.947980555542017, 6.031405097593961, 6.214784024596156, 6.39769813998646, 6.697720722964732, 6.9311000990601315, 7.014355589544721, 7.230916099098977, 7.31421681970096, 7.447320709106862, 7.730779446410452]",2017_Feb_08_1512,60.0299630656,famFaceFilter,001,15,
20,./img/edges5_JoshRadnor(Ted)1_2.png,0,41,41,19,,,2.nein,1.366,None,act,1.206,None,None,None,None,None,,['return'],[0.35013883400097257],2017_Feb_08_1512,60.0299630656,famFaceFilter,001,15,
10,./img/edges5_GuentherJauch4_1.png,0,42,42,9,,,1.ja,1.124,None,None,None,host,0.74,None,None,None,Günther Jauch,"['lshift', 'g', u'\xfc', 'n', 't', 'e', 'r', 'space', 'lshift', 'j', 'a', 'c', 'h', 'backspace', 'backspace', 'u', 'c', 'h', 'g', 'backspace', 'backspace', 'backspace', 'backspace', 'backspace', 'backspace', 'backspace', 'backspace', 'backspace', 'h', 'e', 'r', 'space', 'lshift', 'j', 'a', 'u', 'c', 'h', 'return']","[0.36694134071149165, 0.8501959330096724, 1.1501165076442703, 1.4334392338205362, 1.5329990581885795, 1.7496137797243136, 1.932852846224705, 2.0330712339018646, 2.249509205132199, 2.366388314334472, 2.616298174885742, 2.832717861598212, 2.9492806807757006, 3.532239448872133, 3.6824249244236853, 3.93317715577723, 4.098975040677033, 4.198746580474108, 6.531442308187252, 7.2977418303489685, 8.280744288815185, 8.430362623628753, 8.613817575718713, 8.780181959791662, 8.9470717830809, 9.130282300076942, 9.28033080215755, 9.446870011855935, 10.230009251321462, 10.346492196040344, 10.479769948728062, 10.596366129124362, 10.812600725221273, 11.646094235180499, 11.795760045577481, 11.995876681532536, 12.179156487218279, 12.29581233287172, 12.595601066532254]",2017_Feb_08_1512,60.0299630656,famFaceFilter,001,15,
65,./img/edges5_LisaEdelstein(DrLisaCuddy)1_1.png,0,43,43,64,,,2.nein,1.335,None,None,None,music,0.656,None,None,None,,"['return', 'num_decimal']","[0.5000696094684827, 0.5167258400615538]",2017_Feb_08_1512,60.0299630656,famFaceFilter,001,15,
72,./img/edges5_EmilyDeschanel6_12.png,0,44,44,71,,,2.nein,1.289,None,None,None,host,0.989,None,None,None,,['return'],[0.4502940278289316],2017_Feb_08_1512,60.0299630656,famFaceFilter,001,15,
52,./img/edges5_BarackObama4_1.png,0,45,45,51,,,1.ja,1.374,None,None,None,None,None,polit,0.641,None,Barack Obama,"['lshift', 'b', 'a', 'r', 'a', 'c', 'k', 'space', 'lshift', 'lshift', 'o', 'b', 'a', 'm', 'a', 'return']","[0.9665983617087477, 1.0333961850155902, 1.2499499581717828, 1.6830199731084576, 1.9492691326595377, 2.149538460354961, 2.2826728239524527, 2.582821794629126, 2.832497485076601, 3.2157078737618576, 3.3490565190404595, 3.6489020309309126, 3.9652465907420265, 4.065416540492151, 4.198798546993203, 4.41511558379716]",2017_Feb_08_1512,60.0299630656,famFaceFilter,001,15,
50,./img/edges5_WillSmith5_1.png,0,46,46,49,,,1.ja,1.517,None,act,0.807,None,None,None,None,None,Will Smith,"['lshift', 'w', 'o', 'o', 'backspace', 'backspace', 'i', 'l', 'l', 'space', 'lshift', 's', 'm', 'i', 'z', 'backspace', 't', 'h', 'return']","[1.1001173416734673, 1.2499900557886576, 1.5833523663350206, 1.716605098106811, 2.166319474737975, 2.3329517109159497, 2.649636940106575, 2.9159874664437666, 3.099323088015808, 3.3159528862561274, 3.515819954627659, 3.5991976626610267, 3.7825656831082597, 3.9657184595307626, 4.098938150862523, 4.732011245294416, 5.032066868716356, 5.148512282059528, 5.481892556341336]",2017_Feb_08_1512,60.0299630656,famFaceFilter,001,15,
60,./img/edges5_TomCruise1_1.png,0,47,47,59,,,1.ja,1.266,None,act,1.673,None,None,None,None,None,Tom Cruise,"['lshift', 't', 'o', 'm', 'space', 'lshift', 'c', 'r', 'u', 'i', 's', 'e', 'return']","[0.8833111139065295, 1.616585594627395, 1.899715531446418, 2.482675903447671, 2.6660500187354046, 2.6900518125439703, 2.8326918783423025, 3.065895145686227, 3.199005450711411, 3.4323697501022252, 3.532431275889394, 3.6988732889549283, 3.8323717389430385]",2017_Feb_08_1512,60.0299630656,famFaceFilter,001,15,
58,./img/edges5_HughLaurie(DrHouse)5_3.png,0,48,48,57,,,1.ja,1.223,None,dummy,0.44,None,None,None,None,None,,['return'],[0.4169308832497336],2017_Feb_08_1512,60.0299630656,famFaceFilter,001,15,
26,./img/edges5_NicoleKidman7_1.png,0,49,49,25,,,1.ja,1.54,None,act,0.824,None,None,None,None,None,Nicole Kidman,"['lshift', 'n', 'i', 'c', 'o', 'l', 'e', 'space', 'lshift', 'k', 'd', 'backspace', 'd', 'backspace', 'i', 'd', 'm', 'a', 'n', 'return']","[0.4003622258605901, 0.8332067317824112, 1.3833281152983545, 1.4832260427938309, 1.7830683468746429, 1.9663683617582137, 2.099543785319838, 2.2329225840076106, 2.5993882065522484, 2.682652358125779, 2.966069714686455, 3.500673319238558, 3.881959984501009, 4.165549921217462, 4.382052048636979, 4.5486121090980305, 4.731744997101487, 4.931895635840192, 5.048418678179587, 5.331630414140818]",2017_Feb_08_1512,60.0299630656,famFaceFilter,001,15,
53,./img/edges5_KatjaBurkard4_1.png,0,50,50,52,,,2.nein,1.26,None,None,None,host,1.455,None,None,None,,['return'],[0.3670677284062549],2017_Feb_08_1512,60.0299630656,famFaceFilter,001,15,
46,./img/edges5_TomCruise5_1.png,0,51,51,45,,,1.ja,1.639,None,dummy,0.957,None,None,None,None,None,Tom Cruise,"['lshift', 't', 'o', 'm', 'lshift', 'space', 'c', 'u', 'backspace', 'r', 'i', 'backspace', 'u', 'i', 's', 'e', 'return']","[0.8001829734566854, 1.5162761051542475, 1.6832583133582375, 1.9496883933716163, 2.132947027512273, 2.1662893213288044, 2.3325497723708395, 2.6494784743117634, 2.982701565921161, 3.0492822205196717, 3.465775237760681, 3.7822731308733637, 4.015425394045451, 4.2488779081977555, 4.365183461046399, 4.531957803188561, 4.665272766465932]",2017_Feb_08_1512,60.0299630656,famFaceFilter,001,15,
8,./img/edges5_LeonardoDiCaprio3_1.png,0,52,52,7,,,1.ja,1.615,None,act,0.957,None,None,None,None,None,Leonardo Di Caprio,"['lshift', 'l', 'e', 'o', 'n', 'a', 'r', 'd', 'o', 'space', 'lshift', 'd', 'i', 'space', 'lshift', 'c', 'a', 'p', 'r', 'i', 'o', 'return']","[0.3833460790301615, 1.0502278827952978, 1.3499668954027584, 1.4498628982182709, 1.8827946565579623, 2.049653364094411, 2.249471994538908, 2.4828417472017463, 2.582442310751503, 2.8160507244501787, 2.899258739354991, 3.0325105087831616, 3.182453153149254, 3.499057545537653, 3.5988335762704082, 3.7656791317858733, 3.9822046762164973, 4.09881048004172, 4.315207070525503, 4.7982188316382235, 4.981832249519357, 5.231700729327713]",2017_Feb_08_1512,60.0299630656,famFaceFilter,001,15,
22,./img/edges5_JasonSegel(Marshall)6_1.png,0,53,53,21,,,2.nein,1.366,None,None,None,host,0.656,None,None,None,,"['num_add', 'num_3', 'return']","[0.3669362082146108, 0.45037550619235844, 0.46697367543310975]",2017_Feb_08_1512,60.0299630656,famFaceFilter,001,15,
35,./img/edges5_WillSmith1_1.png,0,54,54,34,,,1.ja,1.423,None,dummy,1.773,None,None,None,None,None,Will Smith,"['lshift', 'w', 'i', 'l', 'l', 'lshift', 'space', 's', 'm', 'i', 't', 'h', 'return']","[0.7999555397582299, 1.066654113437835, 1.3498696987735457, 1.6331962743206532, 1.7996360419238044, 1.9495357016385242, 1.9999262203782564, 2.1994012944160204, 2.2994153446197743, 2.5993458634657145, 2.782534246576688, 2.9157985264610033, 3.215575712005375]",2017_Feb_08_1512,60.0299630656,famFaceFilter,001,15,
64,./img/edges5_EmilyDeschanel3_1.png,0,55,55,63,,,2.nein,1.323,None,None,None,music,0.74,None,None,None,,['return'],[0.4337006703062798],2017_Feb_08_1512,60.0299630656,famFaceFilter,001,15,
27,./img/edges5_OmarEpps(DrEricForeman)2_2.png,0,56,56,26,,,1.ja,1.738,None,None,None,music,1.105,None,None,None,,"['num_decimal', 'return']","[0.6667599069987773, 1.3998560335057846]",2017_Feb_08_1512,60.0299630656,famFaceFilter,001,15,
7,./img/edges5_AngelaMerkel3_1.png,0,57,57,6,,,1.ja,1.74,None,None,None,None,None,polit,0.824,None,Angela Merkel,"['lshift', 'a', 'n', 'g', 'e', 'l', 'a', 'space', 'lshift', 'm', 'e', 'r', 'k', 'e', 'l', 'return']","[1.0165041804175416, 1.166495583485812, 1.433147643925622, 1.6660602837218903, 1.8497538968476874, 1.9329808378279267, 2.3495197267438925, 2.4994514645550225, 2.649136521809851, 2.7659899685349956, 2.982512625938398, 3.132379886774288, 3.215847092695185, 3.3322350862508756, 3.565801798424218, 4.081905964983889]",2017_Feb_08_1512,60.0299630656,famFaceFilter,001,15,
67,./img/edges5_LeonardoDiCaprio2_1.png,0,58,58,66,,,1.ja,1.532,None,act,0.74,None,None,None,None,None,Leonardo Di Caprio,"['lshift', 's', 'backspace', 'd', 'i', 'backspace', 'lshift', 'backspace', 'l', 'e', 'o', 'n', 'a', 'r', 'd', 'o', 'space', 'lshift', 'd', 'i', 'space', 'lshift', 'c', 'a', 'p', 'r', 'i', 'o', 'return']","[0.4500749344297219, 0.6668160436638573, 1.3666147856893076, 1.882989370598807, 2.1327843915678386, 2.582661404147075, 2.7325809522808413, 2.7494225942682533, 3.2653994107895414, 3.548977478607412, 3.682225398664741, 4.098822669715446, 4.2321084419272665, 4.431977114199981, 4.615147533579147, 4.715248515425628, 4.981669934353704, 5.014941335575713, 5.165128415032086, 5.298020268222899, 5.56485709849585, 5.71457519618707, 5.864807505760837, 6.09795046628642, 6.1812252036288555, 6.398081794010068, 6.514462730381638, 6.730995011213963, 7.264146119574434]",2017_Feb_08_1512,60.0299630656,famFaceFilter,001,15,
44,./img/edges5_EmilyDeschanel5_1.png,0,59,59,43,,,1.ja,1.45,None,act,0.99,None,None,None,None,None,Nicole Kidman,"['lshift', 'n', 'lshift', 'i', 'c', 'o', 'backspace', 'backspace', 'backspace', 'i', 'c', 'o', 'l', 'e', 'space', 'lshift', 'k', 'o', 'd', 'backspace', 'backspace', 'i', 'd', 'm', 'a', 'n', 'return']","[0.5002213388615928, 1.216641025574063, 1.383202369161154, 1.9161308555339929, 2.082872478018544, 2.249496373889997, 2.6992797184320807, 2.86595397691417, 3.0325137165928027, 3.598831330804387, 4.348492265329696, 4.382009063985606, 4.715133034278551, 4.78179997895495, 5.048526781360124, 5.214750663373707, 5.365062205844879, 5.581617582902254, 5.714673034381121, 6.031127942842431, 6.181207239897049, 6.38110285777293, 6.497800725734123, 6.781047106043843, 6.947544934995676, 7.030835069828754, 7.297495470571448]",2017_Feb_08_1512,60.0299630656,famFaceFilter,001,15,
21,./img/edges5_JoshRadnor(Ted)3_1.png,0,60,60,20,,,1.ja,1.9,None,dummy,0.79,None,None,None,None,None,Ted Mosby,"['lshift', 't', 'e', 'd', 'space', 'lshift', 'm', 'o', 's', 'b', 'y', 'return']","[0.3838339868707408, 1.1666636727131845, 1.3667264174691809, 1.5499189707297774, 1.6666094607280684, 1.9164009531050397, 2.0664067913203326, 2.349596714178915, 2.465952308855776, 3.066044950395735, 3.2492140866488626, 3.5322526008931163]",2017_Feb_08_1512,60.0299630656,famFaceFilter,001,15,
57,./img/edges5_BritneySpears5_1.png,0,61,61,56,,,1.ja,1.59,None,None,None,music,1.073,None,None,None,Britney Spears,"['lshift', 'b', 'r', 'i', 't', 'n', 'e', 'y', 'space', 'lshift', 's', 'p', 'e', 'a', 'r', 's', 'return']","[0.3333151557453675, 0.7502271129196743, 0.9835298223624704, 1.0998940781246347, 1.2166342891723616, 1.6998539163505484, 1.766350847115973, 2.316188981043524, 2.71614092805612, 2.815956735630607, 2.9492861340477248, 3.116006584990828, 3.249169818871451, 3.4990803209839214, 3.9489066501737398, 4.198795659962343, 4.332174779428897]",2017_Feb_08_1512,60.0299630656,famFaceFilter,001,15,
38,./img/edges5_GeorgeClooney11_1.png,0,62,62,37,,,1.ja,1.266,None,dummy,1.721,None,None,None,None,None,George Clooney,"['lshift', 'g', 'e', 'p', 'r', 'backspace', 'backspace', 'o', 'r', 'g', 'e', 'space', 'lshift', 'c', 'l', 'o', 'o', 'n', 'e', 'y', 'delete', 'return']","[0.4169350534029945, 0.9168279125624395, 1.0832705671928125, 1.2665128415028448, 1.4331479647080414, 1.8497478020071867, 1.9995486611878732, 2.69897176871018, 2.7492554673917766, 2.982508455785137, 3.1657500885339687, 3.29915968219575, 3.4990139193287177, 3.6655845655586745, 3.832243747336179, 4.015477039782127, 4.215433606041188, 4.498719763185363, 4.6651117344226805, 4.93176315330129, 5.198241029680503, 5.631269022309425]",2017_Feb_08_1512,60.0299630656,famFaceFilter,001,15,
70,./img/edges5_BastianSchweinsteiger1_1.png,0,63,63,69,,,1.ja,1.599,None,None,None,None,None,sport,0.923,None,Bastian Schweinsteiger,"['lshift', 'b', 'a', 's', 't', 'i', 'o', 'backspace', 'a', 'n', 'space', 'lshift', 's', 'c', 'h', 'w', 'e', 'i', 'n', 's', 't', 'e', 'i', 'g', 'e', 'r', 'return']","[0.43363491020863876, 1.0335139116286882, 1.1833863049650972, 1.333201278506749, 1.633117682988086, 1.7663838875596412, 1.9831092785279907, 2.2328844110743375, 2.349530633298855, 2.5327414710773155, 2.765913943450869, 2.899146145238774, 3.0325133958140214, 3.2657217956548266, 3.3656883702788036, 3.515742325638712, 3.6657045376414317, 3.7489317994040903, 3.9822418868097884, 4.182173752931703, 4.648670747857977, 4.8652472964604385, 4.998310767463408, 5.115175762304716, 5.298428622387291, 5.448325715857209, 5.581712213286664]",2017_Feb_08_1512,60.0299630656,famFaceFilter,001,15,
36,./img/edges5_AngelaMerkel1_1.png,0,64,64,35,,,1.ja,1.582,None,None,None,None,None,polit,0.873,None,Angela Merkel,"['lshift', 'a', 'n', 'g', 'e', 'l', 'a', 'space', 'lshift', 'm', 'e', 'r', 'k', 'e', 'l', 'return']","[0.4163072850642493, 0.765904640804365, 0.8992773446516367, 1.1159344092775427, 1.3158297063710052, 1.7153832434305514, 1.8489788900478743, 1.9985458999071852, 2.115488202962297, 2.2153062559991668, 2.415271483343531, 2.5652638487554213, 2.665281748333655, 2.8150713801805978, 2.914973477832973, 3.2482802932718187]",2017_Feb_08_1512,60.0299630656,famFaceFilter,001,15,
13,./img/edges5_MariskaHargitay(Liv)6_5.png,0,65,65,12,,,2.nein,1.422,None,None,None,host,0.672,None,None,None,,['return'],[0.4171034634055104],2017_Feb_08_1512,60.0299630656,famFaceFilter,001,15,
1,./img/edges5_BastianSchweinsteiger6_2.png,0,66,66,0,,,1.ja,1.222,None,None,None,None,None,sport,1.189,None,Bastian Schweinsteiger,"['lshift', 'n', 'a', 'insert', 'insert', 'backspace', 'backspace', 'lshift', 'b', 'a', 's', 't', 'i', 'a', 'n', 'space', 'lshift', 's', 'c', 'h', 'w', 'e', 'i', 'n', 's', 't', 'e', 'i', 'g', 'e', 'r', 'return']","[0.46682354994118214, 0.7334364751040994, 1.1000034644348489, 1.4497374728634895, 1.6497444017331873, 2.0993048035015818, 2.2995744519794243, 2.532626631491439, 3.0826004557675333, 3.2491451187415805, 3.415647438629094, 3.6822738365917758, 3.7822420151205733, 4.098770061642426, 4.198712898476515, 4.3819394545207615, 4.406012782481412, 4.548600881764287, 4.748635718577134, 4.865141438742285, 4.964993815345224, 5.114982331386273, 5.23172414633882, 5.44826637137885, 5.698116887451761, 5.914825277028285, 6.131324517416942, 6.2479684941790765, 6.347948541602818, 6.514477807089861, 6.681198578811745, 6.8144096090582025]",2017_Feb_08_1512,60.0299630656,famFaceFilter,001,15,
48,./img/edges5_GeorgeClooney3_1.png,0,67,67,47,,,1.ja,1.733,None,dummy,2.09,None,None,None,None,None,George Clooney,"['lshift', 'g', 'e', 'o', 'r', 'g', 'e', 'space', 'lshift', 'c', 'l', 'o', 'o', 'n', 'e', 'y', 'return']","[0.5172121439973125, 0.8504089315683814, 1.050211202182254, 1.2335083300386032, 1.3833669297928282, 1.66673937701853, 1.8665836699401552, 2.1665045653535344, 2.2995673947953037, 2.6994949624568108, 3.0993375231591926, 3.299283503645711, 3.5658903339717654, 3.8321818366130174, 3.882435061103024, 4.115600797074876, 4.282391819830082]",2017_Feb_08_1512,60.0299630656,famFaceFilter,001,15,
66,./img/edges5_BritneySpears1_1.png,0,68,68,65,,,1.ja,1.732,None,None,None,music,0.506,None,None,None,Britney Spears,"['lshift', 'b', 'r', 't', 'backspace', 'o', 't', 'h', 'backspace', 'backspace', 'backspace', 'i', 't', 'n', 'e', 'y', 'space', 'lshift', 's', 'p', 'e', 'a', 'r', 's', 'return']","[0.5001449929950468, 0.833595518306538, 1.1000733946857508, 1.4164878847441287, 1.699528002896841, 1.9329137946078845, 2.049260407417023, 2.2495730405426, 2.549459612393548, 2.6993621591391275, 2.865655971403612, 3.6322381015925203, 3.7487858440654236, 4.165293617228599, 4.282118514453032, 4.631842257887911, 4.765268211376679, 4.898383648898744, 5.015178713489149, 5.181713432255492, 5.28131175033559, 5.581473552250827, 5.814846833509364, 6.048091160817421, 6.1645510093076155]",2017_Feb_08_1512,60.0299630656,famFaceFilter,001,15,
14,./img/edges5_AngelaMerkel4_1.png,0,69,69,13,,,2.nein,1.983,None,None,None,host,0.957,None,None,None,,['return'],[0.4001043179669068],2017_Feb_08_1512,60.0299630656,famFaceFilter,001,15,
59,./img/edges5_BastianSchweinsteiger3_1.png,0,70,70,58,,,1.ja,1.273,None,None,None,None,None,sport,1.09,None,Bastian Schweinsteiger,"['b', 'lshift', 'a', 'backspace', 'backspace', 'lshift', 'b', 'a', 's', 't', 'i', 'a', 'n', 'space', 'lshift', 's', 'c', 'h', 'w', 'e', 'i', 'n', 's', 't', 'e', 'i', 'g', 'e', 'r', 'return']","[1.1500924490756006, 1.2832069242504076, 1.4999627894103469, 1.7997229735628935, 1.9830255546949047, 2.082910971737874, 2.29952858030083, 2.8159150341052737, 2.9992965273559093, 3.2657946129329503, 3.3824132479967375, 3.6155825125642878, 3.782402726381406, 3.965659435838461, 3.990156836229289, 4.431968132335896, 5.048374089623394, 5.215174094242684, 5.364951857194683, 5.548263099411997, 5.631648826969467, 5.864865246334375, 6.01459970385622, 6.214621709430503, 6.414548443059175, 6.498564825982612, 6.614513670403539, 6.797731886141264, 6.930999053056439, 7.030990007031505]",2017_Feb_08_1512,60.0299630656,famFaceFilter,001,15,
24,./img/edges5_JasonSegel(Marshall)7_1.png,0,71,71,23,,,2.nein,1.717,None,None,None,host,1.372,None,None,None,,['return'],[0.7001422984358214],2017_Feb_08_1512,60.0299630656,famFaceFilter,001,15,
35,./img/gray_JoachimLoew4_1.png,0,0,0,34,,,1.ja,1.167,None,None,None,None,None,sport,1.322,None,Jogi Löw,"['lshift', 'j', 'o', 'g', 'i', 'space', 'lshift', 'l', u'\xf6', 'w', 'return']","[1.083115309207642, 1.2665314467994904, 1.4664665207346843, 1.5831284612286254, 1.7164585012105817, 1.9496268034308741, 2.0326006482355297, 2.182831674683257, 2.649034834248596, 3.0658714078963385, 3.4657088361054775]",2017_Feb_08_1512,60.0299630656,famFaceFilter,001,15,
9,./img/gray_RobertSeanLeonard(Wilson)8_1.png,0,1,1,8,,,2.nein,1.073,None,None,None,music,1.023,None,None,None,,"['num_3', 'return']","[0.3669362082146108, 0.733415945123852]",2017_Feb_08_1512,60.0299630656,famFaceFilter,001,15,
11,./img/gray_EmilyDeschanel6_12.png,0,2,2,10,,,2.nein,2.039,None,None,None,music,1.105,None,None,None,,['return'],[0.7002237767992483],2017_Feb_08_1512,60.0299630656,famFaceFilter,001,15,
18,./img/gray_JasonSegel(Marshall)7_1.png,0,3,3,17,,,2.nein,1.639,None,act,1.099,None,None,None,None,None,,['return'],[0.38383334530954016],2017_Feb_08_1512,60.0299630656,famFaceFilter,001,15,
4,./img/gray_AngelaMerkel1_1.png,0,4,4,3,,,1.ja,1.156,None,None,None,None,None,polit,0.805,None,Angela Merkel,"['lshift', 'a', 'n', 'g', 'e', 'l', 'a', 'space', 'lshift', 'm', 'e', 'r', 'k', 'e', 'l', 'return']","[0.45035497621211107, 0.6169795136447647, 0.9835991110521718, 1.1331520065505174, 1.3000078270561062, 1.4166518038182403, 1.866450866622472, 1.9665095053824189, 2.1496375816714135, 2.282940355271421, 2.4829767959890887, 2.6495349317665386, 2.718607412865822, 2.866082930861012, 3.1490303433129156, 3.4659006631191005]",2017_Feb_08_1512,60.0299630656,famFaceFilter,001,15,
63,./img/gray_JoshRadnor(Ted)3_1.png,0,5,5,62,,,1.ja,1.722,None,act,1.272,None,None,None,None,None,Ted Mosby ,"['lshift', 't', 'e', 'd', 'space', 'lshift', 'comma', 'lshift', 'comma', 'lshift', 'm', 'p', 's', 'backspace', 'backspace', 'p', 's', 'backspace', 'backspace', 'o', 's', 'b', 'y', 'space', 'return']","[0.3835414346358448, 0.8335034541705681, 1.0164640827970288, 1.1999491882961593, 1.3000248284479312, 1.49972765696657, 1.5499417461796838, 2.049757297125325, 2.216098264190805, 2.7327878560026875, 3.015904640804365, 3.3324843330592557, 3.465031988278497, 3.8655045627892832, 4.0317768827299005, 4.248379414588271, 4.315455034207844, 4.648659841303015, 4.815177558677533, 5.081141223177838, 5.164965137526451, 5.431692581492825, 5.631615465750656, 5.864540936785488, 6.2643235114483105]",2017_Feb_08_1512,60.0299630656,famFaceFilter,001,15,
70,./img/gray_WillSmith5_1.png,0,6,6,69,,,1.ja,1.619,None,dummy,0.456,None,None,None,None,None,Will Smith,"['lshift', 'w', 'i', 'l', 'l', 'space', 'lshift', 's', 'm', 'i', 't', 'h', 'return']","[1.016615812190139, 1.0834165225278412, 1.2671560073285946, 1.4491292721613718, 1.5998867001653707, 1.8162127188370505, 1.841244540308253, 1.9496293696756766, 2.1163324984445353, 2.299292164731014, 2.416204314373317, 2.5827669410828094, 3.1491615427257784]",2017_Feb_08_1512,60.0299630656,famFaceFilter,001,15,
43,./img/gray_LisaEdelstein(DrLisaCuddy)6_3.png,0,7,7,42,,,2.nein,1.439,None,None,None,host,0.655,None,None,None,,['return'],[0.48380344852557755],2017_Feb_08_1512,60.0299630656,famFaceFilter,001,15,
49,./img/gray_NeilPatrickHarris(Barney)1_1.png,0,8,8,48,,,1.ja,2.021,None,act,1.506,None,None,None,None,None,Der Blonde aus How I met your Mother,"['lshift', 'd', 'e', 'r', 'space', 'lshift', 'b', 'l', 'i', 'backspace', 'o', 'n', 'd', 'e', 'space', 'a', 'u', 's', 'space', 'lshift', 'h', 'w', 'backspace', 'o', 'w', 'space', 'lshift', 'i', 'space', 'm', 'e', 't', 'space', 'y', 'o', 'u', 'r', 'space', 'lshift', 'm', 'o', 't', 'h', 'e', 'r', 'return']","[0.366864353280107, 0.5503032663182239, 0.7501498047058703, 0.9164872431829281, 1.0334401320069446, 1.1999158270737098, 1.749637517514202, 1.999515620747843, 2.2327548155626573, 2.815937809551542, 3.1158747440167645, 3.449113553891948, 3.6155982308264356, 3.732181900766591, 3.882167850559199, 4.065664183392073, 4.1319394545171235, 4.282072001209599, 4.448712898472877, 4.5317185005915235, 4.781877287165116, 5.048342653088184, 5.3647946745222725, 5.614834130577947, 5.748065690808289, 5.931468034817954, 6.047913448161125, 6.214653787523275, 6.49763584432003, 6.697761782925227, 6.814322356636694, 6.997424770448561, 7.18090410188961, 7.76392189368562, 7.9472039448337455, 8.213802434853278, 8.347195027123234, 8.513305031898199, 8.713469464219088, 8.846953158277756, 9.06353868874794, 9.462600789374846, 9.579357681035617, 9.712527651317941, 9.879846358748182, 10.012577821460582]",2017_Feb_08_1512,60.0299630656,famFaceFilter,001,15,
55,./img/gray_Ice-T(OdafinFinTutuola)6_1.png,0,9,9,54,,,1.ja,27.642,None,None,None,music,1.101,None,None,None,,['return'],[0.36680244255330763],2017_Feb_08_1512,60.0299630656,famFaceFilter,001,15,
58,./img/gray_GeorgeClooney3_1.png,0,10,10,57,,,1.ja,1.023,None,act,0.623,None,None,None,None,None,George Clooney,"['lshift', 'g', 'e', 'p', 'r', 'g', 'e', 'backspace', 'backspace', 'backspace', 'backspace', 'o', 'r', 'g', 'e', 'space', 'lshift', 'c', 'l', 'o', 'o', 'm', 'e', 'backspace', 'backspace', 'n', 'e', 'y', 'return']","[1.1165711594803724, 1.5162600661060424, 1.749706485421484, 2.5994677602320735, 2.699265283288696, 2.9491799555507896, 3.1159225403789605, 3.49877365438806, 3.6823412005942373, 3.8154123703388905, 3.965324540513393, 4.465104484774201, 4.664980214231036, 4.881885242535645, 5.048376655871834, 5.198053693598922, 5.3149693718332855, 5.514867235175188, 5.69799114131456, 5.898450050553947, 6.131421714049793, 6.381231170158571, 6.447873735480243, 6.814479218526685, 6.964354819669097, 7.430579150775884, 7.497297099627758, 7.730566447851743, 8.147177191702212]",2017_Feb_08_1512,60.0299630656,famFaceFilter,001,15,
21,./img/gray_HughLaurie(DrHouse)4_1.png,0,11,11,20,,,1.ja,2.715,None,dummy,0.505,None,None,None,None,None,,['return'],[0.3501458911814552],2017_Feb_08_1512,60.0299630656,famFaceFilter,001,15,
14,./img/gray_JoshRadnor(Ted)6_2.png,0,12,12,13,,,2.nein,1.289,None,None,None,music,0.839,None,None,None,,['return'],[0.3003180222440278],2017_Feb_08_1512,60.0299630656,famFaceFilter,001,15,
8,./img/gray_BastianSchweinsteiger6_2.png,0,13,13,7,,,1.ja,0.839,None,None,None,None,None,sport,1.089,None,Bastian Schweinsteiger,"['lshift', 'b', 'a', 's', 't', 'i', 'a', 'n', 'space', 'lshift', 's', 'c', 'h', 'w', 'e', 'i', 'n', 's', 't', 'e', 'i', 'g', 'e', 'r', 'return']","[0.6000910376351385, 0.9327922186239448, 1.13263651154557, 1.299278371152468, 1.5490307282489084, 1.683173947967589, 2.0328328936484468, 2.1662755277502583, 2.349554371088743, 2.416127647724352, 2.5326885422182386, 2.7493812135253393, 2.849357090799458, 2.965796088526986, 3.0992162679576722, 3.1658992516822764, 3.3992029234686925, 3.6324036245678144, 3.832324584138405, 4.032561512958637, 4.132240667840961, 4.248735802233568, 4.398733300142339, 4.5486396962587605, 4.715225098414521]",2017_Feb_08_1512,60.0299630656,famFaceFilter,001,15,
44,./img/gray_BritneySpears5_1.png,0,14,14,43,,,1.ja,1.749,None,None,None,music,0.622,None,None,None,Britney Spears,"['lshift', 'b', 'r', 'i', 't', 'n', 'e', 'y', 'space', 'lshift', 's', 'p', 'e', 'a', 'r', 's', 'return']","[0.5835692142682092, 0.7668124509218615, 1.0000757043089834, 1.1855361789603194, 1.3832774319052987, 1.9662900912044279, 2.08298475135598, 2.2995821507211076, 2.7827395463900757, 2.8159509615725256, 2.9659019462415017, 3.149193941604608, 3.2326127095984702, 3.482445903500775, 3.6989380867089494, 3.915642306132213, 4.048935135524516]",2017_Feb_08_1512,60.0299630656,famFaceFilter,001,15,
15,./img/gray_GeorgeClooney11_1.png,0,15,15,14,,,1.ja,0.899,None,None,None,music,1.205,None,None,None,George Clooney Schauspieler habe mich vertippt,"['lshift', 'g', 'e', 'o', 'r', 'g', 'e', 'space', 'lshift', 'c', 'l', 'o', 'o', 'e', 'n', 'backspace', 'backspace', 'n', 'e', 'y', 'space', 'lshift', 's', 'c', 'h', 'a', 'u', 's', 'p', 'i', 'e', 'l', 'e', 'r', 'space', 'h', 'a', 'b', 'e', 'space', 'comma', 'i', 'c', 'h', 'backspace', 'backspace', 'backspace', 'm', 'i', 'c', 'h', 'space', 'v', 'e', 'r', 't', 'i', 'p', 'p', 't', 'return']","[1.616356557020481, 1.966236200001731, 2.1328565672847617, 2.3161354106268845, 2.5159116979848477, 2.716068752342835, 2.8992815148048976, 3.0156294107364374, 3.199199523191055, 3.3323868156476237, 3.499845062797249, 3.698992940251628, 3.865478900312155, 3.965518612993037, 4.132127752942324, 4.448670876168762, 4.598362028260453, 4.848496435482957, 4.948402703284955, 5.16501902872551, 5.498196890221152, 5.648200482966786, 5.76475047090571, 5.9646095197531395, 6.03131271267921, 6.2144209005491575, 6.36463652950988, 6.8643632241291925, 7.014319662077469, 7.230890115839429, 7.347405780215922, 7.464022169813688, 7.580687959678471, 7.730715290217631, 7.813945759789931, 9.030168166209478, 9.1466469407751, 9.246716165307589, 9.346636226691771, 9.446559495885595, 9.879702328100393, 10.096501819469268, 10.196293889250228, 10.396177638231165, 10.712722365362424, 10.862875442035147, 11.04609269543289, 11.578867527729017, 11.77916540492879, 11.895679144618043, 11.978981469124847, 12.162266407303832, 12.262277570480364, 12.445543582583923, 12.611974368319352, 12.811873194004875, 12.995265273024415, 13.245200475270394, 13.42848605501058, 13.661743855118402, 13.82820190723578]",2017_Feb_08_1512,60.0299630656,famFaceFilter,001,15,
24,./img/gray_JoachimLoew1_1.png,0,16,16,23,,,1.ja,1.6,None,None,None,None,None,sport,1.655,None,Jogi Löw,"['lshift', 'j', 'o', 'g', 'i', 'space', 'lshift', 'l', u'\xf6', 'w', 'return']","[0.5166838177538011, 0.9169398651174561, 1.1165214384309365, 1.1999863988858124, 1.3334165225278412, 1.5831701627503207, 1.699882145072479, 2.3326854627193825, 2.5162292711320333, 2.699497207919194, 2.9160002976823307]",2017_Feb_08_1512,60.0299630656,famFaceFilter,001,15,
51,./img/gray_AlysonHannigan(Lily)1_1.png,0,17,17,50,,,1.ja,1.372,None,act,1.322,None,None,None,None,None,Lilly aus How I met your Mother,"['lshift', 'l', 'i', 'l', 'l', 'y', 'space', 'a', 'u', 's', 'space', 'lshift', 'lshift', 'h', 'o', 'w', 'space', 'lshift', 'i', 'space', 'm', 'e', 't', 'space', 'y', 'o', 'u', 'r', 'space', 'lshift', 'm', 'o', 't', 'h', 'e', 'r', 'return']","[0.8833903468039352, 1.150061012536753, 1.316639357512031, 1.4996853138763981, 1.7164030061030644, 1.9996333473609411, 2.133115758300846, 2.316146317178209, 2.416042961551284, 2.5661504873314698, 2.715942685423215, 2.849319880206167, 3.032549964842474, 3.1825067235695315, 3.415682724531507, 3.4990382986798068, 3.7155891848051397, 3.865119625635998, 4.065554155524296, 4.315224071917328, 4.498781673912163, 4.598492906890897, 4.7985559724293125, 4.881771365293389, 5.148316926457483, 5.264986244910688, 5.464749701030087, 5.549545902471436, 5.748144923705695, 5.881174391928653, 5.948070374208328, 6.181348062738834, 6.2646330650750315, 6.447962591806572, 6.531357622010546, 6.681240921898279, 6.8142633329407545]",2017_Feb_08_1512,60.0299630656,famFaceFilter,001,15,
42,./img/gray_NicoleKidman5_1.png,0,18,18,41,,,1.ja,1.218,None,act,1.123,None,None,None,None,None,Nicole Kidman,"['lshift', 'n', 'i', 'c', 'o', 'l', 'e', 'space', 'lshift', 'k', 'i', 'd', 'm', 'a', 'n', 'return']","[0.6003091686907283, 0.8669378121194313, 1.0999694616511988, 1.3166707940472406, 1.4668578735036135, 1.8498812468897086, 1.9830643691893783, 2.133074377557932, 2.3161289950039645, 2.4328319954620383, 2.6161810898338445, 2.6827771419193596, 2.899402770006418, 3.0326388211688027, 3.099337843941612, 3.3659065013307554]",2017_Feb_08_1512,60.0299630656,famFaceFilter,001,15,
64,./img/gray_LisaEdelstein(DrLisaCuddy)2_2.png,0,19,19,63,,,2.nein,1.355,None,None,None,host,0.404,None,None,None,,['return'],[0.4502000390057219],2017_Feb_08_1512,60.0299630656,famFaceFilter,001,15,
60,./img/gray_EmilyDeschanel3_1.png,0,20,20,59,,,2.nein,0.989,None,None,None,music,0.673,None,None,None,,['return'],[0.5168037898365583],2017_Feb_08_1512,60.0299630656,famFaceFilter,001,15,
17,./img/gray_JasonSegel(Marshall)6_1.png,0,21,21,16,,,2.nein,1.139,None,None,None,host,0.805,None,None,None,,['return'],[0.46688513988556224],2017_Feb_08_1512,60.0299630656,famFaceFilter,001,15,
5,./img/gray_OmarEpps(DrEricForeman)2_2.png,0,22,22,4,,,1.ja,1.356,None,None,None,music,0.839,None,None,None,,['return'],[0.43340138166604447],2017_Feb_08_1512,60.0299630656,famFaceFilter,001,15,
28,./img/gray_GeorgeClooney4_2.png,0,23,23,27,,,1.ja,1.039,None,act,1.422,None,None,None,None,None,George Clooney,"['lshift', 'g', 'e', 'o', 'r', 'g', 'e', 'space', 'lshift', 'c', 'l', 'o', 'o', 'n', 'w', 'less', 'backspace', 'w', 'backspace', 'e', 'y', 'less', 'return']","[0.5834373732941458, 0.9499068452096253, 1.1331289103218296, 1.3497596709057689, 1.4830675770026573, 1.6831425114323793, 1.8662413966558233, 1.9996705579542322, 2.199517417124298, 2.3994194506194617, 2.615767282397428, 3.0155889923371433, 3.1991764269623673, 3.7655492154990498, 4.232113895206567, 4.498815997474594, 5.131670319293335, 5.398234485750436, 5.864721857247787, 5.9813526819853, 6.331322143640136, 6.8643282590091985]",2017_Feb_08_1512,60.0299630656,famFaceFilter,001,15,
66,./img/gray_NeilPatrickHarris(Barney)3_7.png,0,24,24,65,,,1.ja,1.781,None,act,1.321,None,None,None,None,None,Der Blonde aus How I met your Mother,"['lshift', 'd', 'e', 'r', 'space', 'lshift', 'b', 'l', 'o', 'n', 'd', 'e', 'space', 'a', 'u', 's', 'space', 'lshift', 'h', 'o', 'w', 'space', 'lshift', 'i', 'space', 'm', 'e', 't', 'space', 'lshift', 'y', 'backspace', 'y', 'o', 'u', 'r', 'space', 'lshift', 'm', 't', 'o', 'backspace', 'backspace', 'o', 't', 'h', 'e', 'r', 'return']","[0.5001289539468416, 0.7834372449797229, 0.9996622176477103, 1.1167325123060436, 1.200034836812847, 1.3997832162276609, 2.31605649850826, 2.5492312163514725, 2.766022046635044, 2.9825216078061203, 3.0656837510323385, 3.199233525974705, 3.2990724297742418, 3.4654544568038546, 3.5489409095825977, 3.6990041675853718, 3.8322594656056026, 3.932190433541109, 4.198690764587809, 4.581893454527744, 4.716351039587607, 4.8985097158147255, 4.998197852564772, 5.115015371822665, 5.364935176585277, 5.747914923755161, 5.831433775412734, 6.064618116681231, 6.230884983346186, 6.497729191582039, 6.647811054881458, 7.230811845285643, 7.397300050812191, 7.464038850423094, 7.730679683529161, 7.830704640287877, 8.047235958776582, 8.197080444166204, 8.263781391626253, 8.613614842150128, 8.66333653259062, 9.113270964960975, 9.263500387503882, 9.46329335547125, 9.596610884997062, 9.77996222483489, 9.879825187206734, 10.046523504261131, 10.19636349871871]",2017_Feb_08_1512,60.0299630656,famFaceFilter,001,15,
31,./img/gray_AngelaMerkel3_1.png,0,25,25,30,,,1.ja,1.267,None,None,None,None,None,polit,0.772,None,Angela Merkel,"['lshift', 'a', 'm', 'g', 'backspace', 'backspace', 'n', 'g', 'e', 'l', 'a', 'space', 'lshift', 'm', 'e', 'r', 'k', 'e', 'l', 'return']","[0.28395626857309253, 0.4672437729968806, 0.6172986907004088, 0.8671331677251146, 1.2000967475360085, 1.3502437293718685, 1.8001101561821997, 1.9999111436736712, 2.18341549602701, 2.2666851008762023, 2.516366886164178, 2.63312409860373, 2.982896600748063, 3.1327898448435008, 3.2827838141602115, 3.4492168453616614, 3.4993000559443317, 3.649264834191854, 3.765941530611599, 4.03220031359524]",2017_Feb_08_1512,60.0299630656,famFaceFilter,001,15,
34,./img/gray_RobertSeanLeonard(Wilson)2_6.png,0,26,26,33,,,2.nein,1.298,None,None,None,music,0.755,None,None,None,,"['return', 'num_decimal']","[0.3669593044432986, 0.3836164973799896]",2017_Feb_08_1512,60.0299630656,famFaceFilter,001,15,
2,./img/gray_BastianSchweinsteiger1_1.png,0,27,27,1,,,1.ja,1.072,None,None,None,None,None,sport,1.305,None,Bastian Schweinsteiger,"['lshift', 'b', 'a', 's', 't', 'i', 'a', 'n', 'lshift', 'space', 's', 'c', 'h', 'w', 'e', 'i', 'n', 's', 't', 'e', 'i', 'g', 'e', 'r', 'return']","[0.4502497600587958, 0.9664591427717824, 1.1166038791416213, 1.749627894088917, 1.966096339507203, 2.132968199060997, 2.432637602203613, 2.599397188419971, 2.9822534349259513, 2.9992063879071793, 3.182415942559601, 3.3990441368950997, 3.4489627868424577, 3.6157233354060736, 3.7656505822815234, 3.882236818470119, 4.098792195527494, 4.39867876738208, 4.598312948775856, 4.781871833893092, 4.881819803220424, 4.981725429464859, 5.148164555503172, 5.29827015659248, 5.414435848942958]",2017_Feb_08_1512,60.0299630656,famFaceFilter,001,15,
46,./img/gray_GuentherJauch3_1.png,0,28,28,45,,,1.ja,1.333,None,None,None,None,None,polit,0.738,None,Günther Jauch Moderator nicht Politiker,"['lshift', 'g', u'\xfc', 'n', 't', 'e', 'r', 'space', 'backspace', 'backspace', 'backspace', 'h', 'e', 'r', 'space', 'lshift', 'j', 'a', 'u', 'c', 'h', 'space', 'lshift', 'm', 'o', 'd', 'e', 'r', 'a', 't', 'o', 'r', 'space', 'n', 'i', 'c', 'h', 't', 'space', 'lshift', 'p', 'o', 'l', 'i', 't', 'i', 'k', 'e', 'r', 'return']","[1.2666177368773788, 1.6499577210670395, 1.9164423338479537, 2.21608030045536, 2.2829044278041692, 2.466025446912681, 2.599474496630137, 2.682882358072675, 3.183520712183963, 3.3325327709826524, 3.4824115799347055, 3.7657060773854028, 3.8822310444120376, 4.032292056948791, 4.09890094027287, 4.44865740336536, 4.83197268742515, 5.281769504763361, 5.41483490045357, 5.631498059916339, 5.681528662418714, 5.897969841455051, 6.0980746085188, 6.248130809341092, 6.96457519618707, 7.081064877307654, 7.247733682514081, 7.397615699275775, 7.614083182350441, 7.847241540363029, 8.513896231208491, 8.630478297243826, 8.780370258213225, 8.963692406985501, 9.130286470226565, 9.230157772904931, 9.363485888203286, 9.446599593506107, 9.563319595352368, 9.81329649912368, 10.329725616797077, 10.629651323924918, 10.912940047321172, 11.045862374703574, 11.179278383981, 11.762132256706536, 11.879131979552767, 12.012253191129275, 12.212376563486032]",2017_Feb_08_1512,60.0299630656,famFaceFilter,001,15,
54,./img/gray_LeonardoDiCaprio3_1.png,0,29,29,53,,,1.ja,0.934,None,dummy,2.272,None,None,None,None,None,Leonardo Di Caprio,"['lshift', 'l', 'e', 'o', 'n', 'a', 'r', 'd', 'o', 'space', 'lshift', 'd', 'i', 'space', 'lshift', 'c', 'a', 'p', 'r', 'i', 'o', 'return']","[0.8002051073453913, 1.0667192319742753, 1.2332555546418007, 1.4162043143769552, 1.8828719647717662, 1.9996006277033302, 2.1829182855399267, 2.3827555212810694, 2.46617236459133, 2.732760910403158, 2.865878593387606, 2.999322831394238, 3.132614377660502, 3.3657223730624537, 3.5157769699799246, 4.115304395469138, 4.41487082792446, 4.781877928729955, 4.881823652591265, 5.664659754049353, 5.814757014839415, 6.064916122195427]",2017_Feb_08_1512,60.0299630656,famFaceFilter,001,15,
