num,pic,trials.thisRepN,trials.thisTrialN,trials.thisN,trials.thisIndex,key_resp_2.keys,key_resp_2.rt,ratingBekannt.response,ratingBekannt.rt,key_resp_5.keys,ratingK1.response,ratingK1.rt,ratingK2.response,ratingK2.rt,ratingK3.response,ratingK3.rt,key_resp_6.keys,inputText,key_resp_4.keys,key_resp_4.rt,date,frameRate,expName,session,participant,
,,,,,,space,22.905689247,,,,,,,,,,,,,,2017_Feb_09_1301,60.0478077213,famFaceFilter,001,16,
33,./img/smoo15_Ice-T(OdafinFinTutuola)7_1.png,0,0,0,32,,,2.nein,24.167,None,act,3.698,None,None,None,None,None,,['return'],[0.8834705176650459],2017_Feb_09_1301,60.0478077213,famFaceFilter,001,16,
12,./img/smoo15_MariskaHargitay(Liv)8_8.png,0,1,1,11,,,1.ja,7.616,None,act,4.068,None,None,None,None,None,Selena Gomez,"['lshift', 's', 'e', 'l', 'e', 'n', 'a', 'space', 'lshift', 'g', 'o', 'm', 'e', 'z', 'return']","[0.733388078756434, 0.8167508163696766, 1.0832953750809793, 1.1667014171794108, 1.266657471146118, 1.3332799779304878, 1.5164322878240455, 1.8164319670499935, 1.999602561058964, 2.1662276340352946, 2.332833460573511, 2.482674035913533, 2.5824818923097155, 3.6656261828538845, 4.232051413650879]",2017_Feb_09_1301,60.0478077213,famFaceFilter,001,16,
19,./img/smoo15_NicoleKidman7_1.png,0,2,2,18,,,1.ja,1.503,None,act,3.556,None,None,None,None,None,Nicole Kidman,"['lshift', 'n', 'i', 'c', 'o', 'l', 'e', 'space', 'lshift', 'k', 'i', 'd', 'm', 'a', 'n', 'return']","[0.733381342503435, 0.9165496910950424, 1.5165121605409695, 1.7830041123224873, 1.9329592039675845, 2.082826724320512, 2.2328857467300622, 2.399353640463687, 2.599185554906853, 2.7492490681520394, 2.9157330005841686, 3.032419662160919, 3.149114663860928, 3.2488346281911618, 3.3656605056680746, 3.6156091818343157]",2017_Feb_09_1301,60.0478077213,famFaceFilter,001,16,
65,./img/smoo15_UrsulavonderLeyen4_1.png,0,3,3,64,,,1.ja,1.731,None,None,None,None,None,polit,0.824,None,Ursula von der Leyen,"['lshift', 'u', 'r', 's', 'u', 'l', 'a', 'space', 'v', 'o', 'n', 'space', 'd', 'e', 'r', 'space', 'lshift', 'l', 'e', 'c', 'backspace', 'y', 'e', 'n', 'return']","[0.8669532247408824, 0.9501331211949946, 1.033224484035145, 1.5499053716807794, 1.6832321826104817, 1.8662956381158438, 1.966328677834099, 2.1164707806997285, 2.5161743855578607, 2.5828061947868264, 2.665961712420085, 2.8161009283198837, 2.866082002656185, 3.032772192746961, 3.132536103109942, 3.165796513828809, 3.1991271740457705, 3.349179460201867, 3.4323988118535453, 3.932176194722615, 4.3985651780617445, 4.465327221520511, 4.631938821989934, 4.698506476426701, 5.03184323134883]",2017_Feb_09_1301,60.0478077213,famFaceFilter,001,16,
16,./img/smoo15_WillSmith4_1.png,0,4,4,15,,,1.ja,1.352,None,act,3.723,None,None,None,None,None,Will Smith,"['lshift', 'w', 'i', 'l', 'l', 'space', 'lshift', 's', 'm', 'i', 't', 'h', 'return']","[0.5667068703364748, 0.6342291480882523, 0.783467630699306, 0.9332151815901852, 1.0499111456119863, 1.1667273998700693, 1.249803365560183, 1.3165131228629434, 1.4664704599254037, 1.6664845739801422, 1.7828790104763357, 1.8663190546149053, 2.7492904479927347]",2017_Feb_09_1301,60.0478077213,famFaceFilter,001,16,
56,./img/smoo15_MariskaHargitay(Liv)6_5.png,0,5,5,55,,,2.nein,4.491,None,act,0.934,None,None,None,None,None,,['return'],[0.5668348591484573],2017_Feb_09_1301,60.0478077213,famFaceFilter,001,16,
14,./img/smoo15_BritneySpears7_1.png,0,6,6,13,,,1.ja,1.611,None,None,None,music,0.574,None,None,None,Britney Spears,"['lshift', 'b', 'r', 'i', 't', 'n', 'e', 'y', 'space', 'lshift', 's', 'p', 'e', 'a', 'r', 's', 'return']","[1.1831702732351914, 1.266492593329076, 1.4496166751137025, 1.5498434623059438, 1.81576636107593, 2.1494428156256618, 2.2827234351043444, 2.46608970123134, 2.632533216144111, 2.7326733943659747, 2.7993299031904826, 3.032532895369968, 3.132346846471137, 3.4655315545351186, 3.6988509876632634, 3.8320703393146687, 4.098641522265098]",2017_Feb_09_1301,60.0478077213,famFaceFilter,001,16,
69,./img/smoo15_BritneySpears5_1.png,0,7,7,68,,,1.ja,1.273,None,None,None,music,1.54,None,None,None,Britney Spears,"['lshift', 'b', 'r', 't', 'backspace', 'i', 't', 'n', 'e', 'y', 'space', 'lshift', 's', 'o', 'backspace', 'p', 'a', 'r', 's', 'backspace', 'backspace', 'backspace', 'e', 'r', 'a', 's', 'backspace', 'backspace', 'backspace', 'a', 'r', 's', 'return']","[0.7336642651389411, 0.8168727104757636, 1.000368569283637, 1.2335074066704692, 1.6335420502587112, 2.199764231136669, 2.36645602509725, 2.51634022569624, 2.633069229436842, 2.8995445009718424, 3.216084568847691, 3.316019130958921, 3.3662055006316223, 3.8659953936858074, 4.44893021883172, 4.8820745093762525, 4.9819221417433255, 5.098816985622761, 5.265018316193164, 5.864998748981179, 6.014918876264346, 6.14823413933118, 6.2649464628252645, 6.4313912608340615, 6.514617348738739, 6.69798169022215, 7.131181153888065, 7.264557043233708, 7.414303952576574, 7.897523945776356, 8.147289780783012, 8.39727310053695, 8.980395257677628]",2017_Feb_09_1301,60.0478077213,famFaceFilter,001,16,
61,./img/smoo15_OmarEpps(DrEricForeman)3_1.png,0,8,8,60,,,1.ja,1.418,None,act,0.875,None,None,None,None,None,Darsteller aus Dr House,"['lshift', 'd', 'r', 'a', 's', 'backspace', 'backspace', 'backspace', 'a', 'r', 's', 't', 'e', 'l', 'l', 'e', 'r', 'space', 'a', 'u', 's', 'space', 'lshift', 'd', 'r', 'period', 'space', 'lshift', 'h', 'o', 'u', 's', 'e', 'return']","[1.632944127591145, 1.6997847606703544, 1.8995499541292702, 1.9495858808131743, 2.216171819365627, 2.4994556465840105, 2.6326461285789264, 2.7492882025753715, 2.9158731788056684, 3.0159058977501445, 3.232294881089274, 3.382302258890377, 3.4823269584853733, 3.5654914577894488, 3.6821890256810548, 3.76556844354036, 3.848821155684618, 3.9488651017172742, 4.065282954712984, 4.165493061659163, 4.248708564023218, 4.315197308064853, 4.698438151572191, 4.765070602349169, 4.915023448576903, 5.0649435758596155, 5.4649358772849155, 5.564471396585759, 5.5980981311709, 5.7644906430236915, 5.898000615885849, 6.014439319189478, 6.064442206155036, 6.281107055102439]",2017_Feb_09_1301,60.0478077213,famFaceFilter,001,16,
24,./img/smoo15_BastianSchweinsteiger1_1.png,0,9,9,23,,,1.ja,1.148,None,None,None,None,None,sport,2.207,None,Bastian Schweinsteiger,"['lshift', 'b', 'a', 's', 't', 'i', 'a', 'n', 'space', 'lshift', 's', 'c', 'h', 'w', 'e', 'i', 'n', 's', 't', 'e', 'i', 'g', 'e', 'r', 'return']","[0.7499788289183016, 0.8167723082251541, 0.9833393211138173, 1.0664419110430572, 1.3166209029145648, 1.4498354429565552, 1.5831385166129621, 1.716288901862299, 1.83290531394141, 1.932778929000051, 1.9995637474098658, 2.0662324456448005, 2.2161490444141236, 2.3160274710821795, 2.4159562592622024, 2.4659806380836926, 2.615810948656872, 3.0325521418076278, 3.132256388213591, 3.232338185574008, 3.3156701288867225, 3.482017411610741, 3.582214687598025, 3.665445907886351, 3.848588273786845]",2017_Feb_09_1301,60.0478077213,famFaceFilter,001,16,
9,./img/smoo15_EmilyDeschanel6_12.png,0,10,10,8,,,1.ja,1.384,None,act,2.473,None,None,None,None,None,Nicole Kidman,"['lshift', 'n', 'i', 'c', 'o', 'l', 'e', 'space', 'lshift', 'k', 'i', 'd', 'm', 'a', 'n', 'return']","[2.982330807772996, 3.065917766386974, 3.2656951492563167, 3.3988859520250116, 3.5323927171480136, 3.6990197147679282, 3.7987736811378454, 3.9488060793082695, 4.032352620402435, 4.131663277154985, 4.38182398491108, 4.5315631956787, 4.681747319933493, 4.781816927883483, 4.898384261546198, 5.164873326361885]",2017_Feb_09_1301,60.0478077213,famFaceFilter,001,16,
8,./img/smoo15_AngelaMerkel4_1.png,0,11,11,7,,,1.ja,2.057,None,None,None,None,None,polit,1.94,None,Angela Merkel,"['lshift', 'a', 'n', 'g', 'e', 'l', 'a', 'space', 'lshift', 'm', 'e', 'r', 'k', 'e', 'l', 'return']","[0.7168531432639611, 0.8003464358803285, 0.9003499643940813, 1.0169086371597587, 1.0668682196405825, 1.116858917195259, 1.250076664977314, 1.3833207162242616, 1.499954770871227, 1.6664592328370418, 1.7831709147831134, 1.86644960961803, 1.9331805380020342, 2.066415286803931, 2.1996195620795334, 2.516280882513456]",2017_Feb_09_1301,60.0478077213,famFaceFilter,001,16,
60,./img/smoo15_LeonardoDiCaprio2_1.png,0,12,12,59,,,1.ja,1.44,None,act,4.573,None,None,None,None,None,Leonardo diCaprio,"['lshift', 'l', 'e', 'o', 'n', 'a', 'r', 'd', 'o', 'space', 'd', 'i', 'lshift', 'c', 'p', 'backspace', 'a', 'p', 'r', 'i', 'o', 'return']","[1.2164993295823479, 1.2665301238826032, 1.4332488628560895, 1.582948297652365, 2.2661150423741674, 2.332537065431552, 2.432708358727723, 2.8489632585501568, 3.0158709333877596, 4.515186401749816, 4.748436547702113, 4.898370789039745, 5.248147851134945, 5.314814624726296, 5.531285726200167, 6.864179813052942, 7.030834718007554, 7.5305501915017885, 7.847074541453367, 8.03018226376571, 8.1303997485129, 8.396991460997015]",2017_Feb_09_1301,60.0478077213,famFaceFilter,001,16,
41,./img/smoo15_AngelaMerkel3_1.png,0,13,13,40,,,1.ja,1.037,None,None,None,None,None,polit,1.291,None,Angela Merkel,"['lshift', 'a', 'n', 'g', 'e', 'l', 'a', 'space', 'lshift', 'm', 'e', 'r', 'k', 'e', 'l', 'return']","[0.5502543737529777, 0.6167841768619837, 0.7498271028339332, 0.8164547420014969, 0.8833636999352166, 0.9333428496274792, 1.0665086320273076, 1.1999217311531538, 1.3163800016682217, 1.3998530855246827, 1.5330849473612034, 1.5830942498059812, 1.6496837168720049, 1.7830047538700455, 1.866408871324893, 2.116167328530537]",2017_Feb_09_1301,60.0478077213,famFaceFilter,001,16,
67,./img/smoo15_GeorgeClooney4_2.png,0,14,14,66,,,1.ja,1.941,None,act,0.458,None,None,None,None,None,George Clooney,"['lshift', 'g', 'e', 'o', 'r', 'g', 'e', 'space', 'lshift', 'c', 'l', 'o', 'o', 'n', 'e', 'y', 'return']","[0.8175578836617206, 0.9000420213892539, 1.0167623642323633, 1.1499515631312534, 1.249995188390585, 1.44975428714406, 1.5330592854438692, 1.6997982331768071, 1.7993712830316326, 2.0662828071567674, 2.2492622198838035, 2.516089059683054, 2.6326971316389063, 2.8658295535465186, 2.982540593945032, 3.182499534877479, 3.5321710623388753]",2017_Feb_09_1301,60.0478077213,famFaceFilter,001,16,
36,./img/smoo15_BastianSchweinsteiger6_2.png,0,15,15,35,,,1.ja,1.354,None,None,None,None,None,sport,4.007,None,Bastian Schweinsteiger,"['lshift', 'b', 'a', 's', 't', 'i', 'a', 'n', 'space', 'lshift', 's', 'c', 'h', 'w', 'e', 'i', 'n', 's', 't', 'e', 'i', 'g', 'e', 'r', 'return']","[0.7000580600874855, 0.783385191790785, 0.8834907264249523, 0.9833290563474293, 1.1497700050686035, 1.2332395604116755, 1.2996686404958382, 1.416487781719752, 1.54983512218314, 1.599631751490051, 1.7161997267007791, 1.7996198828536762, 1.9663325271217218, 2.049605448024977, 2.116040302040801, 2.182936429016081, 2.3162218601041786, 2.665964920159695, 2.7992930141849683, 2.8654513610440517, 2.9323564696901485, 3.0324417955644094, 3.1491326272030165, 3.2324280022839957, 3.3486909214552725]",2017_Feb_09_1301,60.0478077213,famFaceFilter,001,16,
63,./img/smoo15_RobertSeanLeonard(Wilson)8_1.png,0,16,16,62,,,1.ja,1.358,None,act,0.691,None,None,None,None,None,Darsteller aus Dr House,"['lshift', 'd', 'a', 'r', 's', 't', 'e', 'l', 'l', 'e', 'r', 'space', 'a', 'u', 's', 'space', 'lshift', 'd', 'r', 'space', 'lshift', 'h', 'o', 'u', 's', 'e', 'return']","[0.866767175842142, 0.9501145163048932, 1.0666061473120863, 1.2499085794206621, 1.4332956958551222, 1.5997850814446792, 1.6664390240771354, 1.7831356296474041, 1.883021113342238, 1.949716435816299, 1.9994280600230923, 2.1163071859782576, 2.199312260622264, 2.26608392729986, 2.3495287830478446, 2.3993982280449018, 2.532581653012585, 2.599353961237739, 2.782536744657591, 3.015809024013379, 3.215765077979995, 3.2990813033688937, 3.4490152239322924, 3.5822782008431204, 3.7320738678281487, 3.8152168752767466, 3.9819972028512893]",2017_Feb_09_1301,60.0478077213,famFaceFilter,001,16,
10,./img/smoo15_KatjaBurkard5_3.png,0,17,17,9,,,1.ja,1.334,None,act,1.275,None,None,None,None,None,Katja Burkhard,"['lshift', 'k', 'a', 't', 'j', 'a', 'space', 'lshift', 'b', 'u', 'r', 'k', 'h', 'a', 'r', 'd', 'return']","[2.882469702899016, 2.965883122798914, 3.082496647912194, 3.2657801543564347, 3.449115626182902, 3.532374433032146, 3.6154520025920647, 3.732254784343695, 4.049123324758057, 4.232089585752419, 4.3153050881164745, 4.4819513321745035, 5.231564478774544, 5.298196608777744, 5.381518928871628, 5.548090111821693, 5.698022428515742]",2017_Feb_09_1301,60.0478077213,famFaceFilter,001,16,
3,./img/smoo15_JoshRadnor(Ted)3_1.png,0,18,18,2,,,2.nein,2.656,None,act,1.075,None,None,None,None,None,,['return'],[0.566811442648941],2017_Feb_09_1301,60.0478077213,famFaceFilter,001,16,
32,./img/smoo15_TomCruise1_1.png,0,19,19,31,,,1.ja,1.246,None,act,1.175,None,None,None,None,None,Tom Cruise,"['lshift', 't', 'o', 'm', 'space', 'lshift', 'c', 'r', 'u', 'i', 's', 'e', 'return']","[0.7998335183128802, 0.8999214103787381, 1.099841537662087, 1.266610958921774, 1.4164659690900407, 1.5996202036271825, 1.6997469093425934, 2.432823195806577, 2.549274730068646, 2.9490585284170265, 3.149068793184142, 3.2322737100075756, 3.598869592553001]",2017_Feb_09_1301,60.0478077213,famFaceFilter,001,16,
71,./img/smoo15_AngelaMerkel1_1.png,0,20,20,70,,,1.ja,1.159,None,None,None,None,None,polit,1.191,None,Angela Merkel,"['lshift', 'a', 'n', 'g', 'l', 'e', 'a', 'space', 'lshift', 'backspace', 'backspace', 'backspace', 'backspace', 'e', 'l', 'backspace', 'backspace', 'backspace', 'capslock', 'g', 'e', 'l', 'a', 'space', 'lshift', 'm', 'e', 'r', 'k', 'e', 'l', 'return']","[0.5831337050035472, 0.6500237372733864, 0.7836119789826625, 0.8500676833064063, 0.9502784318001432, 1.1166346961949785, 1.3164614782544959, 1.399762306492903, 1.6830207925681862, 1.8164387033034473, 1.9662731839380285, 2.09948419546663, 2.19947104373432, 2.449403360427823, 2.7990402443015228, 2.9324020195927005, 3.04895203146134, 4.431862157012347, 4.815008372200282, 4.881641464525728, 5.098188589428446, 5.431598160040721, 5.5813896569643475, 5.631404733340787, 5.731521815837368, 5.831133679341292, 5.89785209754109, 5.997693955976956, 6.131205532709373, 6.197849852122999, 6.480991897249623]",2017_Feb_09_1301,60.0478077213,famFaceFilter,001,16,
72,./img/smoo15_HughLaurie(DrHouse)2_1.png,0,21,21,71,,,1.ja,1.653,None,act,3.756,None,None,None,None,None,Dr House Hauptdarsteller,"['lshift', 'd', 'r', 'space', 'lshift', 'h', 'o', 'u', 's', 'e', 'space', 'lshift', 'h', 'a', 'u', 'p', 't', 'd', 'a', 'r', 's', 't', 'e', 'l', 'l', 'e', 'r', 'return']","[2.7490963797449695, 2.8325268006647093, 3.015803250081717, 3.199155081380468, 3.3823150898488166, 3.4656572979283737, 3.74890680233284, 3.8988044754382827, 4.015355770402948, 4.1152967479938525, 4.215331070807679, 4.281705298544239, 4.348307917342936, 4.4151331532725635, 4.848289633227068, 5.048201420387159, 5.18150641868715, 6.097803660672525, 6.231108658972516, 6.447646802204417, 6.58109133717835, 6.7305748910976035, 6.81410026111007, 6.931075619254443, 7.064098336466486, 7.094345396572862, 7.163882455588919, 7.463748051298353]",2017_Feb_09_1301,60.0478077213,famFaceFilter,001,16,
30,./img/smoo15_KatjaBurkard4_1.png,0,22,22,29,,,1.ja,1.169,None,None,None,host,0.741,None,None,None,Katja Burkhard,"['lshift', 'k', 'a', 't', 'j', 'a', 'space', 'lshift', 'b', 'u', 'r', 'k', 'h', 'a', 'r', 'd', 'return']","[0.6666231483322917, 0.7501575000160301, 0.8167171351037723, 0.9832796571567997, 1.1665413509717837, 1.266328357060047, 1.3163646045177302, 1.4007499695267143, 1.7329175033519277, 1.9161788763931327, 1.9995486710336081, 2.115923861092142, 2.532528725308566, 2.665816081040248, 2.7991794602016853, 2.982421907578555, 3.182375395354029]",2017_Feb_09_1301,60.0478077213,famFaceFilter,001,16,
37,./img/smoo15_Ice-T(OdafinFinTutuola)5_1.png,0,23,23,36,,,2.nein,1.408,None,act,1.275,None,None,None,None,None,,['return'],[0.5665798438471938],2017_Feb_09_1301,60.0478077213,famFaceFilter,001,16,
20,./img/smoo15_NicoleKidman5_1.png,0,24,24,19,,,1.ja,1.171,None,act,1.224,None,None,None,None,None,Nicole Kidman,"['lshift', 'n', 'i', 'c', 'o', 'l', 'e', 'space', 'lshift', 'k', 'd', 'i', 'backspace', 'backspace', 'i', 'd', 'm', 'a', 'n', 'return']","[0.600203370692725, 0.6666921147343601, 0.8501478767971093, 0.9667485709519497, 1.0834073251940026, 1.249840896114165, 1.3666856992549583, 1.4829746011173484, 1.5829749218914912, 1.6494636659331263, 1.8829181449000316, 2.099559577347918, 2.4826772436535975, 2.6159591462278513, 2.8658802358327193, 3.082178760914303, 3.2823936794698056, 3.4321999319959104, 3.5321139645734547, 3.7988917259563095]",2017_Feb_09_1301,60.0478077213,famFaceFilter,001,16,
43,./img/smoo15_JoachimLoew1_1.png,0,25,25,42,,,1.ja,1.281,None,None,None,None,None,sport,1.39,None,Jogi Löw,"['lshift', 'j', 'o', 'g', 'i', 'space', 'lshift', u'\xf6', 'l', 'backspace', 'lshift', 'l', u'\xd6', 'backspace', 'backspace', 'lshift', 'j', 'o', 'g', 'i', 'space', 'lshift', 'l', u'\xd6', 'w', 'backspace', 'backspace', u'\xd6', 'backspace', 'capslock', 'l', 'backspace', u'\xf6', 'w', 'return']","[0.5833268109295204, 0.6501478767972912, 0.800042342163124, 1.0332713170337229, 1.1500625509229394, 1.3165182552465922, 1.366495480294816, 1.6829669025423755, 2.3845232978133026, 2.732543480910863, 2.9156922622905768, 3.0157031686053415, 3.6822425949330864, 3.798904877688983, 4.265259858987974, 4.348707922475569, 4.564915989299152, 4.715128020889097, 4.865090169561427, 5.164929461805514, 5.331404091792592, 5.498169342990877, 5.631367523561039, 5.814683428175613, 6.264505077851936, 6.414516304940662, 7.097425788943838, 7.66392351465629, 8.04681343144739, 8.330247060106558, 8.68016173423257, 9.2133095532904, 9.963075067522823, 10.179555471441745]",2017_Feb_09_1301,60.0478077213,famFaceFilter,001,16,
66,./img/smoo15_NicoleKidman3_1.png,0,26,26,65,,,1.ja,1.495,None,act,0.475,None,None,None,None,None,Nicole Kidman,"['lshift', 'n', 'i', 'c', 'o', 'l', 'e', 'space', 'lshift', 'k', 'i', 'd', 'm', 'a', 'n', 'return']","[0.6999720926655755, 0.7834326663373758, 0.9499220519269329, 1.083420476927131, 1.2498210081284924, 1.433060889313765, 1.5332344280282086, 1.6331754056186583, 1.716286656444936, 1.8163860963736624, 2.016282807157495, 2.132778928999869, 2.2828475746282493, 2.382537386205513, 2.4994193991265092, 2.7492144245638883]",2017_Feb_09_1301,60.0478077213,famFaceFilter,001,16,
52,./img/smoo15_BastianSchweinsteiger3_1.png,0,27,27,51,,,1.ja,1.452,None,None,None,None,None,sport,1.791,None,Bastian Schweinsteiger,"['lshift', 'b', 'a', 's', 't', 'i', 'a', 'n', 'space', 'lshift', 's', 'c', 'h', 'w', 'e', 'i', 'n', 's', 't', 'e', 'i', 'g', 'e', 'r', 'return']","[0.7166786422276346, 0.783390965721992, 0.9333357926002464, 0.9565425057576249, 1.2165330108482522, 1.2833284147991435, 1.3998200458063366, 1.516541030197459, 1.666331885573527, 1.6996670366256694, 2.01624784279511, 2.082825761998265, 2.2494251730572614, 2.3327721927462335, 2.432658317989535, 2.4827638526235205, 2.6160727002106796, 2.9825559910950687, 3.1324825338574556, 3.198993090528802, 3.3824186998385812, 3.498959730036404, 3.615687129906746, 3.7155514425203364, 3.8817239034337945]",2017_Feb_09_1301,60.0478077213,famFaceFilter,001,16,
23,./img/smoo15_JoachimLoew4_1.png,0,28,28,22,,,1.ja,1.737,None,None,None,None,None,sport,1.075,None,Jogi Löw,"['lshift', 'j', 'o', 'g', 'i', 'space', 'lshift', 'l', u'\xf6', 'w', 'return']","[0.6501109877913223, 0.7001712932965347, 0.8668544263600779, 1.0000035285138438, 1.099957978610746, 1.316566692114975, 1.566444156460875, 1.7329345043722242, 1.8497430600555163, 2.0663155261013344, 2.3661374965518007]",2017_Feb_09_1301,60.0478077213,famFaceFilter,001,16,
64,./img/smoo15_JoachimLoew8_1.png,0,29,29,63,,,1.ja,1.261,None,None,None,None,None,sport,0.624,None,Jogi Löw,"['lshift', 'j', 'o', 'g', 'i', 'space', 'lshift', 'l', u'\xf6', 'w', 'return']","[0.9332552783357642, 1.04992108960505, 1.4165580312178463, 1.9329482976527288, 2.116139421195385, 2.28282351658072, 2.41616219614707, 2.5493343940261184, 2.666136534229736, 2.8825531041297836, 3.248595330814169]",2017_Feb_09_1301,60.0478077213,famFaceFilter,001,16,
49,./img/smoo15_TomCruise5_1.png,0,30,30,48,,,1.ja,1.179,None,act,0.725,None,None,None,None,None,Tom Cruise,"['lshift', 't', 'o', 'm', 'space', 'lshift', 'c', 'r', 'u', 'i', 's', 'e', 'return']","[0.9665910709359196, 1.1000176425682184, 1.2332100492067184, 1.4163893041131814, 1.5331385166127802, 1.6164217022833327, 1.6996875661598096, 2.1827670603634033, 2.43282383735459, 2.582750380116977, 2.682702264022737, 2.765915841743208, 2.9658561777860086]",2017_Feb_09_1301,60.0478077213,famFaceFilter,001,16,
45,./img/smoo15_RobertSeanLeonard(Wilson)2_6.png,0,31,31,44,,,1.ja,4.212,None,act,0.735,None,None,None,None,None,Dr House Darsteller,"['lshift', 'd', 'r', 'space', 'lshift', 'j', 'h', 'o', 'u', 'backspace', 'backspace', 'backspace', 'backspace', 'lshift', 'h', 'o', 'u', 's', 'e', 'space', 'lshift', 'd', 'a', 'r', 's', 't', 'e', 'l', 'l', 'e', 'r', 'return']","[1.4657121502759765, 1.5832167854600812, 1.7829964137472416, 1.9329232772834075, 1.9824645705157309, 2.0822278393306988, 2.2490097707750465, 2.415563311157257, 2.832376036901678, 2.9492051221186557, 3.0991865172286452, 3.2156948284823557, 3.515570368184399, 3.6155501594248562, 3.7655017225561096, 3.915392980182787, 4.0153872062510345, 4.048590198430702, 4.198561649548083, 4.3478880242246305, 4.3977680547623095, 4.497645519108573, 4.631479152900283, 4.781539137631171, 4.948096848075238, 5.014720958729413, 5.148300860315885, 5.264566345678759, 5.348189872524472, 5.39754351298825, 6.247825152528094]",2017_Feb_09_1301,60.0478077213,famFaceFilter,001,16,
44,./img/smoo15_GuentherJauch2_1.png,0,32,32,43,,,1.ja,1.024,None,None,None,host,0.657,None,None,None,Günter Jauch,"['lshift', 'g', u'\xfc', 'n', 't', 'e', 'r', 'space', 'lshift', 'j', 'a', 'u', 'c', 'h', 'return']","[0.5001918228299473, 0.600404495967723, 0.7669047878721358, 0.9833861541123952, 1.0834082875157947, 1.1500747403333662, 1.2498973523315726, 1.3997497963082424, 1.5166241106539928, 1.5831539137629989, 1.6997494755341904, 1.8164820077881814, 1.9330108485751225, 2.0161952358648705, 2.2662372572540335]",2017_Feb_09_1301,60.0478077213,famFaceFilter,001,16,
68,./img/smoo15_AlysonHannigan(Lily)8_3.png,0,33,33,67,,,1.ja,3.072,None,act,3.723,None,None,None,None,None,rote Haare American Pie,"['r', 'o', 't', 'e', 'space', 'lshift', 'h', 'a', 'a', 'r', 'e', 'space', 'lshift', 'a', 'm', 'e', 'r', 'i', 'c', 'a', 'space', 'lshift', 'backspace', 'backspace', 'a', 'n', 'backspace', 'backspace', 'capslock', 'a', 'n', 'space', 'lshift', 'p', 'i', 'e', 'return']","[4.065316315205564, 4.231884931964032, 4.331867289396087, 4.415312786692084, 4.498263650536046, 4.914931707223332, 5.048316578240247, 5.231501607077917, 5.431457340270754, 5.6148117377611015, 5.931300481802737, 11.796111578015825, 19.542286669275654, 19.608941574230357, 19.792323237507844, 19.992022030755834, 21.541550493029717, 21.67471980394339, 21.824351876206947, 22.058001385743864, 22.274430465828118, 22.690742463415972, 23.490562829996634, 23.85683761780456, 27.65566486819398, 27.855536558608947, 28.35518017873528, 28.471847593874827, 28.971491534775396, 29.238133929545256, 29.354991884418723, 29.654788834500323, 29.887678430517553, 30.054609521854672, 30.337740339892207, 30.454257953590513, 31.287504250255097]",2017_Feb_09_1301,60.0478077213,famFaceFilter,001,16,
55,./img/smoo15_MariskaHargitay(Liv)4_4.png,0,34,34,54,,,2.nein,2.534,None,act,0.974,None,None,None,None,None,,['return'],[1.0666735098443496],2017_Feb_09_1301,60.0478077213,famFaceFilter,001,16,
54,./img/smoo15_LisaEdelstein(DrLisaCuddy)6_3.png,0,35,35,53,,,2.nein,2.936,None,act,1.208,None,None,None,None,None,,['return'],[0.9500397759711632],2017_Feb_09_1301,60.0478077213,famFaceFilter,001,16,
26,./img/smoo15_TomCruise4_1.png,0,36,36,25,,,1.ja,1.006,None,act,1.224,None,None,None,None,None,Tom Cruise,"['lshift', 't', 'o', 'm', 'space', 'lshift', 'c', 'r', 'u', 'i', 's', 'e', 'return']","[1.4664685352818196, 1.5665124813149305, 1.7661949150910914, 2.066334451765215, 2.282896973818424, 2.432860726360559, 2.4994951017815765, 3.015920974126402, 3.1990983043888264, 3.3489039153669182, 3.4157134333718204, 3.515729792844013, 5.048392280895314]",2017_Feb_09_1301,60.0478077213,famFaceFilter,001,16,
57,./img/smoo15_UrsulavonderLeyen5_1.png,0,37,37,56,,,1.ja,1.423,None,None,None,None,None,polit,0.691,None,Ursula von der Leyen,"['lshift', 'u', 'r', 's', 'u', 'l', 'a', 'space', 'v', 'o', 'n', 'space', 'd', 'e', 'r', 'space', 'lshift', 'l', 'e', 'y', 'e', 'n', 'return']","[0.5834891225549654, 0.6669487339054285, 0.9666423947701333, 1.6331632162082315, 1.7664018142977511, 1.9494893278501877, 2.0662994874032847, 2.2161451951269555, 2.7159835250490687, 2.7660204140552196, 2.8990158654801235, 2.999194536577761, 3.082700339378789, 3.265759624822749, 3.3489225202570196, 3.3991236455321996, 3.4657904191230955, 3.5490829072386987, 3.665312145144071, 4.148619388861334, 4.366361717552081, 4.46525600970017, 4.748464455037265]",2017_Feb_09_1301,60.0478077213,famFaceFilter,001,16,
47,./img/smoo15_BarackObama4_1.png,0,38,38,46,,,1.ja,1.515,None,None,None,None,None,polit,0.891,None,Barack Obama,"['lshift', 'b', 'r', 'a', 'c', 'k', 'backspace', 'backspace', 'backspace', 'backspace', 'a', 'r', 'a', 'c', 'k', 'space', 'lshift', 'o', 'b', 'm', 'a', 'a', 'backspace', 'backspace', 'backspace', 'a', 'm', 'a', 'return']","[0.8832684300678011, 0.9167944416285536, 1.1499034470371043, 1.199957657836876, 1.349754287144151, 1.4832533536919073, 1.7663767939284298, 1.916372623866664, 2.0325992955804395, 2.1829556754537407, 2.3327949676981916, 2.666002450713222, 2.7490168278022793, 2.915812552526859, 3.0658250627111556, 3.265529309117028, 3.648911934716125, 3.8488436098618877, 4.065361544334337, 4.281978597960915, 4.3485699896709775, 4.648547214719656, 5.031685089784787, 5.298201420387159, 5.5147783772686125, 5.748033014056091, 5.881425904422031, 6.047915931559601, 7.763828244788783]",2017_Feb_09_1301,60.0478077213,famFaceFilter,001,16,
28,./img/smoo15_HughLaurie(DrHouse)5_3.png,0,39,39,27,,,1.ja,1.7,None,act,1.175,None,None,None,None,None,Dr Gregory House Hauptdarsteller,"['lshift', 'd', 'r', 'space', 'lshift', 'h', 'o', 'u', 's', 'e', 'lctrl', 'left', 'left', 'backspace', 'backspace', 'backspace', 'backspace', 'backspace', 'backspace', 'space', 'lshift', 'g', 'r', 'e', 'g', 'o', 'r', 'a', 'backspace', 'y', 'space', 'lshift', 'h', 'o', 'u', 's', 'e', 'space', 'lshift', 'h', 'a', 'u', 'p', 't', 'd', 'a', 'r', 's', 't', 'e', 'l', 'l', 'e', 'r', 'return']","[2.765842384505504, 2.8825104411926077, 3.4154529649140386, 3.7488320619995648, 3.848789078288519, 3.9154956278512145, 4.115370205231557, 4.281820456397327, 4.415317598301499, 4.4817899828708505, 5.93123889320168, 6.297523625002668, 6.664220872120495, 8.030373445048554, 8.196857698254462, 8.346892341842704, 8.496890096424977, 8.646802204359119, 8.796761145291384, 9.363264965709277, 9.512886131658888, 9.62976172910021, 9.912816844482677, 9.996203319369215, 10.379026835949844, 10.529350496879033, 10.662590698838358, 10.795957285739405, 11.345554393641123, 11.462240413670315, 11.64554027958684, 12.278403251365035, 12.37851423915663, 12.561632867783828, 12.761626773078206, 12.928345191277913, 13.011588921750445, 13.19488205141397, 13.494728721459524, 13.594725834493602, 13.761357322949152, 13.844649490290521, 13.961131177304651, 14.144420457680553, 14.794139138914488, 14.944313319176672, 15.110506951171828, 15.227395700345824, 15.49384659305997, 15.560399812668038, 16.376835308231875, 16.52684268603298, 16.626822477273436, 16.726439473161008, 16.89347834454975]",2017_Feb_09_1301,60.0478077213,famFaceFilter,001,16,
18,./img/smoo15_HughLaurie(DrHouse)4_1.png,0,40,40,17,,,1.ja,3.677,None,act,0.858,None,None,None,None,None,Dr House Hauptdarsteller,"['lshift', 'd', 'r', 'space', 'lshift', 'h', 'o', 'u', 's', 'e', 'space', 'lshift', 'h', 'a', 'u', 't', 'backspace', 'p', 't', 'd', 'a', 'r', 's', 't', 'e', 'l', 'l', 'e', 'r', 'return']","[1.033302432108485, 1.1165570688958724, 1.26653108620485, 1.383215181590458, 1.549833518313335, 1.6327850237053099, 1.766288901862481, 1.899591975518888, 2.0161920281257153, 2.082657355667834, 2.2329466937831057, 2.5159402205645165, 2.8492455396381047, 2.9492339917756, 3.032250293508241, 3.265645750065687, 3.648617784991984, 3.9488894805385826, 4.065407415011123, 4.598540478466475, 4.715147267326756, 4.848483701475288, 4.997940310381182, 5.19820430735308, 5.281562554130687, 5.431521174289628, 5.54812924624548, 5.614690805976807, 5.664588158308561, 5.898072469253748]",2017_Feb_09_1301,60.0478077213,famFaceFilter,001,16,
5,./img/smoo15_BarackObama1_3.png,0,41,41,4,,,1.ja,1.001,None,None,None,None,None,polit,0.741,None,Barack Obama,"['lshift', 'b', 'r', 'backspace', 'a', 'r', 'a', 'c', 'k', 'space', 'lshift', 'o', 'b', 'a', 'm', 'a', 'return']","[0.8332584860750103, 0.9332132569461464, 1.2331308180378073, 1.56649676339066, 1.6330753241422826, 1.749637525421349, 1.8496904531252767, 1.9828366683132117, 2.0829534300360137, 2.2995015172609783, 2.449266710719712, 2.599314826813952, 3.1320459604935422, 3.215610464929796, 3.3822024981877803, 3.482344921827462, 3.7822730684597445]",2017_Feb_09_1301,60.0478077213,famFaceFilter,001,16,
17,./img/smoo15_GeorgeClooney11_1.png,0,42,42,16,,,1.ja,1.181,None,act,0.409,None,None,None,None,None,George Clooney,"['lshift', 'g', 'e', 'o', 'r', 'g', 'e', 'space', 'lshift', 'c', 'l', 'o', 'o', 'n', 'e', 'y', 'return']","[0.899793100793886, 0.9833900034004728, 2.5825867853959608, 2.716088418135314, 2.816004054583118, 3.282127437080362, 3.349063981575, 3.565356091176909, 3.7152165545026037, 3.781771377980931, 3.948791644480025, 4.132040828110348, 4.265065790740209, 4.4486909214551815, 4.531729677365547, 4.73182526800656, 5.131574743541478]",2017_Feb_09_1301,60.0478077213,famFaceFilter,001,16,
51,./img/smoo15_LeonardoDiCaprio1_1.png,0,43,43,50,,,1.ja,1.082,None,dummy,0.491,None,None,None,None,None,Leonardo diCaprio,"['lshift', 'l', 'e', 'o', 'n', 'a', 'r', 'd', 'o', 'space', 'lshift', 'd', 'i', 'lshift', 'c', 'backspace', 'backspace', 'backspace', 'd', 'i', 'space', 'lshift', 'c', 'backspace', 'backspace', 'c', 'lshift', 'backspace', 'lshift', 'c', 'a', 'p', 'r', 'i', 'o', 'return']","[0.7167055872409946, 0.7668877868518393, 0.9330740410459839, 1.0666292430373687, 1.332905634715189, 1.5165493703207176, 1.716412079064412, 2.3161522521540974, 2.499368075291841, 2.8157868906096155, 3.1323522996285647, 3.2657451899945045, 3.5155896146220584, 3.9654600219409986, 4.115247669577002, 4.515133153272018, 4.631698562291149, 4.765109095224943, 4.98155164781565, 5.11486947707408, 5.564674446504341, 5.66459168682195, 5.747832530329106, 6.097786659652229, 6.280998954276583, 6.497527474290109, 6.780826377884296, 7.097435091388434, 7.2638952865472675, 7.38035516093214, 7.780312497995055, 8.0636915950804, 8.480272080475515, 8.630095334021917, 8.846810223707507, 9.529732217895344]",2017_Feb_09_1301,60.0478077213,famFaceFilter,001,16,
31,./img/smoo15_BritneySpears1_1.png,0,44,44,30,,,1.ja,1.41,None,None,None,music,0.658,None,None,None,Britney Spears,"['lshift', 'b', 'r', 'i', 't', 'n', 'e', 'y', 'space', 'lshift', 's', 'p', 'e', 'a', 'r', 's', 'return']","[0.5666808876458163, 0.6334782162402917, 0.8333989850711987, 0.9162664476848477, 1.0166420739960813, 1.1999021639412604, 1.2998822759554969, 1.4663976442361673, 1.6496092973125087, 1.7829543923576239, 1.9495756160463316, 2.1159155209688834, 2.2160303580476466, 2.4493401679569615, 2.582581653012312, 2.78257844527252, 3.0657445484462187]",2017_Feb_09_1301,60.0478077213,famFaceFilter,001,16,
25,./img/smoo15_JasonSegel(Marshall)6_1.png,0,45,45,24,,,1.ja,1.967,None,act,0.525,None,None,None,None,None,,['return'],[3.9320032975560935],2017_Feb_09_1301,60.0478077213,famFaceFilter,001,16,
46,./img/smoo15_NeilPatrickHarris(Barney)1_1.png,0,46,46,45,,,1.ja,5.718,None,act,0.896,None,None,None,None,None,Dr House Darsteller,"['lshift', 'd', 'r', 'space', 'lshift', 'h', 'o', 'u', 's', 'e', 'space', 'lshift', 'h', 'backspace', 'lshift', 'd', 'a', 'r', 's', 't', 'e', 'l', 'l', 'e', 'r', 'return']","[1.4000449083550848, 1.4831462151882988, 1.6499008808455073, 2.1663867379215844, 2.2662690138768085, 2.316209670693752, 2.5160637185404084, 2.666047359068216, 2.7658157602663778, 2.8326426000653555, 3.0325912762314147, 5.198194684133796, 5.331695033777578, 5.698070544610346, 5.89798104867441, 5.981389977738218, 6.097965009976178, 6.247939989606948, 6.464422638943233, 6.647821624014341, 6.731075940028404, 6.81424204320183, 6.964299140967341, 6.992184983929292, 7.047545758406159, 7.28084562432241]",2017_Feb_09_1301,60.0478077213,famFaceFilter,001,16,
58,./img/smoo15_EmilyDeschanel3_1.png,0,47,47,57,,,1.ja,3.452,None,act,1.408,None,None,None,None,None,Brooke Shields,"['lshift', 'b', 'r', 'o', 'o', 'k', 'e', 'space', 'lshift', 's', 'h', 'i', 'e', 'l', 's', 'backspace', 'd', 's', 'return']","[0.7835009911914312, 0.8668970892967991, 1.0835025950609634, 1.3834839901710438, 1.4999008808449616, 1.6832090868847445, 1.7831356296469494, 2.049719643555818, 2.232864575647909, 2.332989035945502, 2.482863292551883, 2.632814534909812, 2.749396303400772, 2.8993687168399447, 3.049236878740885, 3.5824812507617025, 3.7156419007778823, 3.798955559974729, 4.282133531785348]",2017_Feb_09_1301,60.0478077213,famFaceFilter,001,16,
39,./img/smoo15_BarackObama2_1.png,0,48,48,38,,,1.ja,1.305,None,None,None,None,None,polit,0.625,None,Barack Obama,"['lshift', 'b', 'a', 'r', 'a', 'c', 'k', 'space', 'lshift', 'o', 'b', 'a', 'm', 'a', 'return']","[0.6334762915962528, 0.7001196486885419, 0.9673458520719578, 1.1833790970854352, 1.266568937532611, 1.3998248574157515, 1.4832180685557432, 1.6498829175034189, 1.7328918414350483, 1.8663103937178676, 2.082827365868525, 2.1994925355897976, 2.3661214578532963, 2.4660608315743957, 2.8159010861404568]",2017_Feb_09_1301,60.0478077213,famFaceFilter,001,16,
22,./img/smoo15_WillSmith1_1.png,0,49,49,21,,,1.ja,2.347,None,act,1.074,None,None,None,None,None,Will Smith,"['lshift', 'w', 'i', 'l', 'l', 'space', 'lshift', 's', 'm', 'i', 't', 'h', 'delete', 'return']","[0.5000397759713451, 0.5835375594233483, 0.7003127546140604, 0.8667241921307323, 0.9999445061043843, 1.0998643126131356, 1.1662475220209672, 1.2498639918394474, 1.3330586438960381, 1.5161500067360976, 1.5996227698187795, 1.68298454511023, 1.9162164069466598, 2.682663771146963]",2017_Feb_09_1301,60.0478077213,famFaceFilter,001,16,
29,./img/smoo15_GuentherJauch3_1.png,0,50,50,28,,,1.ja,1.069,None,None,None,host,0.657,None,None,None,Günter Jauch,"['lshift', 'g', u'\xdc', 'n', 't', 'e', 'r', 'space', 'backspace', 'backspace', 'backspace', 'backspace', 'backspace', 'backspace', u'\xdc', 'backspace', 'capslock', u'\xfc', 'n', 't', 'e', 'r', 'space', 'lshift', 'j', 'a', 'u', 'c', 'h', 'return']","[0.5003252647989029, 0.600406741385541, 0.7333755685717733, 0.9165105566712555, 1.0001770672279235, 1.0669920383902536, 1.1499133910297132, 1.3001055346339854, 1.6997267005831418, 1.8163870586954545, 1.9329030685239559, 2.0663809639900137, 2.1995711252111505, 2.3161455159006437, 2.899195498899644, 3.4990062422612027, 3.9986145772518285, 4.415319843718862, 4.665158494415209, 4.798403507983949, 4.881759830117971, 4.998470549742251, 5.148275839946564, 5.214882628806663, 5.314961539201704, 5.448175437696136, 5.96463851982071, 6.18133127610281, 6.297964689202217, 6.56438671225942]",2017_Feb_09_1301,60.0478077213,famFaceFilter,001,16,
34,./img/smoo15_EmilyDeschanel5_1.png,0,51,51,33,,,1.ja,7.515,None,act,0.519,None,None,None,None,None,Brooke Shields,"['lshift', 'b', 'r', 'o', 'o', 'k', 'e', 'space', 'lshift', 's', 'h', 'i', 'e', 'l', 's', 'backspace', 'd', 's', 'return']","[0.7168399915312875, 0.8333758893459162, 1.0833415665315442, 1.2666834538372314, 1.4164454395563553, 1.716363642196029, 1.8660916258750149, 1.9663036574647776, 2.132702584796334, 2.1994902901719797, 2.332913333290435, 2.482786627575024, 2.599112418443383, 2.71601816863722, 2.849065264670571, 3.1157807959043566, 3.4490614153828574, 3.5989805803442323, 3.9488535538548604]",2017_Feb_09_1301,60.0478077213,famFaceFilter,001,16,
42,./img/smoo15_OmarEpps(DrEricForeman)1_5.png,0,52,52,41,,,1.ja,1.228,None,act,3.84,None,None,None,None,None,Dr House Darsteller,"['lshift', 'd', 'r', 'space', 'lshift', 'h', 'o', 'u', 's', 'e', 'space', 'lshift', 'd', 'a', 'r', 's', 't', 'e', 'l', 'l', 'e', 'r', 'return']","[1.0499445061041115, 1.1165477664508217, 1.4164018142973873, 1.7164820077882723, 1.816375831606365, 1.9163668499354571, 2.266124665592997, 2.4328953699482554, 2.549315147588004, 2.632703547118126, 2.832624957497501, 2.932539952396837, 3.032128399402154, 3.1157111879542754, 3.3324071519759855, 3.5322332924879447, 3.7488532330808084, 3.8319984859467695, 3.9321617598939156, 4.082170100017265, 4.1653487133753515, 4.248433339962503, 4.7984063949497795]",2017_Feb_09_1301,60.0478077213,famFaceFilter,001,16,
70,./img/smoo15_JasonSegel(Marshall)7_1.png,0,53,53,69,,,1.ja,1.454,None,act,0.541,None,None,None,None,None,,['return'],[0.48353788019721833],2017_Feb_09_1301,60.0478077213,famFaceFilter,001,16,
27,./img/smoo15_JasonSegel(Marshall)9_1.png,0,54,54,26,,,1.ja,1.216,None,act,0.558,None,None,None,None,None,,['return'],[0.4665140851848264],2017_Feb_09_1301,60.0478077213,famFaceFilter,001,16,
2,./img/smoo15_WillSmith5_1.png,0,55,55,1,,,1.ja,1.217,None,dummy,1.525,None,None,None,None,None,Will Smith,"['lshift', 'w', 'i', 'l', 'l', 'space', 'lshift', 's', 'm', 'i', 't', 'h', 'return']","[0.5168823336944115, 0.6001812372892346, 0.7835513527033982, 0.9333203954497549, 1.0499887729110924, 1.183348623558686, 1.2331821418715663, 1.3499249388924, 1.3998030447864949, 1.5999028054889095, 1.6995098573838732, 1.7663456788536678, 2.0162452766030583]",2017_Feb_09_1301,60.0478077213,famFaceFilter,001,16,
59,./img/smoo15_JoshRadnor(Ted)1_2.png,0,56,56,58,,,1.ja,1.85,None,act,0.808,None,None,None,None,None,Dr House Darsteller,"['lshift', 'd', 'r', 'space', 'lshift', 'h', 'o', 'u', 's', 'e', 'space', 'lshift', 'd', 'a', 'r', 's', 't', 'e', 'l', 'l', 'e', 'r', 'return']","[0.8499740173087957, 0.916618015948643, 1.0828822182161275, 1.2333649830311515, 1.2996705651394223, 1.3832036337271347, 1.5497199643295971, 1.716379360119845, 1.8328299320601218, 1.9163299609294882, 2.0329258434749136, 2.182591276231051, 2.2669942838078896, 2.3828341021217057, 2.549203839022539, 2.7327365868363813, 2.9658260250330386, 3.0322008943176115, 3.182550858711693, 3.2990906058134897, 3.3820796417594465, 3.4488461760533937, 3.6989651831941046]",2017_Feb_09_1301,60.0478077213,famFaceFilter,001,16,
35,./img/smoo15_KatjaBurkard1_1.png,0,57,57,34,,,1.ja,1.416,None,None,None,host,1.657,None,None,None,Katja Burkhard,"['lshift', 'k', 'a', 't', 'j', 'a', 'space', 'lshift', 'b', 'r', 'u', 'k', 'backspace', 'backspace', 'backspace', 'u', 'r', 'k', 'h', 'a', 'r', 'd', 'return']","[1.016530123883058, 1.0999005600710916, 1.233225125582976, 1.5496141089220146, 2.2493359978957415, 2.416125307141101, 2.4992994296640063, 2.5826486947707963, 2.682625919819202, 2.882536423883721, 2.932581332238442, 3.2490617361568184, 3.532170420791317, 3.665599879388992, 3.7987987015071667, 4.43188172422424, 4.56489128970361, 4.6485257228641785, 4.915075734732909, 4.981501286303683, 5.114983993379155, 5.2982055904485605, 5.564770037145536]",2017_Feb_09_1301,60.0478077213,famFaceFilter,001,16,
13,./img/smoo15_GeorgeClooney3_1.png,0,58,58,12,,,1.ja,1.469,None,dummy,0.441,None,None,None,None,None,George Clooney,"['lshift', 'g', 'e', 'o', 'r', 'g', 'e', 'space', 'lshift', 'c', 'l', 'o', 'o', 'n', 'e', 'y', 'return']","[0.9832860726364743, 1.0830801357515156, 1.1998678411273431, 1.3330913628406051, 1.4331917650911237, 1.649232067131834, 1.699639450065206, 1.7998960692361834, 1.8828411591489385, 2.03269296157805, 2.182852707011534, 2.3661147216002973, 2.4827952884720617, 2.6658273081293373, 2.7825197436377493, 3.248977693378947, 3.482174911626771]",2017_Feb_09_1301,60.0478077213,famFaceFilter,001,16,
15,./img/smoo15_LisaEdelstein(DrLisaCuddy)1_1.png,0,59,59,14,,,1.ja,1.523,None,dummy,0.808,None,None,None,None,None,Dr House Darstellerin,"['lshift', 'd', 'r', 'space', 'lshift', 'h', 'o', 'u', 's', 'e', 'space', 'lshift', 'd', 'a', 'r', 's', 't', 'e', 'l', 'l', 'e', 'r', 'i', 'n', 'return']","[0.7832600899450881, 0.8667290037406019, 1.016728682966459, 1.1333094891356268, 1.183054794608779, 1.2998299897994912, 1.4498697657709272, 1.5996622250168002, 1.716321300033087, 1.7996635081126442, 1.949506970418497, 2.0494925355901614, 2.099595824806329, 2.249543538650414, 2.365996356008054, 2.549313864492433, 2.7319901458240565, 2.782384056250976, 2.932541556267097, 2.999104078320215, 3.4655517632945703, 3.698710809441309, 3.832252538926241, 3.9484394346682166, 4.231989504276044]",2017_Feb_09_1301,60.0478077213,famFaceFilter,001,16,
48,./img/smoo15_JoshRadnor(Ted)6_2.png,0,60,60,47,,,2.nein,2.074,None,None,None,music,3.306,None,None,None,,['return'],[0.5335173506637148],2017_Feb_09_1301,60.0478077213,famFaceFilter,001,16,
50,./img/smoo15_OmarEpps(DrEricForeman)2_2.png,0,61,61,49,,,1.ja,1.432,None,act,0.807,None,None,None,None,None,Dr House Darsteller,"['lshift', 'd', 'r', 'space', 'lshift', 'h', 'o', 'u', 's', 'e', 'space', 'lshift', 'd', 'a', 'r', 's', 't', 'e', 'l', 'l', 'e', 'r', 'return']","[0.9666978886657489, 1.0500798727166512, 1.199834159860984, 1.3331808587759042, 1.3564995220467608, 1.466330602477683, 1.6330374728140669, 1.782980054274958, 1.8828873505995034, 1.9329912813636838, 2.082944769138976, 2.215877028093473, 2.2328071571087094, 2.3491454581612743, 2.4995005549390044, 2.865850403854438, 3.0491377595863014, 3.1324077935241803, 3.249197744317371, 3.3823112405611937, 3.43239271714765, 3.498910010071995, 3.74898635427553]",2017_Feb_09_1301,60.0478077213,famFaceFilter,001,16,
7,./img/smoo15_LisaEdelstein(DrLisaCuddy)2_2.png,0,62,62,6,,,1.ja,1.258,None,dummy,0.425,None,None,None,None,None,Dr House Darstellerin,"['lshift', 'd', 'r', 'space', 'lshift', 'h', 'o', 'u', 's', 'e', 'space', 'lshift', 'd', 'a', 'r', 's', 't', 'e', 'l', 'l', 'e', 'r', 'i', 'n', 'return']","[1.0833447742711542, 1.1665541819302234, 1.300041059067098, 1.4665099151229697, 1.5331863119331501, 1.6165968448672174, 1.766574390689584, 1.9329566377755327, 2.099928788180023, 2.2663880210170646, 2.4494508349744137, 2.516206783727739, 2.5996898115772638, 2.6993776985109434, 2.8661416666132027, 3.0993109775263292, 3.215841742957309, 3.2993834724420594, 3.4659389374683087, 3.565856819333476, 3.632384377024664, 3.6990017514258398, 3.83254091471872, 3.948663976442276, 4.198964541646092]",2017_Feb_09_1301,60.0478077213,famFaceFilter,001,16,
11,./img/smoo15_LeonardoDiCaprio3_1.png,0,63,63,10,,,1.ja,1.258,None,act,0.475,None,None,None,None,None,Leonardo diCaprio,"['lshift', 'l', 'e', 'i', 'o', 'backspace', 'backspace', 'o', 'n', 'a', 'r', 'd', 'o', 'space', 'd', 'i', 'lshift', 'c', 'a', 'p', 'r', 'i', 'o', 'return']","[0.8333627376132426, 1.333103873024811, 1.5168906738176702, 1.6664669314118328, 2.149599994867458, 2.2661188916617903, 2.7326345807164216, 2.8992920518626306, 3.0325486132942387, 3.182345242601059, 3.3990967005188395, 3.5486456923263177, 4.1820376203704654, 4.4484949285633775, 4.531815965561691, 4.865085678725336, 5.015012863035736, 5.648060921390879, 6.047855946828349, 6.347608950876747, 6.447679841922309, 6.581084280151117, 6.880797829001494]",2017_Feb_09_1301,60.0478077213,famFaceFilter,001,16,
21,./img/smoo15_NeilPatrickHarris(Barney)3_7.png,0,64,64,20,,,2.nein,3.579,None,dummy,1.057,None,None,None,None,None,,['return'],[0.5168743143453867],2017_Feb_09_1301,60.0478077213,famFaceFilter,001,16,
38,./img/smoo15_AlysonHannigan(Lily)5_4.png,0,65,65,37,,,1.ja,1.98,None,act,1.774,None,None,None,None,None,American Pie Darstellerin,"['lshift', 'a', 'm', 'e', 'r', 'c', 'i', 'backspace', 'backspace', 'i', 'c', 'a', 'n', 'space', 'lshift', 'p', 'i', 'e', 'space', 'lshift', 'd', 'a', 'r', 't', 'e', 'backspace', 'backspace', 's', 't', 'e', 'l', 'l', 'e', 'r', 'i', 'n', 'return']","[2.7992506720215715, 2.8492529174391166, 2.9992054428926167, 3.83230386276, 4.698547214719838, 5.181618689573952, 5.36480596382944, 5.698122509992118, 5.814649426135475, 6.064341483130647, 6.114341162356595, 6.297813925439186, 6.480840812712813, 6.6809514797300835, 7.464043163344286, 7.597309347994724, 7.913779487146712, 8.030396861547615, 8.397035407030216, 10.496015025052202, 10.5625137130869, 10.762524298627795, 10.929209035561144, 11.245378288735083, 11.362375780282491, 11.762174334233805, 11.91228435970288, 12.012119481885748, 12.178621698433744, 12.245252545341373, 12.461857088783745, 12.578341983537939, 12.695290717443186, 12.961363096880177, 13.14503089053278, 13.261545617265256, 13.544811160367772]",2017_Feb_09_1301,60.0478077213,famFaceFilter,001,16,
6,./img/smoo15_AlysonHannigan(Lily)1_1.png,0,66,66,5,,,1.ja,1.525,None,act,0.462,None,None,None,None,None,American Pie Darstellerin,"['lshift', 'a', 'm', 'e', 'r', 'i', 'c', 'a', 'n', 'space', 'lshift', 'p', 'i', 'e', 'space', 'lshift', 'd', 'a', 'r', 's', 't', 'e', 'l', 'l', 'e', 'r', 'i', 'n', 'return']","[0.9332915257932655, 1.1000519653821357, 1.499713228076871, 2.0329226357357584, 2.2327304921313953, 2.482550217163862, 4.032082849499147, 4.214726732660438, 4.365279426199777, 4.531641785299598, 4.748405432627806, 4.898332296164426, 5.181588216047658, 5.298214892893611, 5.89759772378784, 6.047912723819991, 6.1642141358670415, 6.230996708859038, 6.397649047622053, 6.5474033347659315, 6.864266101249086, 7.597200284847531, 7.730699992942846, 7.8304167495334696, 7.930540247509271, 7.997114638199037, 8.163723672476863, 8.263605627658308, 8.579735746408915]",2017_Feb_09_1301,60.0478077213,famFaceFilter,001,16,
53,./img/smoo15_GuentherJauch4_1.png,0,67,67,52,,,1.ja,1.281,None,None,None,host,0.741,None,None,None,Günter Jauch,"['lshift', 'g', u'\xfc', 'n', 't', 'e', 'r', 'space', 'lshift', 'j', 'a', 'u', 'c', 'h', 'return']","[0.5501655193652368, 0.6334410064605436, 0.8001148370790361, 0.9500516446082656, 1.0166334130990435, 1.083303073656225, 1.1497963085330412, 1.34983897147049, 1.4998190834844536, 1.6163613967783022, 1.7164813662402594, 1.832896973818606, 1.9162674100066397, 2.0163129599095555, 2.2494158706126655]",2017_Feb_09_1301,60.0478077213,famFaceFilter,001,16,
1,./img/smoo15_Ice-T(OdafinFinTutuola)6_1.png,0,68,68,0,,,2.nein,3.073,None,dummy,0.575,None,None,None,None,None,,['return'],[0.500127026489281],2017_Feb_09_1301,60.0478077213,famFaceFilter,001,16,
4,./img/smoo15_UrsulavonderLeyen1_1.png,0,69,69,3,,,1.ja,0.966,None,None,None,None,None,polit,0.907,None,Ursula von der Leyen,"['lshift', 'u', 'r', 's', 'u', 'l', 'a', 'space', 'lshift', 'c', 'backspace', 'v', 'o', 'n', 'space', 'd', 'e', 'r', 'space', 'lshift', 'l', 'e', 'c', 'a', 'backspace', 'backspace', 'y', 'e', 'n', 'return']","[0.5667848184098148, 0.6498242158681933, 0.7835555227657096, 0.9500468329988507, 1.033105156120655, 1.3000093024452326, 1.4997273421313366, 1.6498059317523257, 1.8829223149618883, 2.0496070518947818, 2.666003092261235, 2.799117230052616, 2.915965882481487, 3.0324405124688383, 3.149057886869741, 3.2657009231875236, 3.4323984910793115, 3.498943370564575, 3.5334381194948037, 3.565438209311651, 3.6822374625498924, 3.7987194703382556, 4.281945558243024, 4.531823343363158, 4.86504141191881, 4.981819814849587, 5.748135340950739, 6.31438671225942, 6.481122452252748, 6.79761857409585]",2017_Feb_09_1301,60.0478077213,famFaceFilter,001,16,
62,./img/smoo15_RobertSeanLeonard(Wilson)1_1.png,0,70,70,61,,,1.ja,1.818,None,act,0.425,None,None,None,None,None,Dr House Darsteller,"['lshift', 'd', 'r', 'space', 'lshift', 'h', 'o', 'u', 's', 'e', 'space', 'lshift', 'd', 'a', 'r', 's', 't', 'e', 'l', 'l', 'e', 'r', 'return']","[1.2496311099421291, 1.3330936082579683, 1.499476817665709, 1.6162504089870708, 1.6830653801494009, 1.7828873505995944, 1.9492455396380137, 2.0827936846021657, 2.2826743566879486, 2.365757379405295, 2.5159873743368735, 2.649394378757279, 2.699348828854454, 2.815876707319603, 2.9824408332424355, 3.1490559622257024, 3.2822740307815366, 3.382403944237012, 3.465517761254432, 3.5670677410457756, 3.648781058939221, 3.6988458552796146, 3.9820674523493835]",2017_Feb_09_1301,60.0478077213,famFaceFilter,001,16,
40,./img/smoo15_NeilPatrickHarris(Barney)2_2.png,0,71,71,39,,,2.nein,14.989,None,act,0.82,None,None,None,None,None,,['return'],[0.584240695950939],2017_Feb_09_1301,60.0478077213,famFaceFilter,001,16,
16,./img/edges5_BritneySpears7_1.png,0,0,0,15,,,1.ja,1.893,None,None,None,music,0.889,None,None,None,Britney Spears,"['lshift', 'b', 'r', 'i', 't', 'n', 'e', 'y', 'space', 'lshift', 's', 'p', 'e', 'a', 'r', 's', 'return']","[0.7331670654953086, 0.7667806483482309, 1.0665920332576206, 1.2999605448021612, 1.399833839087023, 1.6996516394756327, 1.7997754582256675, 2.0495092158357693, 2.3493379225392346, 2.449279541678152, 2.5326490155443935, 2.799112418443201, 2.9492602952400375, 3.199037036561549, 3.299040885849081, 3.4822910318011964, 3.8153525626630653]",2017_Feb_09_1301,60.0478077213,famFaceFilter,001,16,
51,./img/edges5_Ice-T(OdafinFinTutuola)6_1.png,0,1,1,50,,,2.nein,2.01,None,act,0.556,None,None,None,None,None,,['return'],[0.6168986931666041],2017_Feb_09_1301,60.0478077213,famFaceFilter,001,16,
61,./img/edges5_NeilPatrickHarris(Barney)2_2.png,0,2,2,60,,,2.nein,2.217,None,None,None,host,4.472,None,None,None,,['return'],[0.3836533588241764],2017_Feb_09_1301,60.0478077213,famFaceFilter,001,16,
3,./img/edges5_NicoleKidman5_1.png,0,3,3,2,,,1.ja,1.289,None,act,1.557,None,None,None,None,None,Nicole Kidman,"['lshift', 'n', 'i', 'c', 'o', 'l', 'e', 'space', 'lshift', 'k', 'i', 'd', 'm', 'a', 'n', 'return']","[0.6335741276548106, 0.750200162953206, 0.9166917939601262, 1.0332671469718662, 1.1500567769912777, 1.3165272369169543, 1.4998213289022715, 1.616214803076673, 1.6829361082418473, 1.766291788827857, 1.9994906109459407, 2.1161820841325607, 2.232898256914268, 2.3662241055217237, 2.4662247470696457, 2.7160685301491867]",2017_Feb_09_1301,60.0478077213,famFaceFilter,001,16,
68,./img/edges5_MariskaHargitay(Liv)4_4.png,0,4,4,67,,,2.nein,2.943,None,None,None,host,1.007,None,None,None,,['return'],[1.0167392685070809],2017_Feb_09_1301,60.0478077213,famFaceFilter,001,16,
60,./img/edges5_TomCruise1_1.png,0,5,5,59,,,1.ja,1.817,None,dummy,1.572,None,None,None,None,None,Tom Cruise,"['lshift', 't', 'o', 'm', 'space', 'lshift', 'c', 'r', 'u', 'i', 's', 'e', 'return']","[0.7168630872570247, 0.8667572318490784, 0.9831654616259584, 1.1499804327881975, 1.2831962559262138, 1.3498178003887915, 1.4332103699807703, 1.8330037915484354, 2.232781815965609, 2.41585040385462, 2.5159777511180437, 2.5993379225396893, 2.932620145887995]",2017_Feb_09_1301,60.0478077213,famFaceFilter,001,16,
13,./img/edges5_MariskaHargitay(Liv)6_5.png,0,6,6,12,,,2.nein,2.122,None,None,None,host,0.939,None,None,None,,['return'],[0.5333726816061244],2017_Feb_09_1301,60.0478077213,famFaceFilter,001,16,
12,./img/edges5_UrsulavonderLeyen4_1.png,0,7,7,11,,,1.ja,1.0,None,None,None,None,None,polit,0.823,None,Ursula von der Leyen,"['lshift', 'u', 'r', 's', 'u', 'l', 'a', 'space', 'v', 'o', 'n', 'space', 'd', 'e', 'r', 'space', 'lshift', 'l', 'e', 'y', 'e', 'n', 'return']","[0.7333640207093595, 0.8167594772667144, 1.0333155838407038, 1.299961827898187, 1.4664387033035382, 1.6995428971022193, 1.8330066785138115, 2.032900181558034, 2.3992975050200585, 2.516080398786471, 2.582617258922255, 2.7325296876301763, 2.899226934748185, 3.0657795128086036, 3.1323173352666345, 3.165600520937005, 3.2324302477018136, 3.3324042650106094, 3.4822024981876893, 3.7488118532396584, 3.965405490367175, 4.115510383453056, 4.398359561951111]",2017_Feb_09_1301,60.0478077213,famFaceFilter,001,16,
41,./img/edges5_OmarEpps(DrEricForeman)3_1.png,0,8,8,40,,,1.ja,1.698,None,act,0.539,None,None,None,None,None,Darsteller aus Dr House dunkelhäutig,"['lshift', 'd', 'r', 'a', 'backspace', 'backspace', 'a', 'r', 's', 't', 'e', 'l', 'l', 'e', 'r', 'space', 'a', 'u', 's', 'space', 'lshift', 'd', 'r', 'space', 'lshift', 'h', 'o', 'u', 's', 'e', 'space', 'd', 'u', 'n', 'k', 'e', 'l', 'h', u'\xe4', 'u', 't', 'i', 'g', 'return']","[1.3997558910136831, 1.4998652749354733, 1.7331118923739268, 1.9496901323514066, 2.382789193766712, 2.499313222944238, 2.582624636723267, 2.6993042412732393, 2.8491438542914693, 3.0493382433132865, 3.132500817973323, 3.2657509639257114, 3.3990075253573195, 3.5488038338903607, 3.6319917496934977, 3.815401320305682, 3.9488942921479975, 4.048391960121535, 4.11531022049985, 4.198684826749741, 4.51508311253383, 4.581695354551357, 4.7815988015881885, 4.948385865416185, 5.131586932951905, 5.23155164781565, 5.381485568379503, 5.531405374888436, 5.664450867051983, 5.714604197006338, 5.847971746229177, 6.18126455511856, 6.297856909150141, 6.464039955604676, 6.5477597146395965, 6.697670539477713, 6.8475213795845775, 7.197392107677388, 7.330639366663945, 7.530682350374718, 8.03033302752874, 8.13033591449448, 8.246936287875542, 8.613659517684027]",2017_Feb_09_1301,60.0478077213,famFaceFilter,001,16,
30,./img/edges5_MariskaHargitay(Liv)8_8.png,0,9,9,29,,,2.nein,1.417,None,None,None,host,1.589,None,None,None,,['return'],[0.45020786152826986],2017_Feb_09_1301,60.0478077213,famFaceFilter,001,16,
4,./img/edges5_LeonardoDiCaprio1_1.png,0,10,10,3,,,1.ja,1.389,None,act,0.556,None,None,None,None,None,Leonardo diCaprio,"['lshift', 'l', 'e', 'o', 'n', 'a', 'r', 'd', 'o', 'space', 'd', 'i', 'lshift', 'c', 'p', 'backspace', 'a', 'p', 'i', 'backspace', 'r', 'i', 'o', 'return']","[0.7334445349738417, 0.8499509215835133, 1.016780006800218, 1.0999544500969023, 1.716537501683888, 1.8662844110267542, 2.0827991377595936, 2.432828007415992, 2.582624957497046, 2.7825139697060877, 3.099127494819186, 3.1990549999036375, 3.4823378647997743, 3.5655556125816474, 3.8988166648487095, 4.631843552122518, 4.748393563991158, 4.981727431947547, 6.314480699030355, 6.830835359555294, 6.963862567602973, 7.463926722395627, 7.563742598140379, 7.963643478985887]",2017_Feb_09_1301,60.0478077213,famFaceFilter,001,16,
37,./img/edges5_JasonSegel(Marshall)9_1.png,0,11,11,36,,,1.ja,1.489,None,act,0.524,None,None,None,None,None,,['return'],[1.982943165269262],2017_Feb_09_1301,60.0478077213,famFaceFilter,001,16,
7,./img/edges5_AngelaMerkel3_1.png,0,12,12,6,,,1.ja,1.117,None,None,None,None,None,polit,0.856,None,Angela Merkel,"['lshift', 'a', 'n', 'g', 'e', 'l', 'e', 'backspace', 'a', 'space', 'lshift', 'm', 'e', 'k', 'backspace', 'r', 'k', 'e', 'l', 'return']","[0.5502065784326078, 0.6340007570265698, 0.7668791259552563, 0.8666103173736701, 0.9499804327883794, 0.9763448448416057, 1.0832347488021696, 1.632937712111925, 1.749671206687708, 1.8658879344084198, 1.8986832228802086, 1.9995797861079154, 2.1495201221509888, 2.282739794576628, 2.949241690350391, 3.0656617887639186, 3.1991316648809516, 3.332020298576481, 3.4323940002436757, 3.7489581261670537]",2017_Feb_09_1301,60.0478077213,famFaceFilter,001,16,
72,./img/edges5_EmilyDeschanel6_12.png,0,13,13,71,,,1.ja,1.967,None,act,0.539,None,None,None,None,None,Brooke Shields,"['lshift', 'b', 'r', 'o', 'o', 'k', 'e', 'space', 'lshift', 's', 'h', 'i', 'e', 'l', 'd', 's', 'return']","[0.6003570214211322, 0.7002181262951126, 0.8832661846499832, 1.1329566377753508, 1.2661945943168575, 1.4165134436366316, 1.5830958536753315, 1.6831529514411159, 1.7996718482349934, 1.8662590698836539, 2.032908521680838, 2.1994941394596026, 2.3324924778503373, 2.4493934164347593, 3.0325707466972744, 3.299161176085363, 3.6322044228313644]",2017_Feb_09_1301,60.0478077213,famFaceFilter,001,16,
6,./img/edges5_GuentherJauch3_1.png,0,14,14,5,,,1.ja,1.306,None,None,None,host,1.123,None,None,None,Günter Jauch,"['lshift', 'g', u'\xfc', 'n', 't', 'e', 'r', 'space', 'lshift', 'a', 'backspace', 'lshift', 'j', 'a', 'c', 'backspace', 'u', 'c', 'h', 'return']","[0.6833402834358822, 0.8167899507934635, 1.3163405464706557, 1.6497526832740732, 1.8329444483651969, 1.8995582942525289, 2.016213199206959, 2.182938353659665, 2.2659180871605713, 2.466128514880893, 2.7991262117238875, 3.0158564985599696, 3.099044093588873, 3.2324405124686564, 3.465613672669406, 3.8321251916622714, 4.148809287047698, 4.281807625438887, 4.381948765982543, 5.3649352357369935]",2017_Feb_09_1301,60.0478077213,famFaceFilter,001,16,
55,./img/edges5_JoachimLoew1_1.png,0,15,15,54,,,1.ja,1.597,None,None,None,None,None,sport,0.839,None,Jogi Löw,"['lshift', 'j', 'i', 'backspace', 'o', 'g', 'i', 'space', 'lshift', 'l', u'\xf6', 'w', 'e', 'backspace', 'return']","[0.700039134423605, 0.7666735098446225, 2.049521405246651, 2.5159822419532247, 2.7992609367879595, 2.9325652935399376, 3.0824764391522876, 3.432340430991644, 3.5822098759886103, 3.7321579106064746, 3.832265369884226, 4.0322377833235805, 4.148691563003013, 4.548538553822709, 4.898329409198595]",2017_Feb_09_1301,60.0478077213,famFaceFilter,001,16,
71,./img/edges5_HughLaurie(DrHouse)4_1.png,0,16,16,70,,,1.ja,1.465,None,act,1.056,None,None,None,None,None,Dr House Hauptdarsteller,"['lshift', 'd', 'r', 'space', 'lshift', 'h', 'o', 'u', 's', 'e', 'space', 'lshift', 'h', 'a', 'u', 'p', 't', 'd', 'a', 'r', 's', 't', 'e', 'l', 'l', 'e', 'r', 'return']","[0.866656188050456, 0.9500734572375222, 1.133350227428764, 1.2334406856866735, 1.2829130125164738, 1.3664909894591801, 1.5164823285622333, 1.6665522572861846, 1.7662253886178405, 1.8497016802139115, 1.9831994636660966, 2.082695527769374, 2.299433192406468, 2.4660832857516652, 2.7493821893463064, 2.8992487473778965, 3.0492192361730304, 3.732061678417722, 3.915566518896867, 4.415315032109447, 4.5817999268633685, 4.7316328036285995, 4.831887498155538, 4.914878779519313, 5.0317543769606345, 5.115094660396608, 5.198254989638826, 5.548099735040523]",2017_Feb_09_1301,60.0478077213,famFaceFilter,001,16,
33,./img/edges5_BarackObama2_1.png,0,17,17,32,,,1.ja,1.179,None,None,None,None,None,polit,0.639,None,Barack Obama,"['lshift', 'b', 'a', 'r', 'a', 'c', 'k', 'space', 'lshift', 'o', 'b', 'a', 'm', 'a', 'return']","[0.8167203428433822, 0.9001129124353611, 1.2497430600556072, 1.4162497674392398, 1.4830766072382175, 1.6660223386988946, 1.7830066785140843, 2.032937712112016, 2.166125627915335, 2.3161022114159096, 2.8492551628569345, 2.9492121791458885, 3.082416454421491, 3.1824636081942117, 3.5321409095872696]",2017_Feb_09_1301,60.0478077213,famFaceFilter,001,16,
49,./img/edges5_RobertSeanLeonard(Wilson)2_6.png,0,18,18,48,,,1.ja,1.456,None,act,0.406,None,None,None,None,None,Dr House Darsteller,"['lshift', 'd', 'r', 'space', 'lshift', 'h', 'o', 'u', 's', 'e', 'space', 'lshift', 'd', 'a', 'r', 's', 't', 'e', 'l', 'l', 'e', 'r', 'return']","[0.6335131806026766, 0.7668371045665481, 0.933368832319502, 1.0500612678270045, 1.0737363109719809, 1.1833932111403556, 1.2998178003890644, 1.4665006126788285, 1.5830121316721488, 1.6329957722000472, 1.7995951832590436, 1.9163485658200443, 1.9996237321411172, 2.082844687663055, 2.299397907270759, 2.482604748738595, 2.6659238610927787, 2.7325829361088836, 2.849385397086735, 2.983132742681846, 3.0110994206825126, 3.0657814374526424, 3.315624258210846]",2017_Feb_09_1301,60.0478077213,famFaceFilter,001,16,
57,./img/edges5_BritneySpears5_1.png,0,19,19,56,,,1.ja,1.408,None,None,None,music,0.606,None,None,None,Britney Spears,"['lshift', 'b', 'r', 'i', 't', 'n', 'e', 'y', 'space', 'lshift', 's', 'p', 'e', 'a', 'r', 's', 'return']","[0.500202729144803, 0.5836880024126003, 0.8832896011499543, 1.033234428027754, 1.1165468041290296, 1.2830608893136741, 1.383226729452872, 1.5496554887631646, 1.6996814714548236, 1.7661804802628467, 1.882891841435594, 2.0495788237858505, 2.166067247054343, 2.416067247054343, 2.5492439357685726, 2.715557537226232, 2.99903575346616]",2017_Feb_09_1301,60.0478077213,famFaceFilter,001,16,
67,./img/edges5_LeonardoDiCaprio2_1.png,0,20,20,66,,,1.ja,0.958,None,act,0.907,None,None,None,None,None,Leonardo diCaprio,"['lshift', 'l', 'e', 'o', 'n', 'a', 'r', 'd', 'o', 'space', 'd', 'i', 'space', 'backspace', 'lshift', 'c', 'a', 'p', 'r', 'i', 'o', 'o', 'backspace', 'return']","[1.3996917362210297, 1.5498508401069557, 1.7328774066063488, 1.8993068074651092, 2.632382452380625, 2.832505308809232, 3.0659007653666777, 3.4156297113677283, 3.9820886234301724, 4.298639597621332, 4.531857986950854, 4.631787095904656, 4.8984570772354346, 5.364749507612032, 5.63136239117739, 5.697962764557815, 6.097605743137137, 6.414469471941629, 6.764328010624013, 7.014028407742444, 7.043022524747357, 7.097369332725975, 7.913834339494315, 8.313571946392585]",2017_Feb_09_1301,60.0478077213,famFaceFilter,001,16,
31,./img/edges5_GeorgeClooney4_2.png,0,21,21,30,,,1.ja,1.261,None,act,0.812,None,None,None,None,None,George Clooney,"['lshift', 'g', 'e', 'o', 'r', 'g', 'e', 'space', 'lshift', 'c', 'l', 'o', 'o', 'n', 'e', 'y', 'return']","[1.1832001052134729, 1.2499371283029177, 1.383160970789504, 1.5331728394266975, 1.5998206873537129, 1.7663126391353217, 1.8330820603950997, 1.9829223149608879, 2.066187216515573, 2.232795930019165, 2.4993748115448398, 2.749330223963625, 2.8655860861081237, 3.082552141807355, 3.182333053190632, 3.332234575583243, 3.515686167585045]",2017_Feb_09_1301,60.0478077213,famFaceFilter,001,16,
14,./img/edges5_AngelaMerkel4_1.png,0,22,22,13,,,1.ja,1.276,None,None,None,None,None,polit,0.639,None,Angela Merkel,"['lshift', 'a', 'n', 'g', 'e', 'l', 'a', 'space', 'lshift', 'm', 'e', 'r', 'k', 'e', 'l', 'return']","[0.65007826884721, 0.7334307416940646, 0.9000019246441298, 0.9249709699561208, 0.9665846554571544, 1.0833049983002638, 1.2166658112691948, 1.3831176663052247, 1.4664759130828315, 1.5494729683778132, 1.7163004497251677, 1.766251692082733, 1.8830073200615516, 2.0159463152695025, 2.4494636659328535, 3.065716641111976]",2017_Feb_09_1301,60.0478077213,famFaceFilter,001,16,
70,./img/edges5_BastianSchweinsteiger1_1.png,0,23,23,69,,,1.ja,1.246,None,None,None,None,None,sport,0.739,None,Bastian Schweinsteiger,"['lshift', 'b', 'a', 's', 't', 'i', 'a', 'n', 'space', 'lshift', 's', 'c', 'h', 'w', 'e', 'i', 'n', 's', 't', 'e', 'i', 'g', 'e', 'r', 'return']","[0.5169622064113355, 0.5668707858321795, 0.7000510030602527, 0.7665766361078568, 0.966651055667171, 1.0332039545019143, 1.1499611863500832, 1.3165111982189046, 1.4165362185885897, 1.4498091394916628, 1.5331048353464212, 1.5997398523159063, 1.7830333027532106, 1.8329559962276107, 1.916175347879289, 1.9828703495795708, 2.09959390016229, 2.51595016455758, 2.6493821893463974, 2.7159116716811695, 2.832506912678582, 2.982336260930424, 3.0658273081289735, 3.165686488358915, 3.3656791105577213]",2017_Feb_09_1301,60.0478077213,famFaceFilter,001,16,
45,./img/edges5_WillSmith4_1.png,0,24,24,44,,,1.ja,2.277,None,act,0.49,None,None,None,None,None,Will Smith,"['lshift', 'w', 'i', 'l', 'space', 'lshift', 'backspace', 'l', 'space', 'backspace', 'backspace', 'l', 'space', 'lshift', 's', 'm', 'i', 't', 'h', 'return']","[0.5336562457905529, 0.6168707858323614, 0.7503541344558471, 0.9000375305540729, 1.1001696894272754, 1.1999743380829386, 1.5998659164833953, 1.83321550236451, 1.9997908553759771, 2.450506822862735, 3.28257684140317, 4.248894933696647, 5.0318701763617355, 5.148460605750188, 5.248280972330576, 5.348273594529019, 5.514859533082017, 5.948098131171719, 6.081316841275111, 6.364565383357331]",2017_Feb_09_1301,60.0478077213,famFaceFilter,001,16,
32,./img/edges5_Ice-T(OdafinFinTutuola)7_1.png,0,25,25,31,,,2.nein,2.049,None,act,0.407,None,None,None,None,None,,['return'],[0.6168322929570422],2017_Feb_09_1301,60.0478077213,famFaceFilter,001,16,
15,./img/edges5_LisaEdelstein(DrLisaCuddy)6_3.png,0,26,26,14,,,1.ja,1.638,None,act,0.573,None,None,None,None,None,Dr House Darstellerin,"['lshift', 'd', 'r', 'space', 'lshift', 'h', 'o', 'u', 's', 'e', 'space', 'lshift', 'd', 'a', 'r', 's', 't', 'e', 'l', 'l', 'e', 'r', 'i', 'n', 'return']","[0.8500144348281538, 0.9334650645068905, 1.0997738543555897, 1.6164018142972054, 1.716370378449028, 1.8163459996276288, 1.9662395026716695, 2.1327760420335835, 2.2491008705801505, 2.2823952833396106, 2.4494489103308297, 2.549435117050052, 2.6159918651719636, 2.6993260539029507, 2.8826323352986947, 3.065694186933797, 3.2489392005027184, 3.33242319067449, 3.4656297113670007, 3.598929577283343, 3.682310919786687, 3.748757642439159, 3.915373092196205, 4.032330486998944, 4.731628633566288]",2017_Feb_09_1301,60.0478077213,famFaceFilter,001,16,
18,./img/edges5_JoshRadnor(Ted)6_2.png,0,27,27,17,,,2.nein,4.539,None,act,1.084,None,None,None,None,None,,['return'],[0.516973433500425],2017_Feb_09_1301,60.0478077213,famFaceFilter,001,16,
34,./img/edges5_KatjaBurkard1_1.png,0,28,28,33,,,1.ja,1.039,None,None,None,host,0.506,None,None,None,Katja Burkhard,"['lshift', 'k', 'a', 't', 'j', 'a', 'space', 'lshift', 'b', 'u', 'r', 'k', 'h', 'a', 'r', 'd', 'return']","[0.5668091972311231, 0.6501587831126017, 0.7668634080309857, 0.9833771724424878, 1.1667110403986953, 1.2667180974258372, 1.3500099439934274, 1.499869124223551, 1.7498582179086952, 1.9664143244826846, 2.0675415241903465, 2.1828395552793154, 2.366156101442357, 2.482784061383427, 2.5494088135856146, 2.732739794576446, 3.0504580652204822]",2017_Feb_09_1301,60.0478077213,famFaceFilter,001,16,
48,./img/edges5_GeorgeClooney3_1.png,0,29,29,47,,,1.ja,1.584,None,act,2.472,None,None,None,None,None,George Clooney,"['lshift', 'g', 'e', 'o', 'r', 'g', 'e', 'space', 'lshift', 'c', 'l', 'o', 'o', 'n', 'e', 'a', 'backspace', 'y', 'return']","[0.7001376120306304, 0.800116440948841, 0.9498315936689323, 1.049963110994213, 1.150121252558165, 1.3665095943488268, 1.416449609618212, 1.5498825967297307, 1.666375831606274, 1.9828828597637767, 2.1662244262961394, 2.4661448743527217, 2.8826156550521773, 3.1658696502918247, 3.315698677769433, 3.4822794839392373, 4.082189667228704, 4.1820773963418105, 4.931509626426305]",2017_Feb_09_1301,60.0478077213,famFaceFilter,001,16,
27,./img/edges5_OmarEpps(DrEricForeman)2_2.png,0,30,30,26,,,1.ja,1.395,None,act,1.19,None,None,None,None,None,Dr House Darsteller dunkelhäutig,"['lshift', 'd', 'r', 'space', 'lshift', 'h', 'o', 'u', 's', 'e', 'space', 'lshift', 'd', 'a', 'r', 's', 't', 'e', 'l', 'l', 'e', 'r', 'space', 'd', 'u', 'n', 'k', 'e', 'l', 'h', u'\xe4', 'u', 't', 'i', 'g', 'return']","[0.7668361422438466, 0.8501684063303401, 1.0167658927457524, 1.1501421028651748, 1.2666420739960813, 1.3501000814767394, 1.499931354371256, 1.6833011490116405, 1.799793742341535, 1.8997465885686324, 2.066419136091099, 2.1495913339704202, 2.2162808825132743, 2.3663909079823497, 2.6162295586791515, 2.899410738228653, 3.1160277918561405, 3.1992185946246536, 3.3989748064122978, 3.515779833582201, 3.5992535589866748, 3.6822749931034195, 3.8821559859625268, 4.165368922134803, 4.298789399062116, 4.498771756493625, 4.548621955053022, 4.681874346422774, 4.86525472660378, 5.265154965901274, 5.381421734360629, 5.5649496705646015, 5.798183136271291, 5.8980843378903955, 6.031501927851423, 6.314745658323773]",2017_Feb_09_1301,60.0478077213,famFaceFilter,001,16,
59,./img/edges5_BastianSchweinsteiger3_1.png,0,31,31,58,,,1.ja,1.908,None,None,None,None,None,sport,0.94,None,Bastian Schweinsteiger,"['lshift', 'b', 'a', 's', 't', 'i', 'a', 'n', 'space', 'lshift', 's', 'c', 'w', 'e', 'backspace', 'backspace', 'h', 'w', 'e', 'i', 'n', 's', 't', 'e', 'i', 'g', 'e', 'r', 'return']","[0.9331898404470849, 0.9832042752750567, 1.1331952936043308, 1.2330820603956454, 1.3997632688151498, 1.4664887440412713, 1.5662949965681037, 1.6663918703043237, 1.7995287830481175, 1.8326878291945832, 1.9993870009557213, 2.0661063814768568, 2.3159828835014196, 2.4327773251297913, 2.7324802884395467, 2.8825611234788084, 3.4486578817368354, 3.8819551814622173, 3.96530508811702, 4.048654673997589, 4.148548177041448, 4.648145605717218, 4.865058412939106, 4.914834512712332, 5.081452207887196, 5.164717750989439, 5.2814727374207, 5.398010880652691, 6.031189494011414]",2017_Feb_09_1301,60.0478077213,famFaceFilter,001,16,
69,./img/edges5_GuentherJauch2_1.png,0,32,32,68,,,1.ja,1.256,None,None,None,host,0.59,None,None,None,Günter Jauch,"['lshift', 'g', u'\xfc', 'n', 't', 'e', 'r', 'space', 'lshift', 'j', 'a', 'u', 'c', 'h', 'return']","[0.516850577072546, 0.6334400441382968, 0.7668637288043101, 0.9333066021699779, 1.0166812084198682, 1.0423575603217614, 1.1330692294368419, 1.2499499592613574, 1.6997000763440155, 1.7829746011175303, 1.8828802935722706, 1.9830470960332605, 2.0827179819470985, 2.149423569188002, 2.3660813611077174]",2017_Feb_09_1301,60.0478077213,famFaceFilter,001,16,
2,./img/edges5_OmarEpps(DrEricForeman)1_5.png,0,33,33,1,,,1.ja,1.539,None,dummy,0.54,None,None,None,None,None,Dr House Darsteller dunkelhäutig,"['lshift', 'd', 'r', 'space', 'lshift', 'h', 'o', 'u', 's', 'e', 'space', 'lshift', 'd', 'a', 'r', 's', 't', 'e', 'l', 'l', 'e', 'r', 'space', 'd', 'u', 'n', 'k', 'e', 'k', 'l', 'backspace', 'backspace', 'l', u'\xe4', 'backspace', 'h', u'\xe4', 'u', 't', 'i', 'g', 'return']","[3.2490870772999187, 3.3487691903019368, 3.54903479114364, 4.21524317874173, 4.348715941824594, 4.431999448268471, 4.631816927883847, 4.798519307384595, 4.931640822977897, 4.998299256445534, 5.11492529174393, 5.248176079244331, 5.298201741161392, 5.414873647136119, 5.581626388149743, 5.781322294432357, 5.931287330069608, 6.031345390157185, 6.164645897621995, 6.281156133519289, 6.364453112470073, 6.431000878920713, 6.597548324597483, 7.2141236776096775, 7.313801620550294, 7.497283044529468, 7.580525812681117, 7.663957837470662, 7.830376332013657, 8.097113996651387, 8.363576437227493, 8.513419899533801, 8.747460111757391, 9.079984987778516, 9.479778088571948, 9.84618856376619, 9.979644005054979, 10.212814278290352, 10.412890943267485, 10.495765783683055, 10.629374554926471, 10.979097406221626]",2017_Feb_09_1301,60.0478077213,famFaceFilter,001,16,
63,./img/edges5_LisaEdelstein(DrLisaCuddy)2_2.png,0,34,34,62,,,1.ja,1.778,None,act,0.474,None,None,None,None,None,Dr House Darstellerin,"['lshift', 'd', 'r', 'space', 'lshift', 'h', 'o', 'u', 's', 'e', 'space', 'lshift', 'd', 'a', 'r', 's', 't', 'e', 'l', 'l', 'e', 'r', 'i', 'n', 'return']","[1.0832482213081676, 1.2001305550029429, 1.383278053286631, 1.5166443194138992, 1.599923014248816, 1.6828328190249522, 1.8163091106216598, 1.9497854022183674, 2.0492939765063056, 2.099601277963302, 2.249645544769919, 2.3495393685880117, 2.3996317514893235, 2.4825774829505463, 2.6495018380346664, 2.8326461285787445, 2.999198385865384, 3.082555349546965, 3.182530649952241, 3.299165987694323, 3.3488503461148866, 3.432415171325374, 3.549076812532803, 3.648958767714248, 3.899029337986576]",2017_Feb_09_1301,60.0478077213,famFaceFilter,001,16,
25,./img/edges5_JoachimLoew8_1.png,0,35,35,24,,,1.ja,1.011,None,None,None,None,None,sport,1.122,None,Jogi Löw,"['lshift', 'j', 'o', 'g', 'i', 'space', 'lshift', 'l', u'\xf6', 'w', 'return']","[0.5834086082904832, 0.6834791785622656, 1.149874577380615, 1.8997449846992822, 1.9995701628895404, 2.2495656720539046, 2.3825515002599786, 2.4825932008752716, 2.5993003919857074, 2.949080661820517, 3.4490492259728853]",2017_Feb_09_1301,60.0478077213,famFaceFilter,001,16,
10,./img/edges5_GuentherJauch4_1.png,0,36,36,9,,,1.ja,1.262,None,None,None,host,0.623,None,None,None,Günter Jauch,"['lshift', 'g', u'\xfc', 't', 'e', 'r', 'backspace', 'backspace', 'backspace', 'n', 't', 'e', 'r', 'space', 'lshift', 'k', 'a', 'u', 'backspace', 'backspace', 'backspace', 'lshift', 'j', 'a', 'u', 'c', 'h', 'return']","[0.5834031551321459, 0.700246995951602, 0.8002457128559399, 1.0167216259387715, 1.0834666683767864, 1.166664848947221, 1.4665955617711006, 1.5832966581765504, 1.7163241869975536, 1.9829033892974621, 2.1163966819140114, 2.1828812558942445, 2.2661984436044804, 2.299162779954713, 2.349519480602794, 2.4828116479438904, 2.6493703207097496, 2.782659280311236, 3.0658718957092788, 3.1988128155608138, 3.349157968345935, 3.7155482347807265, 3.7822512558295784, 3.8654353223455473, 4.015771172685163, 4.098748339994017, 4.1986925253249865, 4.415208855927631]",2017_Feb_09_1301,60.0478077213,famFaceFilter,001,16,
24,./img/edges5_JasonSegel(Marshall)7_1.png,0,37,37,23,,,1.ja,1.495,None,act,0.423,None,None,None,None,None,,['return'],[0.5168322929566784],2017_Feb_09_1301,60.0478077213,famFaceFilter,001,16,
50,./img/edges5_WillSmith5_1.png,0,38,38,49,,,1.ja,1.434,None,act,0.457,None,None,None,None,None,Will Smith,"['lshift', 'w', 'i', 'l', 'space', 'backspace', 'l', 'space', 'lshift', 's', 'm', 'i', 't', 'h', 'return']","[0.4999711303426011, 0.58331911235382, 0.7339452631304084, 0.8838811083378459, 1.1668906738177611, 1.6169079956116548, 1.8334268924054413, 2.166636300064056, 2.30000866089631, 2.400009623218466, 2.4996554887629827, 2.6664736676648317, 2.7665702206277274, 2.866489706363609, 3.1163649252912364]",2017_Feb_09_1301,60.0478077213,famFaceFilter,001,16,
38,./img/edges5_GeorgeClooney11_1.png,0,39,39,37,,,1.ja,1.13,None,act,0.406,None,None,None,None,None,George Clooney,"['lshift', 'g', 'e', 'o', 'r', 'g', 'e', 'space', 'lshift', 'c', 'l', 'o', 'o', 'n', 'e', 'y', 'return']","[0.5673750425021353, 0.7671687848433066, 1.000380117146051, 1.1003531721335094, 1.2166010149285285, 1.399531349238714, 1.4831372335165725, 1.5828636133255714, 1.6663116768131658, 1.7830839850385019, 1.9335799015861994, 2.1335792600384593, 2.266137496550982, 2.4164079090023733, 2.5666488102488074, 2.7498222912236088, 3.299609938860158]",2017_Feb_09_1301,60.0478077213,famFaceFilter,001,16,
44,./img/edges5_EmilyDeschanel5_1.png,0,40,40,43,,,1.ja,1.612,None,act,0.406,None,None,None,None,None,Brooke Shields,"['lshift', 'b', 'r', 'o', 'o', 'k', 'e', 'space', 'lshift', 's', 'h', 'i', 'e', 'l', 'd', 's', 'return']","[0.8168184996766286, 0.9167447216650544, 1.1667100780769033, 1.4167171351036814, 1.5331622538860756, 1.9829579208717405, 2.0996904531257314, 2.266380963989832, 2.349558615026581, 2.516228596357905, 2.716092267422937, 2.8659039731064695, 2.9326470909009004, 3.0827154157550467, 3.365672374305177, 3.5657467938644913, 3.8656925830646287]",2017_Feb_09_1301,60.0478077213,famFaceFilter,001,16,
64,./img/edges5_EmilyDeschanel3_1.png,0,41,41,63,,,1.ja,1.823,None,act,0.872,None,None,None,None,None,Brooke Shields,"['lshift', 'b', 'r', 'o', 'o', 'k', 'e', 'space', 'lshift', 's', 'h', 'i', 'e', 'l', 'd', 's', 'return']","[0.6834868771375113, 0.7500583808614465, 0.9664512134877441, 1.0999650356379789, 1.2332446927948695, 1.449798553951041, 1.683103552250941, 1.9163886625647137, 1.9996157127916376, 2.083305960622056, 2.266212557658946, 2.416091946648521, 2.5160977205805466, 2.89934786653248, 3.098842647539641, 3.2991027952239165, 3.615632277559598]",2017_Feb_09_1301,60.0478077213,famFaceFilter,001,16,
42,./img/edges5_JoachimLoew4_1.png,0,42,42,41,,,1.ja,1.289,None,None,None,None,None,sport,0.772,None,Jogi Löw,"['lshift', 'j', 'o', 'g', 'i', 'space', 'lshift', 'l', u'\xf6', 'w', 'return']","[0.5668537848114283, 0.6169545078364536, 0.7834522335488145, 0.9167758367384522, 1.0167004548575278, 1.232949901522261, 1.299803044786131, 1.4332565614313353, 1.5166504141188852, 1.8830875135527094, 2.249560539669801]",2017_Feb_09_1301,60.0478077213,famFaceFilter,001,16,
52,./img/edges5_BarackObama4_1.png,0,43,43,51,,,1.ja,1.684,None,None,None,None,None,polit,1.44,None,Barack Obama,"['lshift', 'b', 'a', 'r', 'a', 'c', 'k', 'space', 'lshift', 'o', 'b', 'a', 'm', 'a', 'return']","[0.8333646622568267, 0.9165375016837061, 1.0998556517160978, 1.3497491547605023, 1.3997055295012615, 1.566329319382021, 1.732947656104443, 1.916202613666428, 1.9828097233003064, 2.1493882840513834, 2.3658157602667416, 2.499366471422036, 2.6657711726857087, 2.799278579355814, 3.0490206770891746]",2017_Feb_09_1301,60.0478077213,famFaceFilter,001,16,
35,./img/edges5_WillSmith1_1.png,0,44,44,34,,,1.ja,1.935,None,act,0.458,None,None,None,None,None,Will Smith,"['lshift', 'w', 'i', 'l', 'l', 'space', 'lshift', 's', 'm', 'i', 't', 'h', 'return']","[0.5335564850875016, 0.650266563164223, 0.7667213051654471, 0.9334041174552112, 1.0830535115128441, 1.433174122523269, 1.4829983383915533, 1.6331580838250375, 1.6997684011985257, 1.883024962629861, 1.9494229276406259, 2.0661820841332883, 2.2992493889260004]",2017_Feb_09_1301,60.0478077213,famFaceFilter,001,16,
47,./img/edges5_UrsulavonderLeyen5_1.png,0,45,45,46,,,1.ja,1.259,None,None,None,None,None,polit,1.04,None,Ursula von der Leyen,"['lshift', 'u', 's', 'u', 'r', 'backspace', 'backspace', 'backspace', 'r', 'u', 's', 'backspace', 'backspace', 's', 'u', 'l', 'a', 'space', 'lshift', 'v', 'o', 'n', 'space', 'd', 'backspace', 'backspace', 'backspace', 'backspace', 'backspace', 'v', 'o', 'n', 'space', 'd', 'e', 'r', 'space', 'lshift', 'l', 'e', 'y', 'e', 'n', 'return']","[0.583553598121398, 0.7000365682315532, 0.8333848710162783, 0.9833406042098431, 1.1166873031243085, 1.4330807772994376, 1.5664544212277178, 1.6660569822870457, 2.0325758790804684, 2.232832819025134, 2.3493738492234115, 2.8491727239479587, 2.9658340443820634, 3.032638430003317, 3.1991072860591885, 3.382210517536805, 3.515696432351433, 3.6489154632290592, 3.7822188576592453, 4.282017732384702, 4.381842910574051, 4.481826230327897, 4.614929461805332, 4.68184675986231, 5.014888081964273, 5.148261405118319, 5.247908232984628, 5.348017937680197, 5.498244404097932, 5.598062525260502, 5.7480506566244, 5.8979954835022, 6.047607347006306, 6.147724429502887, 6.3145432499532035, 6.397739505879144, 6.423349136796787, 6.480958536757498, 6.564188473949798, 6.680999595824687, 6.897577194254154, 7.264044767213818, 7.397321216631099, 7.663905551314201]",2017_Feb_09_1301,60.0478077213,famFaceFilter,001,16,
40,./img/edges5_NicoleKidman3_1.png,0,46,46,39,,,1.ja,1.551,None,act,0.857,None,None,None,None,None,Nicole Kidman,"['lshift', 'n', 'i', 'c', 'o', 'l', 'e', 'space', 'lshift', 'k', 'd', 'i', 'm', 'a', 'backspace', 'backspace', 'backspace', 'backspace', 'i', 'd', 'm', 'a', 'n', 'return']","[0.8666122420172542, 0.9001103462433093, 1.515773418102981, 1.6657137541460543, 1.8822708230418357, 2.048901990723607, 2.165546951685428, 2.3325454055548107, 2.399283711739372, 2.4660707755674593, 2.6493725661275676, 2.7325553495475106, 2.9158824812502644, 3.049178177106114, 3.3490594907389095, 3.4821527782232806, 3.5656435046475963, 3.6988702341004682, 4.265062903774378, 4.39854593162363, 4.5484923623716895, 4.698269424467071, 4.831731922783547, 5.148090432595382]",2017_Feb_09_1301,60.0478077213,famFaceFilter,001,16,
66,./img/edges5_BritneySpears1_1.png,0,47,47,65,,,1.ja,1.248,None,None,None,music,2.022,None,None,None,Britney Spears,"['lshift', 'b', 'r', 'i', 't', 'n', 'e', 'y', 'space', 'lshift', 's', 'p', 'e', 'a', 'r', 's', 'return']","[0.6500493991907206, 0.7667886676972557, 0.9832402019592337, 1.083102910703019, 1.1832267294530538, 1.5662359741581895, 1.6497642311369418, 1.8328741988671027, 1.9829091632291238, 2.08274139844616, 2.149461741289997, 2.3493289408688725, 2.466077511820913, 2.6659257857363627, 2.782454947297083, 2.9990902850395287, 3.348949144496146]",2017_Feb_09_1301,60.0478077213,famFaceFilter,001,16,
1,./img/edges5_BastianSchweinsteiger6_2.png,0,48,48,0,,,1.ja,1.126,None,None,None,None,None,sport,1.373,None,Bastian Schweinsteiger,"['lshift', 'b', 'a', 's', 't', 'i', 'a', 'n', 'space', 'lshift', 's', 'c', 'h', 'w', 'e', 'i', 'n', 's', 't', 'e', 'i', 'g', 'e', 'r', 'return']","[0.6003053768135942, 0.6504324033030571, 0.800152367633018, 0.8668775220858151, 1.0334900848765756, 1.1169294874671323, 1.2001132332088673, 1.2834201561527152, 1.4334410064602707, 1.4582124550115623, 1.5500192464378415, 1.633271637807411, 1.7498951069137547, 1.849918844187414, 1.9164419110429662, 1.9662234639736198, 2.049716115042429, 2.4995287830479356, 2.649598390998108, 2.7161891411597026, 2.949308732108875, 3.0826387507777326, 3.2158160810404297, 3.282498251782272, 3.4991454581613652]",2017_Feb_09_1301,60.0478077213,famFaceFilter,001,16,
8,./img/edges5_LeonardoDiCaprio3_1.png,0,49,49,7,,,1.ja,1.239,None,act,0.407,None,None,None,None,None,Leonardo diCaprio,"['lshift', 'l', 'e', 'o', 'n', 'a', 'r', 'd', 'o', 'space', 'lshift', 'd', 'backspace', 'd', 'i', 'space', 'lshift', 'c', 'backspace', 'backspace', 'lshift', 'c', 'a', 'p', 'r', 'i', 'o', 'return']","[0.7832549575614394, 0.9499037678115201, 1.1330836642655413, 1.2332353903502735, 1.5165057450622044, 1.6829556754537407, 1.932657997215756, 2.2327875898972707, 2.3491351933944316, 2.5661243448194, 2.8158241003893636, 3.149040244301432, 3.615471890578192, 3.832016128514624, 3.932018373932806, 4.2487374336797075, 4.54837271368342, 4.681928557222818, 5.181606820937304, 5.298061562939438, 5.54806894074045, 5.61453234363853, 5.831287971617712, 6.514090958665292, 6.814214777415145, 6.897539984474861, 7.047465564915001, 7.5137942427491]",2017_Feb_09_1301,60.0478077213,famFaceFilter,001,16,
43,./img/edges5_BarackObama1_3.png,0,50,50,42,,,1.ja,1.323,None,None,None,None,None,polit,1.639,None,Barack Obama,"['lshift', 'b', 'a', 'r', 'a', 'c', 'k', 'space', 'lshift', 'o', 'b', 'a', 'm', 'a', 'return']","[0.5169070332904084, 0.5833819840509022, 1.0163970026878815, 1.2166815291939201, 1.299838009148516, 1.4331831041936312, 1.5493767361895152, 1.7164313255025263, 1.7828812558946083, 1.9496586965033202, 2.166128194106932, 2.2826365053606423, 2.4495319907873636, 2.5659925067202494, 2.882532253822319]",2017_Feb_09_1301,60.0478077213,famFaceFilter,001,16,
62,./img/edges5_AlysonHannigan(Lily)5_4.png,0,51,51,61,,,1.ja,1.863,None,act,4.372,None,None,None,None,None,American Pie Darstellerin rote Haare,"['lshift', 'a', 'm', 'e', 'r', 'i', 'c', 'a', 'n', 'space', 'lshift', 'p', 'e', 'i', 'backspace', 'backspace', 'i', 'e', 'space', 'lshift', 'd', 'a', 'r', 's', 't', 'e', 'l', 'l', 'e', 'r', 'i', 'n', 'space', 'r', 'o', 't', 'e', 'space', 'lshift', 'h', 'a', 'a', 'r', 'e', 'return']","[6.014770999467146, 6.131455415626078, 6.297600610752852, 6.41460932938935, 6.881103526588959, 7.114038351734962, 7.364255515707555, 7.547462677948715, 7.730784035720717, 7.880783394172795, 7.947203813360829, 8.097307744124919, 8.24713292231445, 8.397115921294244, 8.830270155831386, 8.946892662615937, 9.163419899533437, 9.246818884604181, 9.380148582499714, 9.979555150666783, 10.113059028823955, 10.26306384043346, 10.42956798162595, 10.5962745311881, 10.779391235171715, 10.896105804084073, 11.21248708884741, 11.329243358374697, 11.479113124145442, 11.5457426879575, 11.695741084087786, 11.81242165095864, 11.94556626227768, 12.82849627581436, 12.961887241535806, 13.078438536500471, 13.161741930930475, 13.228324982517734, 13.39491156261829, 13.644761440403272, 13.778166520179184, 13.961182821912189, 14.228078628113508, 14.544640508618613, 15.37756089893628]",2017_Feb_09_1301,60.0478077213,famFaceFilter,001,16,
56,./img/edges5_NeilPatrickHarris(Barney)1_1.png,0,52,52,55,,,2.nein,2.074,None,act,2.973,None,None,None,None,None,,['return'],[0.4671469722143229],2017_Feb_09_1301,60.0478077213,famFaceFilter,001,16,
23,./img/edges5_UrsulavonderLeyen1_1.png,0,53,53,22,,,1.ja,1.021,None,None,None,None,None,polit,1.039,None,Ursula von der Leyen,"['lshift', 'u', 's', 'u', 'r', 'backspace', 'backspace', 'backspace', 'r', 'u', 's', 'backspace', 'backspace', 's', 'u', 'l', 'a', 'space', 'v', 'o', 'n', 'space', 'd', 'e', 'r', 'space', 'lshift', 'k', 'l', 'e', 'backspace', 'backspace', 'backspace', 'lshift', 'l', 'e', 'y', 'e', 'n', 'return']","[0.566767496616194, 0.6835885624841467, 0.8333367549221293, 0.9666337338730955, 1.0499246181188937, 1.682746210055484, 1.816283127931456, 1.9329922436854758, 2.199470402186307, 2.3661698947225887, 2.5826814137153633, 2.9991258909503813, 3.132562727349068, 3.6321867802635097, 3.765412226620356, 3.9987653410153143, 4.132022543994026, 4.2819879004064205, 4.6151655514431695, 4.698415697394921, 4.7984862676667035, 4.914930424127306, 5.014971803969274, 5.214978540222546, 5.281613877965356, 5.331605537841824, 5.357310438626882, 5.481553251685909, 5.564871401717937, 5.947936461093377, 6.064562496391773, 6.164399543217769, 6.497480320517752, 6.597496038441932, 6.714240118558337, 6.914093845631214, 7.113969706107127, 7.21409737414433, 7.497362596473067]",2017_Feb_09_1301,60.0478077213,famFaceFilter,001,16,
46,./img/edges5_TomCruise5_1.png,0,54,54,45,,,1.ja,1.066,None,act,0.507,None,None,None,None,None,Tom Cruise,"['lshift', 't', 'o', 'm', 'space', 'lshift', 'c', 'r', 'u', 'i', 's', 'e', 'return']","[0.6332841479925264, 0.7667251544526152, 0.8833383587916614, 1.0499233350228678, 1.1498729735103552, 1.2997635895890198, 1.366286977218806, 1.882908200906968, 2.182823195807032, 2.282747813925198, 2.482706754857645, 2.582422228352698, 2.899141929648067]",2017_Feb_09_1301,60.0478077213,famFaceFilter,001,16,
5,./img/edges5_AlysonHannigan(Lily)1_1.png,0,55,55,4,,,1.ja,1.51,None,act,0.939,None,None,None,None,None,American Pie Darstellerin rote Haare,"['lshift', 'a', 'm', 'e', 'r', 'i', 'c', 'a', 'n', 'space', 'lshift', 'p', 'i', 'e', 'space', 'lshift', 'd', 'a', 'r', 's', 't', 'e', 'l', 'l', 'e', 'r', 'i', 'n', 'space', 'r', 'o', 't', 'e', 'space', 'lshift', 'h', 'o', 'backspace', 'a', 'a', 'r', 'e', 'return']","[1.6498245366419724, 1.7330669840193877, 1.9163864171478053, 2.532617579696307, 2.7658613101693845, 2.882657034893782, 3.04920031050915, 3.1824283230580477, 3.348962617002144, 3.46557421747184, 3.582176194722706, 3.748658523285485, 4.0653050881164745, 4.165423132934848, 4.581870176361917, 4.731649163100883, 4.848421471326219, 5.01506386609617, 5.166495480294543, 5.464839645095708, 5.681261988926963, 5.747965009975815, 5.947834134199184, 6.064559930199721, 6.197907591436888, 6.414408524889041, 6.531105772006413, 6.647760997735531, 6.797667652512246, 7.513911966793785, 7.613949176573442, 7.747141262438163, 7.797114958972998, 7.896757616777904, 7.963675877156675, 8.030464224079878, 8.29710629807596, 8.713414125601957, 8.813396803808246, 8.996724577059467, 9.14653307500339, 9.213218453484842, 9.496447107580934]",2017_Feb_09_1301,60.0478077213,famFaceFilter,001,16,
39,./img/edges5_AlysonHannigan(Lily)8_3.png,0,56,56,38,,,1.ja,1.506,None,act,0.623,None,None,None,None,None,American Pie  Darstellerin rote Haare,"['lshift', 'a', 'm', 'r', 'backspace', 'e', 'r', 'i', 'a', 'backspace', 'c', 'a', 'n', 'space', 'lshift', 'p', 'e', 'backspace', 'i', 'e', 'space', 'lshift', 'space', 'd', 'a', 'r', 's', 't', 'e', 'l', 'l', 'e', 'r', 'i', 'n', 'space', 'lshift', 'r', 'o', 't', 'e', 'space', 'lshift', 'backspace', 'backspace', 'backspace', 'backspace', 'backspace', 'backspace', 'r', 'backspace', 'space', 'capslock', 'r', 'i', 't', 'e', 'backspace', 'backspace', 'backspace', 'o', 't', 'e', 'space', 'lshift', 'h', 'a', 'a', 'r', 'e', 'return']","[0.7666398285782634, 0.8667604395886883, 1.0001408197704222, 1.1330400390061186, 1.566340546470201, 1.6164313255021625, 1.7663851340512338, 1.866330923251553, 2.049363263682608, 2.5494415325301816, 2.6326801306195193, 2.715916483291039, 2.79920031050915, 2.9492930141850593, 3.0491621384080645, 3.215789456801758, 3.448945295208432, 3.8654353223455473, 4.065414151264122, 4.148631257497982, 4.298346410218983, 4.348596934683883, 4.3651062082590215, 4.5484933246934816, 4.6317129971193935, 4.7816408229773515, 4.915104283615619, 5.08168637288054, 5.164642048333917, 5.25871350394209, 5.331502569399163, 5.431452849435118, 5.481391902381802, 5.581376826005908, 5.681444509312314, 5.7979589152710105, 5.94773341117434, 6.181169285251599, 6.297820982466874, 6.397639103629444, 6.4643706735614614, 6.530967839202276, 6.6142600065441, 7.197288818460947, 7.330761581543811, 7.447383446780805, 7.564012369043667, 7.6804594124705545, 7.830569117166306, 8.746487525100747, 9.346476298012021, 9.679762691422184, 9.996220641162836, 10.379353063070994, 10.629246245341164, 10.879149692377723, 10.962565999243452, 11.262460143834687, 11.49558615026308, 11.612093178420764, 12.328517446895603, 12.478561072154662, 12.611837200798618, 12.711738081643489, 12.795018380347756, 12.86163960403701, 13.011657567378279, 13.17803243666367, 13.328140216714928, 13.428226504911436, 13.961268789335008]",2017_Feb_09_1301,60.0478077213,famFaceFilter,001,16,
11,./img/edges5_RobertSeanLeonard(Wilson)1_1.png,0,57,57,10,,,1.ja,1.774,None,act,0.556,None,None,None,None,None,Dr House Darsteller,"['lshift', 'd', 'r', 'space', 'lshift', 'h', 'o', 's', 'backspace', 'u', 's', 'e', 'space', 'lshift', 'd', 'a', 'r', 's', 't', 'e', 'l', 'l', 'e', 'r', 'delete', 'return']","[0.91662058214024, 1.01653910555342, 1.1665782399768432, 1.2665641259227414, 1.4665490495463018, 1.499885162920691, 1.6663017328210117, 1.7827962507935808, 2.182957279323091, 2.415842063731361, 2.5157788712604088, 2.599239765706443, 2.682619825113761, 2.782464249741679, 2.8492432942202868, 2.9492962219237597, 3.0991634215033628, 3.3157211319467024, 3.5655925015871617, 3.615525139055535, 3.7487329428440717, 3.8654404547287413, 3.9320873403339647, 3.981949086755776, 4.348619709635386, 5.098390356251002]",2017_Feb_09_1301,60.0478077213,famFaceFilter,001,16,
21,./img/edges5_JoshRadnor(Ted)3_1.png,0,58,58,20,,,2.nein,5.919,None,dummy,0.9,None,None,None,None,None,,['return'],[0.5501026476676998],2017_Feb_09_1301,60.0478077213,famFaceFilter,001,16,
22,./img/edges5_JasonSegel(Marshall)6_1.png,0,59,59,21,,,1.ja,1.072,None,act,0.456,None,None,None,None,None,,['return'],[0.300199521405375],2017_Feb_09_1301,60.0478077213,famFaceFilter,001,16,
36,./img/edges5_AngelaMerkel1_1.png,0,60,60,35,,,1.ja,0.846,None,None,None,None,None,polit,0.873,None,Angela Merkel,"['lshift', 'n', 'backspace', 'lshift', 'a', 'n', 'g', 'e', 'l', 'a', 'space', 'lshift', 'm', 'e', 'r', 'k', 'e', 'l', 'return']","[0.5667395892814966, 0.8167764782865561, 1.2332164646859383, 1.4329582416457924, 1.5329665817689602, 1.683021434116199, 1.7660095077408187, 1.832702584796607, 1.899558935800087, 2.182585502299844, 2.3669981330958763, 2.392772641830561, 2.516040302040892, 2.599314185265939, 2.682540593945305, 2.7492060844406296, 2.899219877721407, 2.965854573915749, 3.2324770807008463]",2017_Feb_09_1301,60.0478077213,famFaceFilter,001,16,
26,./img/edges5_NicoleKidman7_1.png,0,61,61,25,,,1.ja,1.233,None,act,0.663,None,None,None,None,None,Nicole Kidman,"['lshift', 'n', 'i', 'c', 'o', 'l', 'e', 'space', 'lshift', 'm', 'backspace', 'lshift', 'k', 'i', 'd', 'a', 'backspace', 'm', 'a', 'n', 'return']","[0.6333425288530634, 0.7501048930862453, 0.9500147556018419, 1.0332687508416711, 1.1834153445433913, 1.382938674433717, 1.5331673862692696, 1.7827401153499522, 1.81621031224131, 1.966329640155891, 2.4162292379050996, 2.682612768086983, 2.866120816305738, 3.2156649965036195, 3.3987967768634917, 3.698792927575596, 4.132069056218825, 4.381990466597927, 4.5153544873064675, 4.664895459764921, 5.064837399677344]",2017_Feb_09_1301,60.0478077213,famFaceFilter,001,16,
54,./img/edges5_KatjaBurkard5_3.png,0,62,62,53,,,1.ja,1.165,None,None,None,host,0.606,None,None,None,Katja Burkhard,"['lshift', 'k', 'a', 't', 'j', 'a', 'space', 'lshift', 'b', 'u', 'r', 'k', 'h', 'a', 'r', 'd', 'return']","[0.5669368652688718, 0.6833563221343866, 0.7668820129210872, 0.9666526595365212, 1.1000991191549474, 1.2166735098444406, 1.2999226934744001, 1.39975364559632, 1.6165137644111383, 1.7830393974581966, 1.849684358419836, 1.9830454921630007, 2.1494193991266, 2.2662225016520097, 2.3495441801978814, 2.499359093621024, 3.032659280311236]",2017_Feb_09_1301,60.0478077213,famFaceFilter,001,16,
9,./img/edges5_RobertSeanLeonard(Wilson)8_1.png,0,63,63,8,,,1.ja,1.424,None,act,0.406,None,None,None,None,None,Dr House Darsteller,"['lshift', 'd', 'r', 'space', 'lshift', 'h', 'o', 'u', 's', 'e', 'space', 'lshift', 'd', 'a', 'r', 's', 't', 'e', 'l', 'l', 'e', 'r', 'return']","[1.0833252070597155, 1.166416890673645, 1.31660646808632, 1.5662192939125816, 1.6997283044529468, 1.7830127732195251, 1.966129797976464, 2.09952076369882, 2.249652281023373, 2.3325960878410115, 2.48290242697567, 2.565821534197312, 2.6327157365294624, 2.6992942972801757, 2.865884085120342, 3.032666978886482, 3.2823147690751284, 3.3323215053278545, 4.815134436367771, 4.965031467925655, 5.031763358631906, 5.115042053466823, 5.264889044286065]",2017_Feb_09_1301,60.0478077213,famFaceFilter,001,16,
53,./img/edges5_KatjaBurkard4_1.png,0,64,64,52,,,1.ja,1.382,None,None,None,host,0.522,None,None,None,Katja Burkhard,"['lshift', 'k', 'a', 't', 'j', 'a', 'space', 'lshift', 'b', 'u', 'r', 'k', 'h', 'a', 'r', 'd', 'return']","[0.5167992532378776, 0.6168701442838938, 0.683396418879056, 0.8832700339380608, 0.99992525966627, 1.1165426340676277, 1.1831202324965489, 1.2666359792910953, 1.4498591802303054, 1.5663767939286117, 1.6662953173417918, 1.8323991326269606, 2.349143212743911, 2.4159492022354243, 2.499396624174551, 2.6826021825463613, 2.8491316648805878]",2017_Feb_09_1301,60.0478077213,famFaceFilter,001,16,
65,./img/edges5_LisaEdelstein(DrLisaCuddy)1_1.png,0,65,65,64,,,1.ja,1.415,None,act,0.407,None,None,None,None,None,Dr House Darstellerin,"['lshift', 'd', 'r', 'space', 'lshift', 'h', 'o', 'u', 's', 'e', 'space', 'lshift', 'd', 'a', 'r', 's', 't', 'e', 'l', 'l', 'e', 'r', 'i', 'n', 'return']","[0.5835163883411951, 0.6502293533840202, 0.8166674151389088, 0.8833130176490158, 0.9333880787562521, 1.0499101832901943, 1.1996750559746943, 1.4332527121432577, 1.566456025097068, 2.0493035997251354, 2.249391491791357, 2.366110230764207, 2.4327558332743138, 2.532552462581407, 2.69944089098135, 2.8658019669856003, 3.0825691428271966, 3.1490877188480226, 3.282384377024755, 3.4324546265224853, 3.4988606108818203, 3.5822422741584887, 3.715516157384627, 3.832140588812763, 4.165335882416912]",2017_Feb_09_1301,60.0478077213,famFaceFilter,001,16,
58,./img/edges5_HughLaurie(DrHouse)5_3.png,0,66,66,57,,,1.ja,1.202,None,act,0.657,None,None,None,None,None,Dr House Hauptdarsteller,"['lshift', 'd', 'r', 'space', 'lshift', 'h', 'o', 'u', 's', 'e', 'space', 'lshift', 'h', 'a', 'u', 'p', 't', 'd', 'a', 'r', 's', 't', 'e', 'l', 'l', 'e', 'r', 'return']","[0.616867578091842, 0.7001915020555316, 0.933555201991112, 1.1499525254530454, 1.2665836931346348, 1.333318150032028, 1.4997007178917556, 1.6498402545657882, 1.8330268872732631, 1.8997802698349915, 2.0496230905928314, 2.2325248760207614, 2.599441853303688, 2.7658844058942123, 3.0326403546478105, 3.182383735476833, 3.349163742276687, 3.765572613601762, 3.832140909586087, 3.9820831702727446, 4.1985327798911385, 4.365287124774113, 4.44854015769215, 4.5821187761830515, 4.698434302284113, 4.765170683826, 4.848429490674789, 5.264937801927772]",2017_Feb_09_1301,60.0478077213,famFaceFilter,001,16,
29,./img/edges5_TomCruise4_1.png,0,67,67,28,,,1.ja,1.181,None,act,0.407,None,None,None,None,None,Tom Cruise,"['lshift', 't', 'o', 'm', 'space', 'lshift', 'c', 'r', 'u', 'i', 's', 'e', 'return']","[0.6333630583876584, 0.750158783112056, 0.8668800882769574, 1.000050361511967, 1.1333261693816894, 1.166494838746985, 1.2666125627911242, 1.7994319093104423, 2.0329617701590905, 2.182874519640791, 2.2660720586627576, 2.3494967056512905, 2.5327872691232187]",2017_Feb_09_1301,60.0478077213,famFaceFilter,001,16,
19,./img/edges5_HughLaurie(DrHouse)2_1.png,0,68,68,18,,,1.ja,1.505,None,act,0.506,None,None,None,None,None,Dr House Hauptdarsteller,"['lshift', 'd', 'r', 'space', 'lshift', 'h', 'o', 'u', 's', 'e', 'space', 'lshift', 'h', 'a', 'u', 'p', 't', 'd', 'a', 'r', 's', 't', 'e', 'l', 'l', 'e', 'r', 'return']","[0.6501199694621391, 0.7501488391189923, 0.91653140697872, 1.0166241106544476, 1.0999101832903762, 1.1831840665163327, 1.333190161220955, 1.4831125339223945, 1.5996551679891127, 1.6322441988031642, 1.8330384351365865, 2.0162192939123997, 2.18272343510489, 2.282868745709493, 2.382655110250198, 2.532683017585441, 2.5993353563480923, 3.1821178138616233, 3.24894176669477, 3.415596350875603, 3.5488047962126075, 3.698746094577473, 3.8155354038226506, 3.932139947264659, 4.032312844431544, 4.115263066727493, 4.198633823690216, 4.448331654616595]",2017_Feb_09_1301,60.0478077213,famFaceFilter,001,16,
20,./img/edges5_JoshRadnor(Ted)1_2.png,0,69,69,19,,,2.nein,6.482,None,dummy,3.416,None,None,None,None,None,,['return'],[0.6001353666124487],2017_Feb_09_1301,60.0478077213,famFaceFilter,001,16,
28,./img/edges5_Ice-T(OdafinFinTutuola)5_1.png,0,70,70,27,,,2.nein,1.011,None,dummy,1.224,None,None,None,None,None,,['return'],[0.5001138747575169],2017_Feb_09_1301,60.0478077213,famFaceFilter,001,16,
17,./img/edges5_NeilPatrickHarris(Barney)3_7.png,0,71,71,16,,,2.nein,1.489,None,None,None,host,2.022,None,None,None,,['return'],[0.3503477189760815],2017_Feb_09_1301,60.0478077213,famFaceFilter,001,16,
41,./img/gray_RobertSeanLeonard(Wilson)1_1.png,0,0,0,40,,,1.ja,1.678,None,act,0.589,None,None,None,None,None,Dr House Darsteller,"['lshift', 'd', 'r', 'space', 'lshift', 'h', 'o', 'u', 's', 'e', 'space', 'lshift', 'd', 'a', 'r', 's', 't', 'e', 'l', 'l', 'e', 'r', 'return']","[0.7166337338730955, 0.8001328004211246, 1.0499522046802667, 1.2333043567523418, 1.2663909079828954, 1.3831327426823918, 1.5498232535464922, 1.7663091106223874, 1.899631751490233, 1.9829499015231704, 2.1329168618049152, 2.19942806002382, 2.2827458892825234, 2.9659020484632492, 3.099109531477552, 3.249063660800857, 3.482011637679534, 3.5323125236573105, 3.648939521277498, 3.7823946417920524, 3.832292635671365, 3.882093435040588, 4.098722998852281]",2017_Feb_09_1301,60.0478077213,famFaceFilter,001,16,
39,./img/gray_UrsulavonderLeyen1_1.png,0,1,1,38,,,1.ja,1.197,None,None,None,None,None,polit,1.022,None,Ursula von der Leyen,"['lshift', 'u', 'r', 's', 'u', 'l', 'a', 'space', 'c', 'o', 'backspace', 'backspace', 'v', 'o', 'n', 'space', 'd', 'e', 'r', 'space', 'lshift', 'l', 'e', 'y', 'e', 'n', 'return']","[0.6167501748223003, 0.6835382009712703, 1.299824536642518, 1.482887029826088, 1.5997267005832327, 1.8329643363513242, 2.049471043734229, 2.2828600848133647, 2.515855536237723, 2.5993857178600592, 2.9325556703215625, 3.0324709859951327, 3.1656595433469192, 3.498810890918321, 3.649034149596446, 3.765472211352062, 3.898751226960485, 4.082122304696895, 4.165385923155554, 4.21524157487238, 4.240429067253899, 4.365171966922389, 4.431915405491054, 4.714781905782729, 4.881801530733355, 5.031716846407107, 5.348263329762631]",2017_Feb_09_1301,60.0478077213,famFaceFilter,001,16,
72,./img/gray_WillSmith4_1.png,0,2,2,71,,,1.ja,1.274,None,dummy,0.406,None,None,None,None,None,Will Smith,"['lshift', 'w', 'i', 'l', 'l', 'space', 'lshift', 's', 'm', 'i', 't', 'h', 'return']","[0.5168050271695392, 0.6169189019265104, 0.7667431177951585, 0.9167059080145918, 1.4998101018136367, 1.6830438882934686, 1.7159623539673703, 1.8330839850395932, 1.966034528109958, 2.132899219236606, 2.23282608277259, 2.332780532869947, 2.549464949029243]",2017_Feb_09_1301,60.0478077213,famFaceFilter,001,16,
27,./img/gray_LeonardoDiCaprio1_1.png,0,3,3,26,,,1.ja,1.027,None,act,0.506,None,None,None,None,None,Leonardo di Caprio,"['lshift', 'l', 'e', 'o', 'n', 'a', 'r', 'd', 'o', 'space', 'd', 'i', 'space', 'lshift', 'c', 'a', 'p', 'r', 'i', 'o', 'return']","[0.5667822522182178, 0.6500859674215462, 0.8501520468580566, 0.9832960166286284, 1.1666244314274081, 1.3164932348763614, 1.4997260590353108, 1.6996096180864697, 1.8164326085980065, 2.2661670077559393, 2.4994283807964166, 2.6336097335652084, 3.1491085691550325, 3.26566724192071, 3.349072642471583, 3.549036074239666, 4.282078358663057, 4.481904819948795, 4.648413772750246, 4.765167796859714, 5.114798586027973]",2017_Feb_09_1301,60.0478077213,famFaceFilter,001,16,
69,./img/gray_OmarEpps(DrEricForeman)3_1.png,0,4,4,68,,,1.ja,1.17,None,act,0.723,None,None,None,None,None,Dr House Darsteller,"['lshift', 'd', 'r', 'space', 'lshift', 'h', 'o', 'u', 's', 'e', 'space', 'lshift', 'd', 'a', 'r', 's', 't', 'e', 'l', 'l', 'e', 'r', 'return']","[0.7000680040800944, 0.8000850051002999, 0.9666744721662326, 1.1167180974252915, 1.2164765546303897, 1.283319433127872, 1.4998040071077412, 1.6830172640538876, 1.816503178869425, 1.8994867616584088, 2.0329951306512157, 2.182805874012047, 2.2662767124511447, 2.3659415036599967, 2.5161150423737126, 2.6493167514572633, 2.832593200874726, 2.9159264272830114, 3.032682696810298, 3.149080020272777, 3.215700923186887, 3.2823827731544952, 3.4823693006483154]",2017_Feb_09_1301,60.0478077213,famFaceFilter,001,16,
