num,pic,trials.thisRepN,trials.thisTrialN,trials.thisN,trials.thisIndex,key_resp_2.keys,key_resp_2.rt,ratingBekannt.response,ratingBekannt.rt,key_resp_5.keys,ratingK1.response,ratingK1.rt,ratingK2.response,ratingK2.rt,ratingK3.response,ratingK3.rt,key_resp_6.keys,inputText,key_resp_4.keys,key_resp_4.rt,date,frameRate,expName,session,participant,
,,,,,,space,12.3265812553,,,,,,,,,,,,,,2017_Feb_09_1535,60.0164794754,famFaceFilter,001,17,
69,./img/smoo15_BritneySpears5_1.png,0,0,0,68,,,1.ja,12.19,None,act,1.38,None,None,None,None,None,,['return'],[0.8500025661905966],2017_Feb_09_1535,60.0164794754,famFaceFilter,001,17,
13,./img/smoo15_GeorgeClooney3_1.png,0,1,1,12,,,1.ja,3.407,None,act,1.208,None,None,None,None,None,George Kluni,"['lshift', 'g', 'e', 'o', 'r', 'g', 'e', 'space', 'lshift', 'k', 'l', 'u', 'n', 'i', 'return']","[2.199271522327763, 2.4493975864970707, 2.715909105489118, 3.265730434392026, 3.5323256753890746, 3.9487175456943078, 4.082151174352475, 4.248518024289297, 4.831676108113243, 5.048331975389374, 5.364708127770427, 5.497992596536278, 5.714795378287818, 5.914543249953567, 6.331038409474786]",2017_Feb_09_1535,60.0164794754,famFaceFilter,001,17,
71,./img/smoo15_AngelaMerkel1_1.png,0,2,2,70,,,1.ja,1.553,None,None,None,None,None,polit,0.94,None,Angela Merkel,"['lshift', 'a', 'n', 'g', 'e', 'l', 'a', 'space', 'lshift', 'm', 'e', 'r', 'k', 'e', 'l', 'return']","[0.8666821707411145, 1.099901201618195, 1.616528520013162, 2.166226350938814, 2.416140383516904, 2.699350111948661, 2.9659286727001017, 3.215845913018711, 3.7487306974253443, 3.9654577765231807, 4.381931764961337, 4.4985440069795, 4.831835211998623, 5.014877817196975, 5.348197250325029, 5.94792459245582]",2017_Feb_09_1535,60.0164794754,famFaceFilter,001,17,
35,./img/smoo15_KatjaBurkard1_1.png,0,3,3,34,,,2.nein,3.434,None,None,None,host,4.989,None,None,None,,['return'],[0.8833726816064882],2017_Feb_09_1535,60.0164794754,famFaceFilter,001,17,
49,./img/smoo15_TomCruise5_1.png,0,4,4,48,,,1.ja,2.058,None,act,0.775,None,None,None,None,None,Tom Kruz,"['lshift', 't', 'o', 'm', 'space', 'lshift', 'k', 'r', 'u', 'y', 'backspace', 'z', 'return']","[1.000010264766388, 1.1830089239301742, 1.566521462984383, 2.066292430374233, 2.216250088211382, 2.4493196384228213, 2.616073341758238, 3.032556953416133, 3.482421586802957, 3.698951389913418, 4.531960634618372, 4.9817983229932, 5.881341220094328]",2017_Feb_09_1535,60.0164794754,famFaceFilter,001,17,
62,./img/smoo15_RobertSeanLeonard(Wilson)1_1.png,0,5,5,61,,,2.nein,7.599,None,None,None,host,4.532,None,None,None,,['return'],[0.7669936422607861],2017_Feb_09_1535,60.0164794754,famFaceFilter,001,17,
19,./img/smoo15_NicoleKidman7_1.png,0,6,6,18,,,1.ja,1.791,None,act,0.558,None,None,None,None,None,Nicole Kidman,"['lshift', 'n', 'i', 'c', 'o', 'l', 'e', 'space', 'lshift', 'k', 'i', 'd', 'm', 'a', 'n', 'return']","[1.1832636184590228, 1.316621223688344, 1.583116062434783, 1.8495380854928953, 2.1662074252744787, 2.3827847029315308, 2.6994030396544986, 2.849256766727194, 4.065357374272935, 4.3150542428775225, 4.531947482886608, 5.164975332481845, 5.548136303272258, 5.764739884392839, 6.148038787987389, 6.697819699369575]",2017_Feb_09_1535,60.0164794754,famFaceFilter,001,17,
70,./img/smoo15_JasonSegel(Marshall)7_1.png,0,7,7,69,,,1.ja,14.61,None,act,0.951,None,None,None,None,None,Sportlehrer Bad teacher,"['lshift', 'lshift', 's', 'p', 'o', 'r', 't', 'l', 'e', 'h', 'r', 'e', 'r', 'space', 'lshift', 'b', 'a', 'd', 'space', 't', 'e', 'a', 'c', 'h', 'e', 'r', 'return']","[0.9834310624682985, 2.032834102121342, 2.1496349592289334, 2.6495884470041347, 2.7993068074647454, 3.1326105226689833, 3.2324940817197785, 3.5489501068168465, 3.7822454818979168, 4.265370526005427, 4.515318239849876, 4.66533492009512, 4.765124171601201, 5.0317575847002445, 5.664800831445973, 6.164539400666399, 6.547654821553806, 6.66434020003544, 6.831056052042186, 7.080974896229236, 7.180735598853062, 7.41395527127861, 7.930373765822878, 8.297122336774919, 8.513579324193415, 8.629873999987467, 9.64644229597252]",2017_Feb_09_1535,60.0164794754,famFaceFilter,001,17,
21,./img/smoo15_NeilPatrickHarris(Barney)3_7.png,0,8,8,20,,,1.ja,1.902,None,act,0.641,None,None,None,None,None,,['return'],[0.6170391921623377],2017_Feb_09_1535,60.0164794754,famFaceFilter,001,17,
7,./img/smoo15_LisaEdelstein(DrLisaCuddy)2_2.png,0,9,9,6,,,2.nein,1.841,None,None,None,host,1.324,None,None,None,,['return'],[0.5668031025252276],2017_Feb_09_1535,60.0164794754,famFaceFilter,001,17,
11,./img/smoo15_LeonardoDiCaprio3_1.png,0,10,10,10,,,1.ja,1.791,None,act,1.025,None,None,None,None,None,Leonardo di Kaprio,"['lshift', 'l', 'e', 'o', 'n', 'a', 'r', 'd', 'o', 'space', 'd', 'i', 'space', 'lshift', 'k', 'a', 'p', 'r', 'i', 'o', 'return']","[1.299963110994213, 1.5497170773651305, 1.9495133858981717, 2.316302695144259, 3.3492166699816153, 3.5989962982694124, 3.915251198091937, 4.315178061628103, 4.8152691614341165, 4.965114869157333, 5.181459906463715, 5.548055468234452, 5.698129887794494, 6.014645576848125, 6.131086204795793, 6.531251403386705, 6.86425359106579, 7.230871607014706, 7.597130035350347, 7.797093146344196, 8.546897153451937]",2017_Feb_09_1535,60.0164794754,famFaceFilter,001,17,
17,./img/smoo15_GeorgeClooney11_1.png,0,11,11,16,,,1.ja,7.067,None,act,0.702,None,None,None,None,None,George Kluni,"['lshift', 'g', 'e', 'o', 'r', 'g', 'e', 'space', 'lshift', 'k', 'l', 'u', 'n', 'i', 'return']","[1.6165413509716018, 1.816505424287243, 3.0325871061686485, 4.115406452689058, 4.381702732351187, 4.665210139022747, 4.848495890884806, 5.031818531751924, 6.1979111199489125, 6.397908232984264, 6.597646481430274, 6.797579760444933, 6.997647764525027, 7.164123356835262, 8.046855132062774]",2017_Feb_09_1535,60.0164794754,famFaceFilter,001,17,
37,./img/smoo15_Ice-T(OdafinFinTutuola)5_1.png,0,12,12,36,,,1.ja,1.8,None,act,0.608,None,None,None,None,None,,['return'],[0.5835436541274248],2017_Feb_09_1535,60.0164794754,famFaceFilter,001,17,
20,./img/smoo15_NicoleKidman5_1.png,0,13,13,19,,,1.ja,1.557,None,act,0.508,None,None,None,None,None,Nicole Kidman,"['lshift', 'n', 'o', 'backspace', 'i', 'c', 'o', 'l', 'e', 'space', 'lshift', 'k', 'i', 'd', 'm', 'a', 'n', 'return']","[1.1494248522831185, 1.2999380906258011, 1.5663639629692625, 1.9496779429409798, 2.149502800357368, 2.516048000616138, 2.8824960063648177, 3.082394962566468, 3.382298088828975, 3.5322910318009235, 3.9320350541784137, 4.081921820969001, 4.331942029728452, 4.731788379000136, 5.098349617957865, 5.298103584327691, 5.6312870092951925, 6.547659633162766]",2017_Feb_09_1535,60.0164794754,famFaceFilter,001,17,
64,./img/smoo15_JoachimLoew8_1.png,0,14,14,63,,,1.ja,1.612,None,None,None,music,0.691,None,None,None,,['return'],[0.6834525543235941],2017_Feb_09_1535,60.0164794754,famFaceFilter,001,17,
15,./img/smoo15_LisaEdelstein(DrLisaCuddy)1_1.png,0,15,15,14,,,2.nein,1.591,None,None,None,host,1.839,None,None,None,,['return'],[0.666555144252925],2017_Feb_09_1535,60.0164794754,famFaceFilter,001,17,
44,./img/smoo15_GuentherJauch2_1.png,0,16,16,43,,,2.nein,2.191,None,None,None,None,None,polit,0.758,None,,['return'],[0.5669051086460968],2017_Feb_09_1535,60.0164794754,famFaceFilter,001,17,
29,./img/smoo15_GuentherJauch3_1.png,0,17,17,28,,,2.nein,2.341,None,None,None,None,None,polit,0.942,None,,['return'],[0.7167742328692839],2017_Feb_09_1535,60.0164794754,famFaceFilter,001,17,
26,./img/smoo15_TomCruise4_1.png,0,18,18,25,,,1.ja,7.106,None,act,0.636,None,None,None,None,None,,['return'],[0.7668768805378932],2017_Feb_09_1535,60.0164794754,famFaceFilter,001,17,
40,./img/smoo15_NeilPatrickHarris(Barney)2_2.png,0,19,19,39,,,2.nein,3.407,None,None,None,None,None,sport,1.424,None,,['return'],[0.6498627087439672],2017_Feb_09_1535,60.0164794754,famFaceFilter,001,17,
24,./img/smoo15_BastianSchweinsteiger1_1.png,0,20,20,23,,,2.nein,2.857,None,None,None,None,None,sport,0.924,None,,['return'],[0.6500760234284826],2017_Feb_09_1535,60.0164794754,famFaceFilter,001,17,
61,./img/smoo15_OmarEpps(DrEricForeman)3_1.png,0,21,21,60,,,1.ja,2.274,None,dummy,0.641,None,None,None,None,None,,['return'],[0.9000776272987423],2017_Feb_09_1535,60.0164794754,famFaceFilter,001,17,
58,./img/smoo15_EmilyDeschanel3_1.png,0,22,22,57,,,2.nein,3.024,None,None,None,music,0.674,None,None,None,,['return'],[0.5169737542746589],2017_Feb_09_1535,60.0164794754,famFaceFilter,001,17,
30,./img/smoo15_KatjaBurkard4_1.png,0,23,23,29,,,2.nein,1.607,None,None,None,host,6.122,None,None,None,,['return'],[0.566730607608406],2017_Feb_09_1535,60.0164794754,famFaceFilter,001,17,
45,./img/smoo15_RobertSeanLeonard(Wilson)2_6.png,0,24,24,44,,,2.nein,4.507,None,dummy,0.802,None,None,None,None,None,,['return'],[0.6501626323988603],2017_Feb_09_1535,60.0164794754,famFaceFilter,001,17,
33,./img/smoo15_Ice-T(OdafinFinTutuola)7_1.png,0,25,25,32,,,2.nein,2.073,None,None,None,music,1.874,None,None,None,,['return'],[0.6996272606556886],2017_Feb_09_1535,60.0164794754,famFaceFilter,001,17,
59,./img/smoo15_JoshRadnor(Ted)1_2.png,0,26,26,58,,,2.nein,2.124,None,None,None,None,None,polit,1.741,None,,['return'],[1.1667302868354454],2017_Feb_09_1535,60.0164794754,famFaceFilter,001,17,
42,./img/smoo15_OmarEpps(DrEricForeman)1_5.png,0,27,27,41,,,2.nein,3.457,None,None,None,None,None,sport,1.425,None,,['return'],[0.6666937186055293],2017_Feb_09_1535,60.0164794754,famFaceFilter,001,17,
67,./img/smoo15_GeorgeClooney4_2.png,0,28,28,66,,,1.ja,3.507,None,act,1.774,None,None,None,None,None,George Kluni,"['lshift', 'g', 'e', 'o', 'r', 'g', 'e', 'space', 'lshift', 'k', 'l', 'u', 'n', 'i', 'return']","[0.9667963662723196, 1.083399947394355, 1.2666135251147352, 1.4167225882611092, 1.8330717956287117, 2.066326111642411, 2.2495419347815186, 2.4162882603141043, 2.649443777947454, 2.7993991903676942, 2.949157647572065, 3.1159620331945916, 3.2991698369824007, 3.46580004234238, 3.982123587793467]",2017_Feb_09_1535,60.0164794754,famFaceFilter,001,17,
27,./img/smoo15_JasonSegel(Marshall)9_1.png,0,29,29,26,,,1.ja,24.298,None,act,1.019,None,None,None,None,None,,['return'],[0.9167777613820363],2017_Feb_09_1535,60.0164794754,famFaceFilter,001,17,
38,./img/smoo15_AlysonHannigan(Lily)5_4.png,0,30,30,37,,,1.ja,5.223,None,act,0.651,None,None,None,None,None,American Pie,"['lshift', 'a', 'm', 'e', 'r', 'i', 'c', 'a', 'n', 'space', 'lshift', 'p', 'i', 'e', 'return']","[0.40002020875908784, 0.6001193279153085, 0.9665676544373127, 1.0666103173734882, 1.1498742566072906, 1.6661057399287529, 1.9499422606859298, 2.0662032552136225, 2.26619683973513, 2.399062056931143, 2.9657387745155575, 3.115745510767738, 3.182453022653135, 3.3988785742239997, 3.5657018855090428]",2017_Feb_09_1535,60.0164794754,famFaceFilter,001,17,
68,./img/smoo15_AlysonHannigan(Lily)8_3.png,0,31,31,67,,,1.ja,2.474,None,act,0.758,None,None,None,None,None,American Pie,"['lshift', 'a', 'm', 'e', 'r', 'i', 'c', 'a', 'n', 'space', 'lshift', 'p', 'i', 'e', 'return']","[0.3834361948502192, 0.5835859962917311, 1.3664820077883633, 1.4331452528658701, 1.5663706992236257, 1.8163399049226427, 2.0495133858967165, 2.782428643831736, 2.9658285912246356, 3.11573364213109, 3.3655331584050145, 3.415584482238046, 3.715506854940031, 3.94872973510428, 4.564815266274309]",2017_Feb_09_1535,60.0164794754,famFaceFilter,001,17,
46,./img/smoo15_NeilPatrickHarris(Barney)1_1.png,0,32,32,45,,,1.ja,1.819,None,act,0.525,None,None,None,None,None,,['return'],[0.7333489443335566],2017_Feb_09_1535,60.0164794754,famFaceFilter,001,17,
6,./img/smoo15_AlysonHannigan(Lily)1_1.png,0,33,33,5,,,1.ja,1.641,None,act,0.808,None,None,None,None,None,American Pie,"['lshift', 'a', 'm', 'e', 'r', 'i', 'c', 'a', 'n', 'space', 'lshift', 'p', 'i', 'e', 'return']","[0.30031018842237245, 0.4668489732030139, 1.0000157179238158, 1.0833194331280538, 1.1832267294521444, 1.4831500644759217, 1.6830025084527733, 1.916192669672455, 2.0496019195106783, 2.099542576328531, 2.2494967056518362, 2.316118891661972, 3.6155758213408262, 3.732143155004451, 3.9653724506497383]",2017_Feb_09_1535,60.0164794754,famFaceFilter,001,17,
31,./img/smoo15_BritneySpears1_1.png,0,34,34,30,,,1.ja,1.907,None,act,0.641,None,None,None,None,None,,['return'],[0.6834952172612248],2017_Feb_09_1535,60.0164794754,famFaceFilter,001,17,
53,./img/smoo15_GuentherJauch4_1.png,0,35,35,52,,,2.nein,2.758,None,None,None,None,None,polit,0.757,None,,['return'],[0.6835686744980194],2017_Feb_09_1535,60.0164794754,famFaceFilter,001,17,
34,./img/smoo15_EmilyDeschanel5_1.png,0,36,36,33,,,2.nein,4.589,None,None,None,music,0.683,None,None,None,,['return'],[0.7001876527683635],2017_Feb_09_1535,60.0164794754,famFaceFilter,001,17,
55,./img/smoo15_MariskaHargitay(Liv)4_4.png,0,37,37,54,,,2.nein,1.907,None,None,None,None,None,sport,0.857,None,,['return'],[0.7168140088397195],2017_Feb_09_1535,60.0164794754,famFaceFilter,001,17,
36,./img/smoo15_BastianSchweinsteiger6_2.png,0,38,38,35,,,2.nein,1.524,None,None,None,None,None,sport,0.924,None,,['return'],[0.7001424236405001],2017_Feb_09_1535,60.0164794754,famFaceFilter,001,17,
54,./img/smoo15_LisaEdelstein(DrLisaCuddy)6_3.png,0,39,39,53,,,2.nein,2.606,None,None,None,host,2.69,None,None,None,,['return'],[0.6669853021376184],2017_Feb_09_1535,60.0164794754,famFaceFilter,001,17,
3,./img/smoo15_JoshRadnor(Ted)3_1.png,0,40,40,2,,,2.nein,1.975,None,None,None,None,None,sport,0.874,None,,['return'],[0.7668723897004384],2017_Feb_09_1535,60.0164794754,famFaceFilter,001,17,
16,./img/smoo15_WillSmith4_1.png,0,41,41,15,,,1.ja,4.873,None,act,0.534,None,None,None,None,None,Eddie Murphy,"['lshift', 'e', 'd', 'd', 'i', 'e', 'space', 'lshift', 'm', 'u', 'r', 'p', 'h', 'y', 'return']","[1.2166122420185275, 1.3834054005510552, 1.6500150763768033, 1.866387379470325, 2.1331385166140535, 2.216291468053896, 2.416266447686212, 3.1658010046648997, 3.581795115254863, 3.9155466309111944, 4.2320783586637845, 4.865387527026542, 5.281689259847553, 5.58168958062015, 6.847758110770883]",2017_Feb_09_1535,60.0164794754,famFaceFilter,001,17,
22,./img/smoo15_WillSmith1_1.png,0,42,42,21,,,1.ja,2.852,None,act,1.791,None,None,None,None,None,Eddie Murphy,"['lshift', 'e', 'd', 'd', 'i', 'e', 'space', 'lshift', 'm', 'u', 'r', 'p', 'h', 'y', 'return']","[0.26692499663113267, 0.4333784555365128, 1.033316225388262, 1.2165086320255796, 1.53309585367424, 1.64952621685552, 1.8330175848277577, 1.9827529463073006, 2.0828754819613096, 2.2827253597479285, 2.566098362127377, 3.065733962905142, 3.4989738440908695, 4.03239111327639, 4.7484609265229665]",2017_Feb_09_1535,60.0164794754,famFaceFilter,001,17,
72,./img/smoo15_HughLaurie(DrHouse)2_1.png,0,43,43,71,,,1.ja,1.932,None,act,1.325,None,None,None,None,None,Hew Loury,"['lshift', 'h', 'e', 'w', 'space', 'lshift', 'l', 'o', 'u', 'r', 'y', 'return']","[0.4501658401404711, 0.750115799401101, 0.9333826255988242, 1.0497982331780804, 1.1498200458063366, 1.3997238136180385, 1.6830201510201732, 2.182865858743753, 2.2994575712291407, 2.649262861432362, 3.115520327446575, 3.5153159944311483]",2017_Feb_09_1535,60.0164794754,famFaceFilter,001,17,
18,./img/smoo15_HughLaurie(DrHouse)4_1.png,0,44,44,17,,,1.ja,3.64,None,act,1.091,None,None,None,None,None,Hew Loury,"['lshift', 'h', 'e', 'w', 'space', 'lshift', 'l', 'u', 'backspace', 'o', 'u', 'r', 'y', 'return']","[1.366312639134776, 1.5995467463890236, 1.81638866256435, 1.9496092973131454, 2.083717513616648, 2.2827561540489114, 2.515998601425963, 2.7823519788544218, 4.049717718911779, 4.331923104065936, 4.665290011740581, 4.881687014427371, 5.081768170241048, 5.514740846714631]",2017_Feb_09_1535,60.0164794754,famFaceFilter,001,17,
57,./img/smoo15_UrsulavonderLeyen5_1.png,0,45,45,56,,,2.nein,3.667,None,act,1.741,None,None,None,None,None,,['return'],[0.5666314884547319],2017_Feb_09_1535,60.0164794754,famFaceFilter,001,17,
28,./img/smoo15_HughLaurie(DrHouse)5_3.png,0,46,46,27,,,1.ja,1.608,None,act,0.891,None,None,None,None,None,Hew Loury,"['lshift', 'h', 'e', 'w', 'space', 'lshift', 'l', 'o', 'u', 'r', 'y', 'return']","[0.6332446927954152, 0.9832966581780056, 1.0999807535627042, 1.1998890122104058, 1.3663825678613648, 1.5329149371609674, 1.816282165609664, 2.2328324982518097, 2.432765777268287, 2.765893066793069, 2.999211537598967, 3.348967749387157]",2017_Feb_09_1535,60.0164794754,famFaceFilter,001,17,
5,./img/smoo15_BarackObama1_3.png,0,47,47,4,,,1.ja,1.358,None,None,None,None,None,polit,0.858,None,Barak Obama,"['lshift', 'b', 'a', 'r', 'a', 'k', 'space', 'lshift', 'o', 'b', 'a', 'm', 'a', 'return']","[0.5999060132289742, 0.8165538611556258, 1.0665833723596734, 1.3664354955635645, 1.5329085216799285, 1.766421702282969, 1.8663767939287936, 2.349303278950174, 2.5326179004696314, 2.7658385352169716, 2.93259320087418, 3.1657336421303626, 3.249079057950439, 3.6155341207268066]",2017_Feb_09_1535,60.0164794754,famFaceFilter,001,17,
50,./img/smoo15_OmarEpps(DrEricForeman)2_2.png,0,48,48,49,,,1.ja,2.407,None,dummy,0.775,None,None,None,None,None,,['return'],[0.8835407671631401],2017_Feb_09_1535,60.0164794754,famFaceFilter,001,17,
9,./img/smoo15_EmilyDeschanel6_12.png,0,49,49,8,,,1.ja,1.474,None,act,0.625,None,None,None,None,None,Nicole Kidman,"['lshift', 'n', 'i', 'c', 'o', 'l', 'e', 'space', 'lshift', 'k', 'i', 'd', 'm', 'a', 'n', 'return']","[0.7664730261167279, 0.9663347725381755, 1.2164085505501134, 1.383071795627984, 1.5164499303919001, 1.7996522810226452, 1.9328758027368167, 2.032843404565938, 2.2327484554734838, 2.449262219883167, 2.699230463260392, 2.9491720823989453, 3.1823741122570937, 3.2657769466168247, 3.415583840689578, 3.698847459148965]",2017_Feb_09_1535,60.0164794754,famFaceFilter,001,17,
1,./img/smoo15_Ice-T(OdafinFinTutuola)6_1.png,0,50,50,0,,,2.nein,3.473,None,None,None,None,None,sport,0.924,None,,['return'],[0.7168531432635064],2017_Feb_09_1535,60.0164794754,famFaceFilter,001,17,
12,./img/smoo15_MariskaHargitay(Liv)8_8.png,0,51,51,11,,,2.nein,2.574,None,None,None,music,0.791,None,None,None,,['return'],[0.8333736439271888],2017_Feb_09_1535,60.0164794754,famFaceFilter,001,17,
48,./img/smoo15_JoshRadnor(Ted)6_2.png,0,52,52,47,,,2.nein,2.824,None,act,0.875,None,None,None,None,None,,['return'],[0.7001382535781886],2017_Feb_09_1535,60.0164794754,famFaceFilter,001,17,
8,./img/smoo15_AngelaMerkel4_1.png,0,53,53,7,,,1.ja,1.475,None,None,None,None,None,polit,0.806,None,Angela Merkel,"['lshift', 'a', 'n', 'g', 'e', 'l', 'a', 'space', 'lshift', 'm', 'e', 'r', 'k', 'e', 'l', 'pound', 'return']","[0.8000840427775984, 0.9164765546302078, 1.1499012016192864, 1.4332100492065365, 1.5997154734941432, 1.699594862484446, 1.8163479242721223, 1.99953391543022, 2.0993347147996246, 2.149509536609912, 2.4160268295345304, 3.3488804988683114, 3.615487608502008, 3.7321662507292785, 3.865452323365389, 4.564963463844833, 5.314699466873208]",2017_Feb_09_1535,60.0164794754,famFaceFilter,001,17,
4,./img/smoo15_UrsulavonderLeyen1_1.png,0,54,54,3,,,2.nein,1.95,None,None,None,host,2.057,None,None,None,,['return'],[0.6168172165816941],2017_Feb_09_1535,60.0164794754,famFaceFilter,001,17,
14,./img/smoo15_BritneySpears7_1.png,0,55,55,13,,,1.ja,1.324,None,dummy,0.608,None,None,None,None,None,,['return'],[1.0332578445286345],2017_Feb_09_1535,60.0164794754,famFaceFilter,001,17,
51,./img/smoo15_LeonardoDiCaprio1_1.png,0,56,56,50,,,1.ja,1.441,None,act,0.508,None,None,None,None,None,Leonardo di Kaprio,"['lshift', 'l', 'e', 'o', 'n', 'a', 'r', 'd', 'o', 'space', 'd', 'i', 'space', 'lshift', 'k', 'a', 'p', 'r', 'i', 'o', 'return']","[0.5668191412241868, 0.8501360081609164, 1.0331372335167543, 1.1333486235580494, 2.266078794915302, 2.366132364168152, 2.599211858370836, 2.8491685538865568, 2.999142250420846, 3.149046018232184, 3.6321736285299266, 3.765494344754188, 3.865309258177149, 3.998729735105371, 4.132037941144517, 4.415228423138615, 4.964986238795973, 5.29815811590197, 6.847445035380588, 6.980747467488982, 7.264116299807938]",2017_Feb_09_1535,60.0164794754,famFaceFilter,001,17,
63,./img/smoo15_RobertSeanLeonard(Wilson)8_1.png,0,57,57,62,,,1.ja,1.834,None,act,0.742,None,None,None,None,None,,['return'],[0.6167921962114633],2017_Feb_09_1535,60.0164794754,famFaceFilter,001,17,
60,./img/smoo15_LeonardoDiCaprio2_1.png,0,58,58,59,,,1.ja,1.474,None,act,0.641,None,None,None,None,None,Leonardo di Kaprio,"['lshift', 'l', 'e', 'o', 'n', 'a', 'r', 'd', 'o', 'space', 'd', 'i', 'space', 'lshift', 'k', 'a', 'p', 'r', 'i', 'o', 'return']","[0.5335552019914758, 0.8500083401231677, 1.0333880787566159, 1.1498553309411363, 1.5162783163214044, 1.5662561829176411, 1.8495287830464804, 2.1659886574325355, 2.2661179293390887, 2.349187479550892, 2.5326602426321188, 2.649389887921643, 2.799187800324944, 2.982488949335675, 3.465745831541426, 3.69879324834983, 3.865383356962411, 4.048586028367936, 4.731447396277872, 4.848409281914428, 5.131180191565363]",2017_Feb_09_1535,60.0164794754,famFaceFilter,001,17,
66,./img/smoo15_NicoleKidman3_1.png,0,59,59,65,,,1.ja,4.517,None,act,0.685,None,None,None,None,None,Nicole Kidman,"['lshift', 'n', 'i', 'c', 'o', 'l', 'e', 'space', 'lshift', 'k', 'i', 'd', 'm', 'a', 'n', 'return']","[0.9666456025097432, 1.199886446016535, 1.5163745485115214, 1.6497443431508145, 1.8163533774295502, 2.0663068652047514, 2.1662667684595363, 2.33287965202544, 2.449378340059411, 2.58271252879058, 2.7660037338100665, 2.882600899451063, 3.18240522733322, 3.332553745678524, 3.4154067734634737, 3.648896537566543]",2017_Feb_09_1535,60.0164794754,famFaceFilter,001,17,
56,./img/smoo15_MariskaHargitay(Liv)6_5.png,0,60,60,55,,,2.nein,2.84,None,act,0.875,None,None,None,None,None,,['return'],[0.5833316225380258],2017_Feb_09_1535,60.0164794754,famFaceFilter,001,17,
52,./img/smoo15_BastianSchweinsteiger3_1.png,0,61,61,51,,,2.nein,1.775,None,None,None,None,None,sport,0.591,None,,['return'],[0.6503076222325035],2017_Feb_09_1535,60.0164794754,famFaceFilter,001,17,
65,./img/smoo15_UrsulavonderLeyen4_1.png,0,62,62,64,,,2.nein,1.79,None,None,None,host,2.823,None,None,None,,['return'],[0.5500971945111814],2017_Feb_09_1535,60.0164794754,famFaceFilter,001,17,
2,./img/smoo15_WillSmith5_1.png,0,63,63,1,,,1.ja,4.69,None,act,1.002,None,None,None,None,None,,['return'],[0.6502001629523875],2017_Feb_09_1535,60.0164794754,famFaceFilter,001,17,
43,./img/smoo15_JoachimLoew1_1.png,0,64,64,42,,,1.ja,1.608,None,None,None,music,2.374,None,None,None,,['return'],[0.7998633502920711],2017_Feb_09_1535,60.0164794754,famFaceFilter,001,17,
39,./img/smoo15_BarackObama2_1.png,0,65,65,38,,,1.ja,1.475,None,None,None,None,None,polit,0.809,None,Barak Obama,"['lshift', 'b', 'a', 'r', 'a', 'k', 'space', 'lshift', 'o', 'b', 'a', 'm', 'a', 'return']","[0.516722588261473, 0.750169047880263, 1.1333476612380764, 1.9162247470703733, 2.0492182738526026, 2.2494623828388285, 2.4493292616425606, 2.865616559636692, 3.065856177787282, 3.3156961115782906, 3.4322551051191112, 3.6155321960832225, 3.7153490341497672, 3.898628370532606]",2017_Feb_09_1535,60.0164794754,famFaceFilter,001,17,
32,./img/smoo15_TomCruise1_1.png,0,66,66,31,,,2.nein,3.94,None,act,0.641,None,None,None,None,None,,['return'],[0.5668226697380305],2017_Feb_09_1535,60.0164794754,famFaceFilter,001,17,
25,./img/smoo15_JasonSegel(Marshall)6_1.png,0,67,67,24,,,2.nein,1.758,None,None,None,None,None,polit,1.674,None,,['return'],[0.616845123915482],2017_Feb_09_1535,60.0164794754,famFaceFilter,001,17,
47,./img/smoo15_BarackObama4_1.png,0,68,68,46,,,1.ja,5.489,None,None,None,None,None,polit,1.619,None,Barak Obama,"['lshift', 'b', 'a', 'r', 'a', 'k', 'space', 'lshift', 'o', 'b', 'a', 'm', 'a', 'return']","[0.5667084742053703, 0.8831635369806463, 1.1332629769094638, 1.4997886099572497, 1.6830118108973693, 2.34952557530778, 2.4992959011506173, 2.5492442565409874, 2.8659357297274255, 3.149159892989701, 3.282379244641561, 3.498949786042431, 3.615668204241956, 3.815432114604846]",2017_Feb_09_1535,60.0164794754,famFaceFilter,001,17,
41,./img/smoo15_AngelaMerkel3_1.png,0,69,69,40,,,1.ja,1.241,None,None,None,None,None,polit,0.924,None,Angela Merkel,"['lshift', 'lshift', 'a', 'n', 'g', 'e', 'l', 'a', 'space', 'lshift', 'm', 'e', 'r', 'k', 'e', 'l', 'return']","[0.6667950831761118, 1.0831773302634247, 1.1665933163531008, 1.3998004785953526, 1.583111250825823, 1.782963053254207, 1.9163158468763868, 2.0661304395252955, 2.216201651344818, 2.4993007127595774, 2.7992497097002342, 2.982514932027698, 3.099201593604448, 3.315699319316991, 3.482391754825585, 3.5989776933784015, 3.8821547028674104]",2017_Feb_09_1535,60.0164794754,famFaceFilter,001,17,
10,./img/smoo15_KatjaBurkard5_3.png,0,70,70,9,,,1.ja,1.624,None,act,0.625,None,None,None,None,None,,['return'],[0.5503336049223435],2017_Feb_09_1535,60.0164794754,famFaceFilter,001,17,
23,./img/smoo15_JoachimLoew4_1.png,0,71,71,22,,,1.ja,1.674,None,None,None,music,1.141,None,None,None,,['return'],[0.6167982909173588],2017_Feb_09_1535,60.0164794754,famFaceFilter,001,17,
16,./img/edges5_BritneySpears7_1.png,0,0,0,15,,,2.nein,8.965,None,None,None,None,None,sport,3.848,None,,['return'],[0.9998062525246496],2017_Feb_09_1535,60.0164794754,famFaceFilter,001,17,
68,./img/edges5_MariskaHargitay(Liv)4_4.png,0,1,1,67,,,2.nein,4.789,None,dummy,0.416,None,None,None,None,None,,['return'],[2.2994957433293166],2017_Feb_09_1535,60.0164794754,famFaceFilter,001,17,
36,./img/edges5_AngelaMerkel1_1.png,0,2,2,35,,,1.ja,1.323,None,None,None,None,None,polit,0.956,None,Angela Merkel,"['capslock', 'lshift', 'a', 'n', 'g', 'e', 'l', 'a', 'space', 'lshift', 'm', 'e', 'r', 'k', 'e', 'l', 'return']","[1.1498431415311643, 2.066204538308739, 2.865813835622248, 3.082318297587335, 3.2822393871920212, 3.432380206962989, 3.5821774778178224, 3.6822207823024655, 3.7987172249195282, 3.9821810063313023, 4.298392922442872, 4.5152386879053665, 4.631813720143327, 5.531335446163212, 5.664705561577648, 5.814567307999823, 6.03124691254925]",2017_Feb_09_1535,60.0164794754,famFaceFilter,001,17,
52,./img/edges5_BarackObama4_1.png,0,3,3,51,,,1.ja,1.566,None,None,None,None,None,polit,0.774,None,Barak Obama,"['lshift', 'b', 'a', 'r', 'a', 'k', 'space', 'lshift', 'p', 'backspace', 'lshift', 'o', 'b', 'a', 'm', 'a', 'return']","[0.6001135539827374, 0.8335109351846768, 1.0499993584526237, 1.2829739595690626, 1.3998938238182745, 1.5664717430208839, 1.6830252834042767, 2.1327160573036963, 2.366208066823674, 2.816019772506479, 3.032471948317834, 3.1491772147837764, 3.465631956785728, 3.665343580993067, 3.8488019092474133, 3.9654667581944523, 4.298722036530307]",2017_Feb_09_1535,60.0164794754,famFaceFilter,001,17,
49,./img/edges5_RobertSeanLeonard(Wilson)2_6.png,0,4,4,48,,,1.ja,2.097,None,act,1.173,None,None,None,None,None,,['return'],[0.7832838272170193],2017_Feb_09_1535,60.0164794754,famFaceFilter,001,17,
35,./img/edges5_WillSmith1_1.png,0,5,5,34,,,1.ja,7.054,None,act,4.617,None,None,None,None,None,Eddie Murphy,"['lshift', 'e', 'd', 'd', 'i', 'e', 'space', 'lshift', 'm', 'u', 'r', 'p', 'h', 'y', 'return']","[0.3335481449630606, 0.5335269738825446, 1.7497818737047055, 1.9829441275905992, 2.0493135437172896, 2.182998338390462, 2.3494399286591943, 2.465922577996025, 2.599350753496765, 2.9326262405920716, 3.248952031461158, 3.7487954937660106, 4.065243499515418, 4.6320081091653265, 5.748026919349286]",2017_Feb_09_1535,60.0164794754,famFaceFilter,001,17,
57,./img/edges5_BritneySpears5_1.png,0,6,6,56,,,1.ja,2.266,None,act,1.257,None,None,None,None,None,,['return'],[0.6836276969079336],2017_Feb_09_1535,60.0164794754,famFaceFilter,001,17,
9,./img/edges5_RobertSeanLeonard(Wilson)8_1.png,0,7,7,8,,,1.ja,1.641,None,act,0.657,None,None,None,None,None,,['return'],[0.5832867141834868],2017_Feb_09_1535,60.0164794754,famFaceFilter,001,17,
7,./img/edges5_AngelaMerkel3_1.png,0,8,8,6,,,1.ja,1.356,None,None,None,None,None,polit,0.789,None,Angela Merkel,"['lshift', 'a', 'n', 'g', 'e', 'l', 'a', 'space', 'lshift', 'm', 'e', 'r', 'k', 'e', 'l', 'return']","[1.199715473494507, 1.4330920043885271, 1.6159617124212673, 1.8663427918891102, 1.9995108197072113, 2.1161477613186435, 2.266086493491457, 2.5326798098467407, 2.69927537161675, 2.8322737100079394, 3.0324757976050023, 3.165764757206489, 3.398869592552728, 3.498942408243238, 3.648558441809655, 3.965393621730982]",2017_Feb_09_1535,60.0164794754,famFaceFilter,001,17,
10,./img/edges5_GuentherJauch4_1.png,0,9,9,9,,,2.nein,7.088,None,None,None,host,1.032,None,None,None,,['return'],[0.6002883757919335],2017_Feb_09_1535,60.0164794754,famFaceFilter,001,17,
25,./img/edges5_JoachimLoew8_1.png,0,10,10,24,,,1.ja,5.721,None,None,None,music,0.599,None,None,None,,['return'],[0.7167421554731845],2017_Feb_09_1535,60.0164794754,famFaceFilter,001,17,
8,./img/edges5_LeonardoDiCaprio3_1.png,0,11,11,7,,,1.ja,1.723,None,act,0.823,None,None,None,None,None,Leonardo di Kaprio,"['lshift', 'l', 'e', 'o', 'n', 'a', 'r', 'd', 'o', 'space', 'd', 'i', 'space', 'lshift', 'k', 'a', 'p', 'r', 'i', 'o', 'return']","[0.6001889358631161, 0.8999980753560521, 1.0999252596666338, 1.2165695790790778, 1.4498001578194817, 1.5331654616256856, 1.766466610637508, 2.0160130362528434, 2.199428701571378, 2.3161294772016845, 2.9993696791607363, 3.115837252122219, 3.2323429971838777, 3.3654715698030486, 3.515523855958236, 3.7987576424384315, 4.232048847457918, 4.465277180781413, 4.914847664444096, 5.098298935670755, 5.5479701423591905]",2017_Feb_09_1535,60.0164794754,famFaceFilter,001,17,
31,./img/edges5_GeorgeClooney4_2.png,0,12,12,30,,,1.ja,1.749,None,act,0.656,None,None,None,None,None,George Kluni,"['lshift', 'g', 'e', 'o', 'r', 'g', 'e', 'space', 'lshift', 'k', 'l', 'u', 'n', 'i', 'return']","[0.8167867430529441, 1.1000109063152195, 1.399767118102318, 1.566496121842647, 1.7163289986074233, 1.933016301733005, 2.0995063288701203, 2.216153214476435, 2.415849120758139, 2.5659998845221708, 2.732683338359493, 2.9491602137641166, 3.19904473513634, 3.3656191258269246, 3.7489356719888747]",2017_Feb_09_1535,60.0164794754,famFaceFilter,001,17,
1,./img/edges5_BastianSchweinsteiger6_2.png,0,13,13,0,,,2.nein,4.654,None,None,None,None,None,sport,1.017,None,,['return'],[0.7334230431188189],2017_Feb_09_1535,60.0164794754,famFaceFilter,001,17,
26,./img/edges5_NicoleKidman7_1.png,0,14,14,25,,,1.ja,1.623,None,act,0.441,None,None,None,None,None,Nicole Kidman,"['lshift', 'n', 'i', 'c', 'o', 'l', 'e', 'space', 'lshift', 'k', 'i', 'd', 'm', 'a', 'n', 'return']","[0.9833630583871127, 1.1334573659332818, 1.2999489969406568, 1.549911787160454, 1.69967152746176, 1.9830525491906883, 2.0829537508107023, 2.2161516106061754, 2.31619266967391, 2.4825203851851256, 2.6659700525433436, 2.8160531329995138, 3.182433134667008, 3.2659578631319164, 3.399007846132008, 3.6822666529806156]",2017_Feb_09_1535,60.0164794754,famFaceFilter,001,17,
3,./img/edges5_NicoleKidman5_1.png,0,15,15,2,,,1.ja,1.973,None,act,5.071,None,None,None,None,None,,['return'],[1.7828665002907655],2017_Feb_09_1535,60.0164794754,famFaceFilter,001,17,
34,./img/edges5_KatjaBurkard1_1.png,0,16,16,33,,,1.ja,2.506,None,act,0.69,None,None,None,None,None,,['return'],[0.7500994399288174],2017_Feb_09_1535,60.0164794754,famFaceFilter,001,17,
27,./img/edges5_OmarEpps(DrEricForeman)2_2.png,0,17,17,26,,,1.ja,1.939,None,act,1.256,None,None,None,None,None,,['return'],[0.6500561354441743],2017_Feb_09_1535,60.0164794754,famFaceFilter,001,17,
40,./img/edges5_NicoleKidman3_1.png,0,18,18,39,,,1.ja,2.089,None,dummy,0.823,None,None,None,None,None,Nicole Kidman,"['lshift', 'n', 'i', 'c', 'o', 'l', 'e', 'space', 'lshift', 'k', 'i', 'd', 'n', 'backspace', 'm', 'a', 'n', 'return']","[1.1165496910944057, 1.2833252070595336, 1.4832479005344794, 1.6497360030280106, 1.7498380091492436, 1.9663357348617865, 2.099619241305845, 2.2326573556674703, 2.51611087231322, 2.632670186625546, 2.832599295579712, 2.9825867853960517, 3.149185234133256, 3.482383414702781, 4.315198911934203, 4.448744169932979, 4.515053922103107, 4.764821360979113]",2017_Feb_09_1535,60.0164794754,famFaceFilter,001,17,
28,./img/edges5_Ice-T(OdafinFinTutuola)5_1.png,0,19,19,27,,,1.ja,2.266,None,act,0.641,None,None,None,None,None,,['return'],[0.6335106144106248],2017_Feb_09_1535,60.0164794754,famFaceFilter,001,17,
70,./img/edges5_BastianSchweinsteiger1_1.png,0,20,20,69,,,2.nein,3.289,None,None,None,None,None,sport,0.789,None,,['return'],[0.6336812661593285],2017_Feb_09_1535,60.0164794754,famFaceFilter,001,17,
19,./img/edges5_HughLaurie(DrHouse)2_1.png,0,21,21,18,,,1.ja,1.789,None,act,0.473,None,None,None,None,None,Hew Loury,"['lshift', 'h', 'e', 'w', 'space', 'lshift', 'l', 'o', 'u', 'r', 'y', 'return']","[0.5668954854263575, 0.816686661575659, 0.9834342702069989, 1.1166051849904761, 1.1998604633245122, 1.4331016276064474, 1.5830846265871514, 1.8164557043219247, 2.0495730498532794, 2.2995393685887393, 2.582742360767952, 3.1490007891025016]",2017_Feb_09_1535,60.0164794754,famFaceFilter,001,17,
48,./img/edges5_GeorgeClooney3_1.png,0,22,22,47,,,1.ja,1.44,None,act,0.607,None,None,None,None,None,George Kluni,"['lshift', 'g', 'e', 'o', 'r', 'g', 'e', 'space', 'lshift', 'k', 'l', 'u', 'n', 'i', 'return']","[0.4836687559745769, 0.6669355821723002, 0.9168656534493493, 1.083452233549906, 1.2333617752919963, 1.5830984198673832, 1.733168027818465, 1.8498277443814004, 2.0329563170016627, 2.1997283044529468, 2.3495842769443698, 2.5327972131162824, 2.7158212134236237, 2.9160326034652826, 3.349052112938807]",2017_Feb_09_1535,60.0164794754,famFaceFilter,001,17,
45,./img/edges5_WillSmith4_1.png,0,23,23,44,,,1.ja,1.89,None,dummy,0.89,None,None,None,None,None,Eddie Murphy,"['lshift', 'e', 'd', 'd', 'i', 'e', 'space', 'lshift', 'm', 'u', 'r', 'p', 'h', 'y', 'return']","[0.5333354718259216, 0.7167848184089962, 1.4998210081284924, 1.7496503563797887, 1.949608976538002, 2.0994270977007545, 2.1994084928101074, 2.3824058688805962, 2.432748134699068, 3.748598859327103, 3.9987672656588984, 4.398554913293992, 4.84832588068457, 5.08161965189538, 5.614747262194214]",2017_Feb_09_1535,60.0164794754,famFaceFilter,001,17,
72,./img/edges5_EmilyDeschanel6_12.png,0,24,24,71,,,1.ja,4.399,None,act,2.842,None,None,None,None,None,,['return'],[0.6666930770570616],2017_Feb_09_1535,60.0164794754,famFaceFilter,001,17,
62,./img/edges5_AlysonHannigan(Lily)5_4.png,0,25,25,61,,,2.nein,2.756,None,None,None,None,None,sport,0.69,None,,['return'],[0.6167921962096443],2017_Feb_09_1535,60.0164794754,famFaceFilter,001,17,
39,./img/edges5_AlysonHannigan(Lily)8_3.png,0,26,26,38,,,1.ja,7.87,None,act,0.767,None,None,None,None,None,American Pie,"['lshift', 'a', 'm', 'e', 'r', 'i', 'c', 'a', 'n', 'space', 'lshift', 'p', 'i', 'e', 'return']","[0.9663989273321931, 1.0999047301338578, 1.3164566666455357, 1.4830705125332315, 1.5830410013277287, 2.0662985250819474, 2.2826807721667137, 2.416133005715892, 2.5494434571737656, 2.666079757238549, 2.832560161157744, 3.082425436092308, 3.332350695758578, 3.4655491971025185, 3.94864216381211]",2017_Feb_09_1535,60.0164794754,famFaceFilter,001,17,
64,./img/edges5_EmilyDeschanel3_1.png,0,27,27,63,,,2.nein,2.356,None,None,None,music,0.822,None,None,None,,['return'],[0.7334557620633859],2017_Feb_09_1535,60.0164794754,famFaceFilter,001,17,
30,./img/edges5_MariskaHargitay(Liv)8_8.png,0,28,28,29,,,2.nein,2.372,None,None,None,host,0.656,None,None,None,,['return'],[0.617145047570375],2017_Feb_09_1535,60.0164794754,famFaceFilter,001,17,
43,./img/edges5_BarackObama1_3.png,0,29,29,42,,,1.ja,1.238,None,None,None,None,None,polit,0.623,None,Barak Obama,"['lshift', 'b', 'a', 'r', 'a', 'k', 'space', 'lshift', 'o', 'b', 'a', 'm', 'a', 'return']","[0.9167851391848671, 1.233307243717718, 1.4663851340519614, 1.683056398478584, 1.849634959229661, 1.999651639476724, 2.149636242325869, 2.665789136028252, 2.949210896051227, 3.2324799676662224, 3.382317976815102, 3.5319484452084, 3.6655867276567733, 3.865481193022788]",2017_Feb_09_1535,60.0164794754,famFaceFilter,001,17,
60,./img/edges5_TomCruise1_1.png,0,30,30,59,,,1.ja,5.555,None,act,0.667,None,None,None,None,None,,['return'],[0.7334394025892834],2017_Feb_09_1535,60.0164794754,famFaceFilter,001,17,
56,./img/edges5_NeilPatrickHarris(Barney)1_1.png,0,31,31,55,,,1.ja,2.623,None,act,0.724,None,None,None,None,None,,['return'],[0.8499669602806534],2017_Feb_09_1535,60.0164794754,famFaceFilter,001,17,
38,./img/edges5_GeorgeClooney11_1.png,0,32,32,37,,,1.ja,1.89,None,act,1.006,None,None,None,None,None,George Kluni,"['lshift', 'g', 'e', 'o', 'r', 'g', 'e', 'space', 'less', 'lshift', 'k', 'l', 'u', 'n', 'i', 'return']","[0.98329697895133, 1.0835741276550834, 1.3164502511663159, 1.5332373149940395, 1.7329890359469573, 1.9997549286927097, 2.1662677307813283, 2.3163283570593194, 2.482856877073573, 2.582811647944254, 2.9659501645564887, 3.698938238181654, 3.865584161465449, 4.415272369173181, 4.5986489000661095, 4.964931065675046]",2017_Feb_09_1535,60.0164794754,famFaceFilter,001,17,
12,./img/edges5_UrsulavonderLeyen4_1.png,0,33,33,11,,,2.nein,5.632,None,act,3.533,None,None,None,None,None,,['return'],[0.6835542396693199],2017_Feb_09_1535,60.0164794754,famFaceFilter,001,17,
44,./img/edges5_EmilyDeschanel5_1.png,0,34,34,43,,,1.ja,2.556,None,act,1.089,None,None,None,None,None,,['return'],[0.7333762101188768],2017_Feb_09_1535,60.0164794754,famFaceFilter,001,17,
32,./img/edges5_Ice-T(OdafinFinTutuola)7_1.png,0,35,35,31,,,1.ja,1.64,None,act,0.623,None,None,None,None,None,,['return'],[0.583336434148805],2017_Feb_09_1535,60.0164794754,famFaceFilter,001,17,
4,./img/edges5_LeonardoDiCaprio1_1.png,0,36,36,3,,,1.ja,1.339,None,act,0.673,None,None,None,None,None,Leonardo di Kaprio,"['lshift', 'l', 'e', 'o', 'n', 'a', 'r', 'd', 'o', 'space', 'd', 'i', 'space', 'lshift', 'k', 'a', 'p', 'r', 'i', 'o', 'return']","[1.1164839324319473, 1.1997783451915893, 1.5662773539988848, 1.8492365579677426, 2.799078737176387, 2.882470023672795, 3.0487566801184585, 3.3323362609298783, 3.5822002527693257, 3.7320196570290136, 3.9652351593922504, 4.082042752754205, 4.165320164493096, 4.531766566371516, 4.698276481494759, 4.898213289023261, 6.097702937648137, 6.680537039768751, 6.79741327875854, 6.9140409179271956, 7.247358105636522]",2017_Feb_09_1535,60.0164794754,famFaceFilter,001,17,
42,./img/edges5_JoachimLoew4_1.png,0,37,37,41,,,1.ja,1.349,None,None,None,music,0.972,None,None,None,,['return'],[0.683384229467265],2017_Feb_09_1535,60.0164794754,famFaceFilter,001,17,
69,./img/edges5_GuentherJauch2_1.png,0,38,38,68,,,2.nein,3.306,None,None,None,host,2.357,None,None,None,,['return'],[0.6335131806026766],2017_Feb_09_1535,60.0164794754,famFaceFilter,001,17,
46,./img/edges5_TomCruise5_1.png,0,39,39,45,,,1.ja,4.272,None,act,0.6,None,None,None,None,None,,['return'],[0.600133762742189],2017_Feb_09_1535,60.0164794754,famFaceFilter,001,17,
5,./img/edges5_AlysonHannigan(Lily)1_1.png,0,40,40,4,,,1.ja,1.823,None,act,1.222,None,None,None,None,None,American Pie,"['lshift', 'a', 'm', 'e', 'r', 'i', 'c', 'a', 'n', 'space', 'lshift', 'p', 'i', 'e', 'return']","[0.9333944942354719, 1.0832251255833398, 1.3833704361877608, 1.5165737491424807, 1.6166327715509397, 1.9331343465510145, 2.19944730646057, 2.3329864697534504, 2.482815176457734, 2.582798175437347, 2.649285315608722, 2.7992105752764473, 2.9159094262631697, 3.132521668281697, 3.3658048539509764]",2017_Feb_09_1535,60.0164794754,famFaceFilter,001,17,
17,./img/edges5_NeilPatrickHarris(Barney)3_7.png,0,41,41,16,,,2.nein,1.423,None,act,2.389,None,None,None,None,None,,['return'],[0.5667241921310051],2017_Feb_09_1535,60.0164794754,famFaceFilter,001,17,
66,./img/edges5_BritneySpears1_1.png,0,42,42,65,,,2.nein,1.656,None,dummy,0.84,None,None,None,None,None,,['return'],[0.6834734046315134],2017_Feb_09_1535,60.0164794754,famFaceFilter,001,17,
51,./img/edges5_Ice-T(OdafinFinTutuola)6_1.png,0,43,43,50,,,2.nein,3.155,None,None,None,music,1.052,None,None,None,,['return'],[0.666961564862504],2017_Feb_09_1535,60.0164794754,famFaceFilter,001,17,
11,./img/edges5_RobertSeanLeonard(Wilson)1_1.png,0,44,44,10,,,1.ja,2.722,None,act,0.773,None,None,None,None,None,,['return'],[0.7166686982363899],2017_Feb_09_1535,60.0164794754,famFaceFilter,001,17,
61,./img/edges5_NeilPatrickHarris(Barney)2_2.png,0,45,45,60,,,2.nein,2.307,None,None,None,host,1.44,None,None,None,,['return'],[0.8836293007771019],2017_Feb_09_1535,60.0164794754,famFaceFilter,001,17,
71,./img/edges5_HughLaurie(DrHouse)4_1.png,0,46,46,70,,,1.ja,2.073,None,act,0.474,None,None,None,None,None,Hew Loury,"['lshift', 'h', 'e', 'w', 'space', 'lshift', 'l', 'o', 'u', 'r', 'y', 'return']","[0.5168781636330095, 0.8001311965508648, 0.949980753563068, 1.0665573896694696, 1.233149422927454, 1.3996628665645403, 1.5330531907384284, 1.766018168636947, 1.9996304683936614, 2.266014640124922, 2.516016243993363, 2.9159036523324176]",2017_Feb_09_1535,60.0164794754,famFaceFilter,001,17,
58,./img/edges5_HughLaurie(DrHouse)5_3.png,0,47,47,57,,,1.ja,1.473,None,act,0.474,None,None,None,None,None,Hew Loury,"['lshift', 'h', 'e', 'w', 'space', 'lshift', 'l', 'o', 'u', 'r', 'y', 'return']","[0.5331558384059463, 0.8166388662557438, 0.9832260879047681, 1.0832325033843517, 1.3331789341318654, 1.499662866564904, 1.6328052324643068, 1.8329037100720598, 2.032821271162902, 2.2326891122902452, 2.449262219883167, 2.7159068600722094]",2017_Feb_09_1535,60.0164794754,famFaceFilter,001,17,
6,./img/edges5_GuentherJauch3_1.png,0,48,48,5,,,2.nein,2.705,None,None,None,None,None,polit,1.356,None,,['return'],[0.8667399100540933],2017_Feb_09_1535,60.0164794754,famFaceFilter,001,17,
63,./img/edges5_LisaEdelstein(DrLisaCuddy)2_2.png,0,49,49,62,,,2.nein,4.572,None,None,None,None,None,sport,3.199,None,,['return'],[0.7335616174696042],2017_Feb_09_1535,60.0164794754,famFaceFilter,001,17,
2,./img/edges5_OmarEpps(DrEricForeman)1_5.png,0,50,50,1,,,1.ja,2.706,None,act,0.59,None,None,None,None,None,,['return'],[0.4833781347642798],2017_Feb_09_1535,60.0164794754,famFaceFilter,001,17,
15,./img/edges5_LisaEdelstein(DrLisaCuddy)6_3.png,0,51,51,14,,,2.nein,1.523,None,None,None,host,0.973,None,None,None,,['return'],[0.6335895248048473],2017_Feb_09_1535,60.0164794754,famFaceFilter,001,17,
21,./img/edges5_JoshRadnor(Ted)3_1.png,0,52,52,20,,,2.nein,3.656,None,None,None,None,None,sport,0.906,None,,['return'],[0.5835827885512117],2017_Feb_09_1535,60.0164794754,famFaceFilter,001,17,
18,./img/edges5_JoshRadnor(Ted)6_2.png,0,53,53,17,,,2.nein,3.289,None,act,3.172,None,None,None,None,None,,['return'],[0.6335738068810315],2017_Feb_09_1535,60.0164794754,famFaceFilter,001,17,
14,./img/edges5_AngelaMerkel4_1.png,0,54,54,13,,,1.ja,1.506,None,None,None,None,None,polit,1.756,None,Angela Merkel,"['lshift', 'a', 'n', 'g', 'e', 'l', 'a', 'space', 'lshift', 'm', 'e', 'r', 'k', 'e', 'l', 'return']","[1.0334429311042186, 1.1333290563470655, 1.5666022980258276, 1.9663267531905149, 2.116322903902983, 2.4828658587448444, 2.732645807805966, 2.9492779378088017, 3.2825890308140515, 3.4157830413223564, 3.7989340681197064, 3.898560366453239, 4.2653227306855115, 4.498736150584591, 4.815095943493361, 5.415006126782828]",2017_Feb_09_1535,60.0164794754,famFaceFilter,001,17,
50,./img/edges5_WillSmith5_1.png,0,55,55,49,,,1.ja,2.251,None,act,0.74,None,None,None,None,None,Eddie Murphy,"['lshift', 'e', 'd', 'd', 'i', 'e', 'space', 'lshift', 'm', 'u', 'r', 'p', 'h', 'y', 'return']","[0.9502338442198379, 1.1001241395242687, 1.3832905634717463, 2.5329691479601024, 3.4491598929889733, 3.682257671309344, 3.8321681753732264, 4.248947540625522, 4.432068735444773, 4.865258575891858, 5.231734809749469, 5.564961539201249, 5.998147530361166, 6.981090695629973, 8.013872832369088]",2017_Feb_09_1535,60.0164794754,famFaceFilter,001,17,
33,./img/edges5_BarackObama2_1.png,0,56,56,32,,,1.ja,3.266,None,None,None,None,None,polit,1.356,None,Barak Obama,"['lshift', 'b', 'a', 'r', 'a', 'k', 'space', 'lshift', 'o', 'b', 'a', 'm', 'a', 'return']","[0.6671671809745021, 0.8669913968424225, 1.0835154260203126, 1.3000994399299088, 1.4999624694464728, 1.616822669739122, 1.7665686167601962, 1.8666654904955067, 2.033024000309524, 2.3164104751958803, 2.4662481635696167, 2.716150327511059, 2.8163238662255026, 3.0660332450152055]",2017_Feb_09_1535,60.0164794754,famFaceFilter,001,17,
20,./img/edges5_JoshRadnor(Ted)1_2.png,0,57,57,19,,,2.nein,6.854,None,dummy,1.949,None,None,None,None,None,,['return'],[0.8500850050986628],2017_Feb_09_1535,60.0164794754,famFaceFilter,001,17,
41,./img/edges5_OmarEpps(DrEricForeman)3_1.png,0,58,58,40,,,1.ja,1.989,None,act,0.773,None,None,None,None,None,,['return'],[0.9667180974247458],2017_Feb_09_1535,60.0164794754,famFaceFilter,001,17,
47,./img/edges5_UrsulavonderLeyen5_1.png,0,59,59,46,,,2.nein,2.04,None,None,None,host,1.173,None,None,None,,['return'],[0.7833627376130607],2017_Feb_09_1535,60.0164794754,famFaceFilter,001,17,
65,./img/edges5_LisaEdelstein(DrLisaCuddy)1_1.png,0,60,60,64,,,2.nein,1.29,None,act,1.224,None,None,None,None,None,,"['delete', 'return']","[0.6333797386341757, 0.9667713459039078]",2017_Feb_09_1535,60.0164794754,famFaceFilter,001,17,
67,./img/edges5_LeonardoDiCaprio2_1.png,0,61,61,66,,,1.ja,1.373,None,act,0.624,None,None,None,None,None,Leonardo di Kaprio,"['lshift', 'l', 'e', 'o', 'n', 'a', 'r', 'd', 'o', 'space', 'd', 'i', 'space', 'lshift', 'k', 'a', 'p', 'r', 'i', 'o', 'return']","[1.0834098913855996, 1.233213898494796, 1.3501321588737483, 1.5999364867548138, 1.8498825967290031, 1.9332434096995712, 2.183049982999364, 2.4162831279318198, 2.582829932060122, 2.69909220968475, 2.9827080379545805, 3.0993664714223996, 3.215966203255448, 3.3495464256156993, 3.599254521310286, 3.8155719720543857, 3.965589935396565, 4.165111340642397, 4.298875045711611, 4.398802871568478, 4.748646333875513]",2017_Feb_09_1535,60.0164794754,famFaceFilter,001,17,
13,./img/edges5_MariskaHargitay(Liv)6_5.png,0,62,62,12,,,2.nein,2.615,None,None,None,host,2.822,None,None,None,,['return'],[0.682907880134735],2017_Feb_09_1535,60.0164794754,famFaceFilter,001,17,
24,./img/edges5_JasonSegel(Marshall)7_1.png,0,63,63,23,,,1.ja,2.345,None,act,0.938,None,None,None,None,None,Sportlehreh Bad teacher,"['lshift', 's', 'p', 'o', 'r', 't', 'l', 'e', 'h', 'r', 'e', 'h', 'space', 'lshift', 'b', 'a', 'd', 'space', 't', 'e', 'a', 'c', 'h', 'e', 'r', 'return']","[1.14919838586502, 1.3497558910130465, 1.6163633214218862, 1.749411379776575, 2.082832819025498, 2.2828357059916016, 3.1657609079175018, 3.265782720547577, 3.565631315237624, 3.7321447588728915, 3.88220121509039, 4.032093755813548, 4.232191591872834, 4.398632540593098, 4.548645371551174, 5.0151219261824735, 5.1815275897679385, 5.281636973690183, 5.61478062268543, 5.781421092811797, 5.93113560398524, 6.1480516189458285, 6.297893477381876, 6.431138170177292, 6.514451829372774, 6.797541909118081]",2017_Feb_09_1535,60.0164794754,famFaceFilter,001,17,
37,./img/edges5_JasonSegel(Marshall)9_1.png,0,64,64,36,,,1.ja,2.467,None,act,0.874,None,None,None,None,None,Sportlehrer bad teacher,"['lshift', 's', 'p', 'o', 'r', 't', 'l', 'e', 'a', 'backspace', 'h', 'r', 'e', 'r', 'space', 'b', 'a', 'd', 'space', 't', 'e', 'a', 'c', 'h', 'e', 'r', 'return']","[0.3502418635689537, 0.5166555465020792, 1.04998941445956, 1.166576636107493, 1.299830631347504, 1.4664419110431481, 1.849410738228471, 1.949609938859794, 2.1161307602978923, 2.932277238520328, 3.199081944916543, 3.648919954064695, 3.748578971342795, 4.015849762306971, 4.198458360331642, 4.6818704971356055, 4.781661031736803, 4.948053543590504, 5.164985918023376, 5.298027560898845, 5.464840928190824, 5.648017616906145, 5.8645746858019265, 5.997927800195612, 6.11451630494048, 6.231041617213123, 6.447856588376453]",2017_Feb_09_1535,60.0164794754,famFaceFilter,001,17,
53,./img/edges5_KatjaBurkard4_1.png,0,65,65,52,,,1.ja,3.714,None,act,0.506,None,None,None,None,None,,['return'],[0.6668618041603622],2017_Feb_09_1535,60.0164794754,famFaceFilter,001,17,
59,./img/edges5_BastianSchweinsteiger3_1.png,0,66,66,58,,,2.nein,1.107,None,None,None,None,None,sport,0.607,None,,['return'],[0.7835879209342238],2017_Feb_09_1535,60.0164794754,famFaceFilter,001,17,
55,./img/edges5_JoachimLoew1_1.png,0,67,67,54,,,1.ja,28.345,None,None,None,music,2.831,None,None,None,,['return'],[0.8833418873073242],2017_Feb_09_1535,60.0164794754,famFaceFilter,001,17,
23,./img/edges5_UrsulavonderLeyen1_1.png,0,68,68,22,,,2.nein,1.956,None,None,None,None,None,sport,4.871,None,,['return'],[0.5999582993845252],2017_Feb_09_1535,60.0164794754,famFaceFilter,001,17,
22,./img/edges5_JasonSegel(Marshall)6_1.png,0,69,69,21,,,1.ja,1.423,None,act,0.49,None,None,None,None,None,Sportlehrer Bad teacher,"['lshift', 's', 'p', 'o', 'r', 't', 'l', 'e', 'h', 'r', 'e', 'h', 'space', 'backspace', 'backspace', 'r', 'space', 'lshift', 'b', 'a', 'd', 'space', 't', 'e', 'a', 'c', 'h', 'e', 'r', 'return']","[1.0666048642160604, 1.1995711252111505, 1.4831994636660966, 1.5664864986229077, 1.7663360556343832, 1.9993594143943483, 2.5492612575617386, 2.69926895613753, 2.84914064655095, 2.9492169907553034, 3.082565614313353, 3.2324090766196605, 3.46571407492047, 4.032390150956417, 4.232019977802338, 4.398505834878961, 4.615101396650061, 4.981707223187186, 5.23139414779871, 5.464784792748105, 5.6812408178448095, 5.798079205505928, 5.94798169022215, 6.0645381175691, 6.231224779146942, 6.481167681380612, 6.714375805944655, 6.86427604524215, 7.014287272329966, 7.4807153900928824]",2017_Feb_09_1535,60.0164794754,famFaceFilter,001,17,
29,./img/edges5_TomCruise4_1.png,0,70,70,28,,,1.ja,3.632,None,act,0.674,None,None,None,None,None,,['return'],[0.6001857281262346],2017_Feb_09_1535,60.0164794754,famFaceFilter,001,17,
54,./img/edges5_KatjaBurkard5_3.png,0,71,71,53,,,2.nein,3.689,None,None,None,host,0.99,None,None,None,,['return'],[0.5834054005499638],2017_Feb_09_1535,60.0164794754,famFaceFilter,001,17,
47,./img/gray_HughLaurie(DrHouse)5_3.png,0,0,0,46,,,1.ja,1.717,None,act,0.789,None,None,None,None,None,Hew Loury,"['lshift', 'h', 'e', 'w', 'space', 'lshift', 'l', 'o', 'u', 'r', 'a', 'backspace', 'y', 'return']","[0.9999310335970222, 1.0999204480558546, 1.282922956508628, 1.3998684826747194, 1.5663520943326148, 1.9995044042261725, 2.216167328529991, 2.5158103071080404, 2.74929846734085, 2.982513328157438, 3.433305639846367, 4.01534582640852, 4.215304125793409, 4.798499740172701]",2017_Feb_09_1535,60.0164794754,famFaceFilter,001,17,
54,./img/gray_LeonardoDiCaprio3_1.png,0,1,1,53,,,1.ja,1.182,None,act,0.756,None,None,None,None,None,Leonardo di Kaprio,"['lshift', 'l', 'e', 'o', 'n', 'a', 'r', 'd', 'o', 'space', 'd', 'i', 'space', 'lshift', 'k', 'a', 'p', 'r', 'i', 'o', 'return']","[2.0162119161104783, 2.1660473590673064, 2.4659293142485694, 2.6159421452066454, 3.03233177009497, 3.1156656380499044, 3.298745132255135, 3.5488788949969603, 3.715475739863905, 3.84872684813854, 4.165117756121617, 4.331879478806513, 4.448586349142715, 4.614970520871793, 4.931598160039357, 5.23141339423637, 5.4146760503736004, 5.697971104680619, 5.847927800195976, 5.981244987906393, 6.281056693589562]",2017_Feb_09_1535,60.0164794754,famFaceFilter,001,17,
55,./img/gray_Ice-T(OdafinFinTutuola)6_1.png,0,2,2,54,,,1.ja,5.382,None,None,None,None,None,sport,1.383,None,,['return'],[0.8168419161738711],2017_Feb_09_1535,60.0164794754,famFaceFilter,001,17,
61,./img/gray_AlysonHannigan(Lily)8_3.png,0,3,3,60,,,1.ja,1.722,None,act,0.84,None,None,None,None,None,American Pie,"['lshift', 'a', 'm', 'e', 'r', 'i', 'c', 'a', 'n', 'space', 'lshift', 'p', 'i', 'e', 'return']","[1.1498761812508747, 1.333094570580215, 2.216242068863721, 2.299388604826163, 2.3660553784175136, 2.8325476509726286, 3.4657631533355016, 3.632160156024838, 3.78208990652638, 3.9653856023815024, 4.165329146164368, 4.56501542922706, 4.748161644414722, 4.93167322114823, 5.148282576199563]",2017_Feb_09_1535,60.0164794754,famFaceFilter,001,17,
8,./img/gray_BastianSchweinsteiger6_2.png,0,4,4,7,,,2.nein,1.53,None,None,None,None,None,sport,1.055,None,,['return'],[0.7167488917257288],2017_Feb_09_1535,60.0164794754,famFaceFilter,001,17,
35,./img/gray_JoachimLoew4_1.png,0,5,5,34,,,1.ja,10.102,None,None,None,music,1.066,None,None,None,,['return'],[1.2332732416780345],2017_Feb_09_1535,60.0164794754,famFaceFilter,001,17,
1,./img/gray_JoachimLoew8_1.png,0,6,6,0,,,1.ja,1.639,None,None,None,music,1.072,None,None,None,,['return'],[1.2165618805047416],2017_Feb_09_1535,60.0164794754,famFaceFilter,001,17,
70,./img/gray_WillSmith5_1.png,0,7,7,69,,,1.ja,1.49,None,act,0.573,None,None,None,None,None,Eddie Murphy,"['lshift', 'e', 'd', 'd', 'i', 'e', 'space', 'lshift', 'm', 'u', 'r', 'p', 'h', 'y', 'return']","[1.2167100780752662, 1.3665698998538574, 1.6332879972796945, 1.8330624931841157, 1.982960807836207, 2.132705471762165, 2.266231162548138, 2.5161381380985404, 2.5662603529799526, 3.8322057059267536, 4.01549691094624, 4.598495890884806, 4.881900649887029, 5.181707223187914, 5.781560308712869]",2017_Feb_09_1535,60.0164794754,famFaceFilter,001,17,
65,./img/gray_KatjaBurkard5_3.png,0,8,8,64,,,1.ja,1.565,None,act,1.439,None,None,None,None,None,,['return'],[0.6333450950460247],2017_Feb_09_1535,60.0164794754,famFaceFilter,001,17,
22,./img/gray_GuentherJauch4_1.png,0,9,9,21,,,2.nein,1.306,None,None,None,host,1.006,None,None,None,,['return'],[0.6835195960811689],2017_Feb_09_1535,60.0164794754,famFaceFilter,001,17,
33,./img/gray_KatjaBurkard4_1.png,0,10,10,32,,,2.nein,1.589,None,act,1.622,None,None,None,None,None,,['return'],[0.6999743380838481],2017_Feb_09_1535,60.0164794754,famFaceFilter,001,17,
44,./img/gray_BritneySpears5_1.png,0,11,11,43,,,1.ja,1.706,None,act,0.606,None,None,None,None,None,,['return'],[0.6501626323988603],2017_Feb_09_1535,60.0164794754,famFaceFilter,001,17,
25,./img/gray_MariskaHargitay(Liv)8_8.png,0,12,12,24,,,2.nein,1.355,None,None,None,music,1.622,None,None,None,,['return'],[0.6168662949967256],2017_Feb_09_1535,60.0164794754,famFaceFilter,001,17,
34,./img/gray_RobertSeanLeonard(Wilson)2_6.png,0,13,13,33,,,1.ja,2.722,None,dummy,0.856,None,None,None,None,None,,['return'],[0.9332543160144269],2017_Feb_09_1535,60.0164794754,famFaceFilter,001,17,
31,./img/gray_AngelaMerkel3_1.png,0,14,14,30,,,1.ja,2.339,None,None,None,None,None,polit,1.022,None,Angela Merkel,"['lshift', 'a', 'n', 'g', 'e', 'l', 'a', 'space', 'lshift', 'm', 'e', 'r', 'k', 'e', 'l', 'return']","[0.3002697709034692, 0.5002322403488506, 0.9166889069947501, 1.0832819025745266, 1.2829293719878478, 1.4165041411906714, 1.5164611574800801, 1.682684621453518, 1.7661044568340003, 1.8827981754366192, 2.0994569296799455, 2.2329175033519277, 2.549108569155578, 2.632634580715603, 2.78274556850738, 3.065747114638725]",2017_Feb_09_1535,60.0164794754,famFaceFilter,001,17,
50,./img/gray_BastianSchweinsteiger3_1.png,0,15,15,49,,,2.nein,1.856,None,None,None,None,None,sport,0.84,None,,['return'],[0.8166767175844143],2017_Feb_09_1535,60.0164794754,famFaceFilter,001,17,
2,./img/gray_BastianSchweinsteiger1_1.png,0,16,16,1,,,2.nein,2.089,None,None,None,None,None,sport,0.806,None,,['return'],[0.6834365156246349],2017_Feb_09_1535,60.0164794754,famFaceFilter,001,17,
32,./img/gray_MariskaHargitay(Liv)6_5.png,0,17,17,31,,,2.nein,4.77,None,None,None,host,1.198,None,None,None,,['return'],[0.8000125101843878],2017_Feb_09_1535,60.0164794754,famFaceFilter,001,17,
6,./img/gray_NicoleKidman3_1.png,0,18,18,5,,,1.ja,1.723,None,act,0.572,None,None,None,None,None,Nicole Kidman,"['lshift', 'n', 'i', 'c', 'o', 'l', 'e', 'space', 'lshift', 'k', 'i', 'd', 'm', 'a', 'n', 'return']","[0.5666757552626223, 0.9668364630197175, 1.2514575968907593, 1.4166452817371464, 1.5330156601849012, 1.8330182263780443, 1.9331295349420543, 2.099636883875064, 2.182796892342594, 2.282771551199403, 2.4994803461795527, 2.6825646519937436, 2.9658330820620904, 3.0158831228000054, 3.1492006312837475, 3.398789078288246]",2017_Feb_09_1535,60.0164794754,famFaceFilter,001,17,
64,./img/gray_LisaEdelstein(DrLisaCuddy)2_2.png,0,19,19,63,,,2.nein,2.488,None,None,None,host,3.438,None,None,None,,['return'],[0.6334275339522719],2017_Feb_09_1535,60.0164794754,famFaceFilter,001,17,
68,./img/gray_Ice-T(OdafinFinTutuola)7_1.png,0,20,20,67,,,1.ja,1.555,None,act,0.539,None,None,None,None,None,,['return'],[0.6001623116244446],2017_Feb_09_1535,60.0164794754,famFaceFilter,001,17,
36,./img/gray_TomCruise5_1.png,0,21,21,35,,,1.ja,1.705,None,act,0.556,None,None,None,None,None,Tom Kruz,"['lshift', 't', 'o', 'm', 'space', 'lshift', 'k', 'r', 'u', 'y', 'backspace', 'z', 'return']","[0.8333665869013203, 1.0166125627911242, 1.2331847080640728, 1.4830612100868166, 1.6331789341329568, 1.7162080668240378, 1.966118570888284, 2.316141025065008, 2.4826400338733947, 2.682633939168227, 3.3157865698358364, 3.8988683094576118, 4.665061620678898]",2017_Feb_09_1535,60.0164794754,famFaceFilter,001,17,
67,./img/gray_AngelaMerkel4_1.png,0,22,22,66,,,1.ja,1.749,None,None,None,None,None,polit,1.139,None,Angela Merkel,"['lshift', 'a', 'n', 'g', 'e', 'l', 'a', 'space', 'lshift', 'm', 'e', 'r', 'k', 'e', 'l', 'return']","[0.18366426513784972, 0.4001863696721557, 1.2831532722138945, 1.3832469382123236, 1.532942523721431, 1.7496214867223898, 1.8495922962920304, 1.9995351985271554, 2.149156364475857, 2.1994553258100495, 2.6658943498860026, 2.7659168040645454, 3.665517119705328, 3.7822246315899974, 3.948533742212021, 4.215368280587427]",2017_Feb_09_1535,60.0164794754,famFaceFilter,001,17,
52,./img/gray_EmilyDeschanel5_1.png,0,23,23,51,,,1.ja,2.897,None,act,1.422,None,None,None,None,None,,['return'],[1.0500269450130872],2017_Feb_09_1535,60.0164794754,famFaceFilter,001,17,
59,./img/gray_AlysonHannigan(Lily)5_4.png,0,24,24,58,,,1.ja,1.539,None,act,0.689,None,None,None,None,None,American Pie,"['lshift', 'a', 'm', 'e', 'r', 'i', 'c', 'a', 'n', 'space', 'lshift', 'p', 'i', 'e', 'return']","[1.1498043278825207, 1.3165772776555968, 1.5495916547442903, 1.6830416428747412, 1.783063134731492, 2.249416191385535, 2.3825165358975937, 2.5495323115610518, 2.6326105226689833, 2.7658850474417704, 2.882414850551868, 3.0825633688964444, 3.1990264510204725, 3.332254784343604, 3.4989427290165622]",2017_Feb_09_1535,60.0164794754,famFaceFilter,001,17,
42,./img/gray_NicoleKidman5_1.png,0,25,25,41,,,1.ja,1.273,None,act,0.457,None,None,None,None,None,Nicole Kidman,"['lshift', 'a', 'backspace', 'lshift', 'n', 'i', 'c', 'o', 'l', 'e', 'space', 'lshift', 'k', 'i', 'd', 'm', 'a', 'n', 'return']","[0.3169384691373125, 0.5502335234450584, 1.016650734893119, 1.4663585098114709, 1.7163844925034937, 1.8996144296961575, 2.0162632399442373, 2.1662340495131502, 2.4493395264089486, 2.56606083157385, 2.6658449506958277, 2.799215066110264, 2.899127494818458, 3.0824530226527713, 3.232360960524602, 3.4820183739320782, 3.5655248182811192, 3.6822393871934764, 3.9486909214538173]",2017_Feb_09_1535,60.0164794754,famFaceFilter,001,17,
27,./img/gray_LeonardoDiCaprio1_1.png,0,26,26,26,,,1.ja,1.672,None,act,0.456,None,None,None,None,None,Leonardo di Kaprio,"['lshift', 'l', 'e', 'o', 'n', 'a', 'r', 'd', 'o', 'space', 'd', 'i', 'space', 'lshift', 'k', 'a', 'p', 'r', 'i', 'o', 'return']","[0.4667889884713077, 0.7667344568963017, 0.9163864171459863, 1.0333864748863562, 1.283357284455633, 1.3498809928587434, 1.6164646859942877, 1.8496840376446926, 2.1326945654473093, 2.3327064340828656, 2.4827231143299286, 2.5493311862865085, 2.682586464621636, 2.7992558044043108, 2.915849762306607, 3.149078737176751, 3.332468419803263, 3.5156560148316203, 3.6489154632290592, 3.7655402154305193, 4.065382394641347]",2017_Feb_09_1535,60.0164794754,famFaceFilter,001,17,
19,./img/gray_JasonSegel(Marshall)9_1.png,0,27,27,18,,,1.ja,1.614,None,act,0.589,None,None,None,None,None,Sportlehrer Bad teacher,"['lshift', 's', 'p', 'o', 'r', 't', 'l', 'e', 'h', 'r', 'e', 'h', 'backspace', 'r', 'space', 'lshift', 'b', 'a', 'd', 'space', 't', 'e', 'a', 'c', 'h', 'e', 'r', 'return']","[0.8002145977825421, 1.649845707723216, 1.8996894908032118, 2.016496442616699, 2.132830894383005, 2.3162013305700384, 2.7661224201765435, 2.8826843006809213, 3.0325563118694845, 3.149190045742216, 3.2991759316882963, 3.4323096366915706, 4.098792606802817, 4.231965767003203, 4.448611048739622, 4.848428207578763, 5.048226761529804, 5.281619010349459, 5.498153304293737, 5.648081130151695, 5.781208098900606, 5.9146555208408245, 6.147928762518859, 6.464659690902408, 6.847653859231286, 7.047616649451811, 7.147639424403678, 7.364059202043791]",2017_Feb_09_1535,60.0164794754,famFaceFilter,001,17,
12,./img/gray_BarackObama2_1.png,0,28,28,11,,,1.ja,1.6,None,None,None,None,None,polit,0.555,None,Barak Obama,"['lshift', 'b', 'a', 'r', 'a', 'k', 'space', 'o', 'lshift', 'b', 'backspace', 'backspace', 'lshift', 'o', 'b', 'a', 'm', 'a', 'return']","[0.6001668024618994, 0.8333861541123042, 1.0496619042423845, 1.3499724134399003, 1.5164746299869876, 1.6664986880350625, 1.7996744144274999, 1.9497151527211827, 2.049509215836224, 2.4494992718427966, 2.8326214289845666, 2.999165025374168, 3.33235646968933, 3.6823311285461386, 4.0320892649779125, 4.365390413990099, 4.515258575891494, 4.681829438068235, 4.881845155992778]",2017_Feb_09_1535,60.0164794754,famFaceFilter,001,17,
41,./img/gray_RobertSeanLeonard(Wilson)1_1.png,0,29,29,40,,,1.ja,1.982,None,act,0.722,None,None,None,None,None,,['return'],[0.6002697709027416],2017_Feb_09_1535,60.0164794754,famFaceFilter,001,17,
62,./img/gray_LisaEdelstein(DrLisaCuddy)1_1.png,0,30,30,61,,,2.nein,1.755,None,None,None,host,1.855,None,None,None,,['return'],[0.5833742854774755],2017_Feb_09_1535,60.0164794754,famFaceFilter,001,17,
45,./img/gray_NicoleKidman7_1.png,0,31,31,44,,,1.ja,1.489,None,act,1.439,None,None,None,None,None,Nicole Kidman,"['lshift', 'n', 'i', 'c', 'o', 'l', 'e', 'space', 'lshift', 'k', 'i', 'd', 'm', 'a', 'n', 'return']","[1.0833723608320724, 1.483160650015634, 1.6496817922288756, 1.849558294252347, 2.066121457854024, 2.249536481622272, 2.415978071891004, 2.7490347911443678, 2.982575879081196, 3.1823609605253296, 3.448949465269834, 3.63208156640394, 3.748760529404535, 3.882163684536863, 4.098661731024549]",2017_Feb_09_1535,60.0164794754,famFaceFilter,001,17,
13,./img/gray_NeilPatrickHarris(Barney)2_2.png,0,32,32,12,,,1.ja,21.791,None,dummy,0.733,None,None,None,None,None,,['return'],[1.316580164620973],2017_Feb_09_1535,60.0164794754,famFaceFilter,001,17,
37,./img/gray_TomCruise1_1.png,0,33,33,36,,,1.ja,3.356,None,dummy,0.773,None,None,None,None,None,,['return'],[0.9165974864154123],2017_Feb_09_1535,60.0164794754,famFaceFilter,001,17,
66,./img/gray_NeilPatrickHarris(Barney)3_7.png,0,34,34,65,,,1.ja,1.539,None,dummy,0.872,None,None,None,None,None,,['return'],[0.7667662135208957],2017_Feb_09_1535,60.0164794754,famFaceFilter,001,17,
60,./img/gray_EmilyDeschanel3_1.png,0,35,35,59,,,1.ja,2.555,None,act,0.756,None,None,None,None,None,,['return'],[0.9666148082087602],2017_Feb_09_1535,60.0164794754,famFaceFilter,001,17,
38,./img/gray_MariskaHargitay(Liv)4_4.png,0,36,36,37,,,2.nein,1.423,None,None,None,host,0.922,None,None,None,,['return'],[0.6502842057307134],2017_Feb_09_1535,60.0164794754,famFaceFilter,001,17,
3,./img/gray_KatjaBurkard1_1.png,0,37,37,2,,,1.ja,4.153,None,act,1.09,None,None,None,None,None,,['return'],[0.850164557043172],2017_Feb_09_1535,60.0164794754,famFaceFilter,001,17,
16,./img/gray_JoshRadnor(Ted)1_2.png,0,38,38,15,,,2.nein,1.456,None,dummy,3.455,None,None,None,None,None,,['return'],[0.7333989850703801],2017_Feb_09_1535,60.0164794754,famFaceFilter,001,17,
10,./img/gray_HughLaurie(DrHouse)2_1.png,0,39,39,9,,,1.ja,1.423,None,act,0.774,None,None,None,None,None,Hew Loury,"['lshift', 'h', 'e', 'w', 'space', 'lshift', 'l', 'o', 'u', 'r', 'y', 'return']","[0.9497767413213296, 1.066689548542854, 1.1832061999193684, 1.3332960166299017, 1.4664188153183204, 1.633005395418877, 1.816390587209753, 2.1161214578532963, 2.3827247181998246, 2.582766418816391, 2.8660159232204023, 3.082421907578464]",2017_Feb_09_1535,60.0164794754,famFaceFilter,001,17,
43,./img/gray_LisaEdelstein(DrLisaCuddy)6_3.png,0,40,40,42,,,2.nein,2.555,None,act,2.438,None,None,None,None,None,,['return'],[0.500382041789635],2017_Feb_09_1535,60.0164794754,famFaceFilter,001,17,
49,./img/gray_NeilPatrickHarris(Barney)1_1.png,0,41,41,48,,,1.ja,1.472,None,act,0.49,None,None,None,None,None,,['return'],[0.6668069518127595],2017_Feb_09_1535,60.0164794754,famFaceFilter,001,17,
39,./img/gray_UrsulavonderLeyen1_1.png,0,42,42,38,,,2.nein,4.838,None,None,None,None,None,polit,0.833,None,,['return'],[0.6500230957244639],2017_Feb_09_1535,60.0164794754,famFaceFilter,001,17,
15,./img/gray_GeorgeClooney11_1.png,0,43,43,14,,,1.ja,1.373,None,act,1.806,None,None,None,None,None,george Kluni,"['less', 'g', 'e', 'o', 'r', 'g', 'e', 'space', 'lshift', 'k', 'l', 'u', 'n', 'i', 'return']","[1.0667087949805136, 1.449791176150029, 1.8162949965681037, 2.0159767887962516, 2.2828235165798105, 2.5160486421627866, 2.6992676730405947, 2.8321851763939776, 2.9991935742564237, 3.1824664951600425, 3.3323279208070744, 3.5490306210813287, 3.7322355379055807, 3.932145400422087, 4.798159719772229]",2017_Feb_09_1535,60.0164794754,famFaceFilter,001,17,
40,./img/gray_BritneySpears1_1.png,0,44,44,39,,,1.ja,2.059,None,act,0.573,None,None,None,None,None,,['return'],[0.5655312337621581],2017_Feb_09_1535,60.0164794754,famFaceFilter,001,17,
28,./img/gray_GeorgeClooney4_2.png,0,45,45,27,,,1.ja,1.256,None,act,0.606,None,None,None,None,None,George Kluni,"['lshift', 'g', 'e', 'o', 'r', 'g', 'e', 'space', 'lshift', 'k', 'l', 'u', 'n', 'i', 'return']","[0.5999704887944972, 0.8831988221172651, 1.2997360030276468, 1.483184066515605, 2.26613332648958, 2.499246181185299, 2.699346262661493, 2.815841422183439, 2.932517498218658, 3.182457513488771, 3.449046659779924, 3.631982447248447, 3.798756359343315, 3.998672637339041, 4.715136681785225]",2017_Feb_09_1535,60.0164794754,famFaceFilter,001,17,
23,./img/gray_TomCruise4_1.png,0,46,46,22,,,1.ja,3.083,None,dummy,0.79,None,None,None,None,None,Tom Kruz,"['less', 'lshift', 'lshift', 't', 'o', 'm', 'space', 'lshift', 'k', 'r', 'u', 'y', 'backspace', 'z', 'return']","[0.5002078615289065, 0.8667973285937478, 1.1166696605578181, 1.3166308469080832, 2.282697773187465, 2.549342734149832, 2.6658792735106545, 2.799211216823096, 3.0490883603961265, 3.3490075253575924, 3.532369942196965, 3.6822233484945173, 4.248664938764705, 4.915051355910691, 5.181621576539328]",2017_Feb_09_1535,60.0164794754,famFaceFilter,001,17,
58,./img/gray_GeorgeClooney3_1.png,0,47,47,57,,,1.ja,1.261,None,act,0.507,None,None,None,None,None,George Kluni,"['lshift', 'g', 'e', 'o', 'r', 'g', 'e', 'space', 'lshift', 'k', 'l', 'u', 'n', 'i', 'return']","[0.41693461985050817, 0.8499823574329639, 1.5498216496762325, 1.6496471486407245, 1.8330753241425555, 2.049523329891599, 2.2327911184111144, 2.3663152053286467, 2.532714774208216, 2.632729850583928, 2.8825377069806564, 3.54901233696728, 3.798912255489995, 3.9988718379718193, 4.315375337615478]",2017_Feb_09_1535,60.0164794754,famFaceFilter,001,17,
9,./img/gray_RobertSeanLeonard(Wilson)8_1.png,0,48,48,8,,,2.nein,1.899,None,act,0.722,None,None,None,None,None,,['return'],[0.6001712932957162],2017_Feb_09_1535,60.0164794754,famFaceFilter,001,17,
17,./img/gray_JasonSegel(Marshall)6_1.png,0,49,49,16,,,1.ja,1.539,None,act,0.889,None,None,None,None,None,Sportlehrer Bad teacher,"['lshift', 's', 'o', 'backspace', 'p', 'o', 'r', 't', 'k', 'backspace', 'l', 'e', 'h', 'r', 'e', 'r', 'space', 'lshift', 'b', 'a', 'd', 'space', 't', 'e', 'a', 'c', 'h', 'e', 'r', 'return']","[0.9834092498367681, 2.099654526440645, 2.4494133044208866, 2.8323859808933776, 3.065632919106065, 3.1824049065580766, 3.332391113277481, 3.5155366869184945, 4.465313107464681, 4.76491759316923, 5.098273273753875, 5.248169022215734, 6.097912403045484, 6.397649368394923, 6.614295933226458, 7.2806393666633085, 7.4971961147857655, 7.713704426038021, 7.9635790034189995, 8.796543981317882, 8.996676140190175, 9.079963175148805, 9.279868546829675, 9.413221019676712, 9.596211659491019, 9.962531676428625, 10.146170921198063, 10.312877791535357, 10.395769312195625, 10.59603427148977]",2017_Feb_09_1535,60.0164794754,famFaceFilter,001,17,
11,./img/gray_EmilyDeschanel6_12.png,0,50,50,10,,,1.ja,3.315,None,act,0.723,None,None,None,None,None,,['return'],[0.7501661609130679],2017_Feb_09_1535,60.0164794754,famFaceFilter,001,17,
26,./img/gray_BarackObama1_3.png,0,51,51,25,,,1.ja,1.289,None,None,None,None,None,polit,0.905,None,Barak Obama,"['lshift', 'b', 'a', 'r', 'a', 'k', 'space', 'lshift', 'o', 'b', 'a', 'm', 'a', 'return']","[0.43357637307235564, 0.7167642888762202, 0.9666167328523443, 1.1498556517162797, 1.299935203660425, 1.516423626926553, 1.6497061710488197, 1.7163424711143307, 1.8327102833718527, 2.132859764038585, 2.2324042650107003, 2.415910709360105, 2.566045113650034, 2.732535782335617]",2017_Feb_09_1535,60.0164794754,famFaceFilter,001,17,
29,./img/gray_UrsulavonderLeyen4_1.png,0,52,52,28,,,2.nein,1.523,None,None,None,host,1.49,None,None,None,,['return'],[0.6335821470038354],2017_Feb_09_1535,60.0164794754,famFaceFilter,001,17,
20,./img/gray_WillSmith1_1.png,0,53,53,19,,,1.ja,1.206,None,act,0.856,None,None,None,None,None,Eddie Murphy,"['lshift', 'e', 'd', 'd', 'i', 'e', 'space', 'lshift', 'n', 'backspace', 'lshift', 'm', 'u', 'r', 'p', 'h', 'y', 'return']","[0.9666869823504385, 1.1832915257928107, 1.483268109293931, 1.6831667447204381, 1.8329476561048068, 2.2162747878082882, 2.4327782874515833, 2.7326817344892333, 3.032540914718993, 3.4157522470213735, 3.5656220127912093, 3.6822685776241997, 3.982236821000697, 4.198830778903357, 4.731888460477421, 5.031920537872793, 5.481446113180937, 5.8813925439299055]",2017_Feb_09_1535,60.0164794754,famFaceFilter,001,17,
71,./img/gray_BritneySpears7_1.png,0,54,54,70,,,1.ja,2.333,None,dummy,0.773,None,None,None,None,None,,['return'],[0.8167184181984339],2017_Feb_09_1535,60.0164794754,famFaceFilter,001,17,
14,./img/gray_JoshRadnor(Ted)6_2.png,0,55,55,13,,,2.nein,2.089,None,None,None,music,1.322,None,None,None,,['return'],[0.6002441089858621],2017_Feb_09_1535,60.0164794754,famFaceFilter,001,17,
21,./img/gray_HughLaurie(DrHouse)4_1.png,0,56,56,20,,,1.ja,1.088,None,act,0.939,None,None,None,None,None,Hew Loury,"['lshift', 'h', 'e', 'w', 'space', 'lshift', 'l', 'o', 'u', 'r', 'y', 'return']","[1.1165410301982774, 1.2831641785305692, 1.466523066856098, 1.6163075067524915, 1.7831263272037177, 2.182809723301034, 2.366053133000605, 2.58247708070121, 2.8324026611408044, 3.066609996600164, 3.382342997183514, 3.782276596974043]",2017_Feb_09_1535,60.0164794754,famFaceFilter,001,17,
24,./img/gray_JoachimLoew1_1.png,0,57,57,23,,,1.ja,5.787,None,None,None,music,1.065,None,None,None,,['return'],[0.9500112270889076],2017_Feb_09_1535,60.0164794754,famFaceFilter,001,17,
30,./img/gray_BarackObama4_1.png,0,58,58,29,,,1.ja,1.14,None,None,None,None,None,polit,1.056,None,Barak Obama,"['lshift', 'b', 'a', 'r', 'a', 'k', 'space', 'lshift', 'o', 'b', 'a', 'm', 'a', 'return']","[0.9000214918560232, 1.1332722793558787, 1.5165089528018143, 1.7996622250157088, 1.9163059028815042, 2.2161496859625913, 2.482719906591228, 2.6659886574325355, 2.8492737677461264, 3.348979297248661, 3.7156723743046314, 4.182148608160787, 4.415296106444657, 4.948259480474007]",2017_Feb_09_1535,60.0164794754,famFaceFilter,001,17,
46,./img/gray_GuentherJauch3_1.png,0,59,59,45,,,2.nein,1.814,None,None,None,host,2.772,None,None,None,,['return'],[0.8336289800045051],2017_Feb_09_1535,60.0164794754,famFaceFilter,001,17,
63,./img/gray_JoshRadnor(Ted)3_1.png,0,60,60,62,,,2.nein,1.506,None,dummy,0.89,None,None,None,None,None,,['return'],[0.9332841479917988],2017_Feb_09_1535,60.0164794754,famFaceFilter,001,17,
5,./img/gray_OmarEpps(DrEricForeman)2_2.png,0,61,61,4,,,1.ja,1.473,None,act,0.473,None,None,None,None,None,,['return'],[0.6001918228303111],2017_Feb_09_1535,60.0164794754,famFaceFilter,001,17,
7,./img/gray_OmarEpps(DrEricForeman)1_5.png,0,62,62,6,,,1.ja,1.189,None,dummy,1.439,None,None,None,None,None,,['return'],[0.8168297267638991],2017_Feb_09_1535,60.0164794754,famFaceFilter,001,17,
4,./img/gray_AngelaMerkel1_1.png,0,63,63,3,,,1.ja,1.156,None,None,None,None,None,polit,0.807,None,Angela Merkel,"['lshift', 'a', 'n', 'g', 'e', 'l', 'a', 'space', 'lshift', 'm', 'e', 'r', 'k', 'e', 'l', 'return']","[0.8501796334185201, 0.9832758078682673, 1.2166629243038187, 1.432946052234911, 1.6829194279944204, 1.8496083349909895, 1.9163569059419387, 2.116269655423821, 2.1826868668722454, 2.299565030505619, 2.6826448454830825, 2.8327490970204963, 3.3656675626953074, 3.482404906557349, 3.615839176765803, 4.148814098656658]",2017_Feb_09_1535,60.0164794754,famFaceFilter,001,17,
18,./img/gray_JasonSegel(Marshall)7_1.png,0,64,64,17,,,1.ja,2.099,None,act,1.506,None,None,None,None,None,Sportlehrer Bad teacher,"['lshift', 's', 'p', 'o', 'r', 't', 'l', 'e', 'h', 'r', 'e', 'h', 'space', 'lshift', 'backspace', 'backspace', 'r', 'space', 'backspace', 'backspace', 'backspace', 'e', 'r', 'space', 'lshift', 'b', 'a', 'a', 'backspace', 'd', 'space', 't', 'e', 'a', 'c', 'h', 'e', 'r', 'return']","[1.416293713471532, 1.5498431415326195, 1.9993520365933364, 2.116160271503759, 2.266271259293717, 2.4660050169040915, 3.265768927267345, 3.3823041835348704, 3.6654260199011333, 3.7989315019276546, 3.9486716750179767, 4.082100812840508, 4.232002656008262, 4.665130587080057, 5.048392601669548, 5.214843815158019, 5.348100697363407, 5.614532022864296, 6.164469792716773, 6.631066316809665, 6.814175642992268, 7.863851982061533, 7.997145753273799, 8.1137159739028, 8.59675505058658, 8.763298005427714, 8.913427277335359, 9.4132633618392, 9.74622256580733, 9.996195941568658, 10.12959941747431, 10.496019515887383, 10.695980381464324, 10.82932002335292, 11.145802993461984, 11.362453728355831, 11.49561758611162, 11.595661532144732, 11.778835013119533]",2017_Feb_09_1535,60.0164794754,famFaceFilter,001,17,
48,./img/gray_LeonardoDiCaprio2_1.png,0,65,65,47,,,1.ja,2.45,None,act,1.239,None,None,None,None,None,Leonardo di Kaprio,"['lshift', 'l', 'e', 'o', 'n', 'a', 'r', 'd', 'o', 'space', 'd', 'i', 'space', 'lshift', 'k', 'a', 'p', 'r', 'i', 'o', 'return']","[1.0331927274128248, 1.4164685352825472, 1.5997523625010217, 1.716301732822103, 2.032822875033162, 2.116159629955291, 2.2994591750975815, 2.5659530515240476, 2.899153477510481, 3.0490687931851426, 3.2489786557016487, 3.3156361268484034, 3.4322403495152685, 3.6487550762485625, 4.2152204037902266, 4.698329088425453, 4.831755660057752, 5.281491663085035, 5.964562496392318, 6.147692993656165, 6.397685936628477]",2017_Feb_09_1535,60.0164794754,famFaceFilter,001,17,
72,./img/gray_WillSmith4_1.png,0,66,66,71,,,1.ja,4.981,None,act,1.183,None,None,None,None,None,,['return'],[0.9000349643611116],2017_Feb_09_1535,60.0164794754,famFaceFilter,001,17,
51,./img/gray_AlysonHannigan(Lily)1_1.png,0,67,67,50,,,1.ja,1.772,None,act,0.539,None,None,None,None,None,American Pie,"['lshift', 'a', 'm', 'e', 'r', 'i', 'c', 'a', 'n', 'space', 'lshift', 'p', 'i', 'e', 'return']","[1.8828854259554646, 2.0161878580638586, 2.36605024603341, 2.6159777511184075, 2.832691678482661, 3.08233241164271, 3.2157156787889107, 3.3657281889736623, 3.6988875558945438, 3.8654613050366606, 4.015753209343529, 4.115006126783555, 4.298389714704172, 4.498451944851695, 4.748358599628773]",2017_Feb_09_1535,60.0164794754,famFaceFilter,001,17,
69,./img/gray_OmarEpps(DrEricForeman)3_1.png,0,68,68,68,,,1.ja,1.765,None,act,0.556,None,None,None,None,None,,['return'],[0.6501979175354791],2017_Feb_09_1535,60.0164794754,famFaceFilter,001,17,
56,./img/gray_GuentherJauch2_1.png,0,69,69,55,,,2.nein,2.306,None,None,None,host,2.006,None,None,None,,['return'],[0.6834493465830747],2017_Feb_09_1535,60.0164794754,famFaceFilter,001,17,
57,./img/gray_UrsulavonderLeyen5_1.png,0,70,70,56,,,2.nein,2.256,None,None,None,host,1.539,None,None,None,,['return'],[0.7168377461130149],2017_Feb_09_1535,60.0164794754,famFaceFilter,001,17,
53,./img/gray_Ice-T(OdafinFinTutuola)5_1.png,0,71,71,52,,,1.ja,1.24,None,act,0.774,None,None,None,None,None,,"['pound', 'return']","[0.9333563221352961, 1.4995682382450468]",2017_Feb_09_1535,60.0164794754,famFaceFilter,001,17,
