num,pic,trials.thisRepN,trials.thisTrialN,trials.thisN,trials.thisIndex,key_resp_2.keys,key_resp_2.rt,ratingBekannt.response,ratingBekannt.rt,key_resp_5.keys,key_resp_5.rt,ratingK1.response,ratingK1.rt,ratingK2.response,ratingK2.rt,ratingK3.response,ratingK3.rt,key_resp_6.keys,key_resp_6.rt,inputText,key_resp_4.keys,key_resp_4.rt,date,frameRate,expName,session,participant,
,,,,,,space,9.29446922299,,,,,,,,,,,,,,,,2017_Feb_16_1655,60.0646620655,famFaceFilter,001,18,
13,./img/smoo15_GeorgeClooney3_1.png,0,0,0,12,,,None,None,2,6.86423619487,None,None,None,None,None,None,3,2.83247470963,,['return'],[0.6167337954284449],2017_Feb_16_1655,60.0646620655,famFaceFilter,001,18,
24,./img/smoo15_BastianSchweinsteiger1_1.png,0,1,1,23,,,None,None,1,1.36628406052,None,None,None,None,None,None,5,1.5494663488,Sebastian Schweinsteiger,"['lshift', 's', 'e', 'b', 'a', 's', 't', 'i', 'a', 'n', 'space', 'lshift', 's', 'c', 'h', 'w', 'e', 'i', 'n', 's', 't', 'e', 'i', 'g', 'e', 'r', 'return']","[0.4169183727935888, 0.5502679804158106, 0.7501360111273243, 0.8833714207248704, 0.9500928981651668, 1.0167001775844255, 1.249940655521641, 1.3832200121141796, 1.7831770916200185, 2.5828298141532287, 2.732841426422965, 2.832763412494387, 2.916024035475857, 3.0158937342494028, 3.1824579648637155, 3.2492076710295805, 3.2823164363035175, 3.399145182895154, 3.565770361892646, 3.6824281322333263, 3.8989931327196246, 4.015580972813041, 4.1154285377015185, 4.215390300611034, 4.365332624194707, 4.432000210432307, 5.265108141677047]",2017_Feb_16_1655,60.0646620655,famFaceFilter,001,18,
43,./img/smoo15_JoachimLoew1_1.png,0,2,2,42,,,None,None,1,1.26656063787,None,None,None,None,None,None,5,1.083206411,Jogi Löw,"['lshift', 'j', 'o', 'g', 'i', 'space', 'lshift', 'l', u'\xf6', 'w', 'return']","[0.36690188465217943, 0.5168557563483773, 0.6998818242936977, 1.033216868458112, 1.149757874529314, 1.3164266797357413, 1.4830435184267117, 1.5998238270949514, 1.7663142780875205, 1.9330158029515587, 2.3491697547178774]",2017_Feb_16_1655,60.0646620655,famFaceFilter,001,18,
39,./img/smoo15_BarackObama2_1.png,0,3,3,38,,,None,None,1,13.6783641582,None,None,None,None,None,None,4,1.1666014412,Barack Obama,"['lshift', 'b', 'a', 'r', 'a', 'c', 'k', 'space', 'lshift', 'o', 'b', 'a', 'm', 'a', 'return']","[0.1336181012848101, 0.36700357221707236, 0.6168370868981583, 0.8001865020487458, 0.9500746136509406, 1.116676696416107, 1.233072388713481, 1.3665034746991296, 1.4499052413048048, 1.5498403793935722, 1.7997062929498497, 1.9164131427787652, 2.016734501146857, 2.11619777044325, 2.4161908415735525]",2017_Feb_16_1655,60.0646620655,famFaceFilter,001,18,
16,./img/smoo15_WillSmith4_1.png,0,4,4,15,,,None,None,1,1.01673418037,None,None,None,None,None,None,1,0.400152114333,Will Smith,"['lshift', 'w', 'i', 'l', 'l', 'space', 'lshift', 's', 'm', 'i', 't', 'h', 'return']","[0.3668874495087948, 0.5335244974012312, 0.7501029706909321, 0.9166890144078934, 1.0499128758929146, 1.1832560678922164, 1.2662793129638885, 1.3664935304914252, 1.516479159505252, 1.6660920410395192, 1.7995895286840096, 1.8996587532164995, 2.1495525747159263]",2017_Feb_16_1655,60.0646620655,famFaceFilter,001,18,
64,./img/smoo15_JoachimLoew8_1.png,0,5,5,63,,,None,None,1,0.733625735873,None,None,None,None,None,None,5,1.64959780483,Jogi Löw,"['lshift', 'j', 'o', 'g', 'i', 'space', 'lshift', 'l', u'\xf6', 'w', 'return']","[0.13355683211921132, 0.35039353408137686, 0.516922158007219, 0.6668102696094138, 0.7834009967300517, 0.916599516516726, 1.0498926666878106, 1.1833141292445362, 1.366510211097193, 1.5164050591010891, 1.782958319003228]",2017_Feb_16_1655,60.0646620655,famFaceFilter,001,18,
42,./img/smoo15_OmarEpps(DrEricForeman)1_5.png,0,6,6,41,,,None,None,1,6.49812439372,None,None,None,None,None,None,1,0.833428070644,spielt bei New Girl mit,"['s', 'p', 'i', 'e', 'l', 't', 'space', 'b', 'e', 'i', 'space', 'lshift', 'n', 'e', 'space', 'backspace', 'w', 'space', 'lshift', 'g', 'i', 'r', 'l', 'space', 'm', 'i', 't', 'return']","[2.449483414340648, 2.566197321350046, 2.7827097137596866, 2.8825412395999592, 3.01594377607762, 3.0992736877487914, 3.2491861787020753, 3.4324547570540744, 3.549094884441729, 3.632386302397208, 3.765599257327267, 3.915497313137166, 4.298739138357632, 4.482066740401933, 4.648610120253579, 5.031818263472815, 5.131900960801431, 5.315029357872845, 5.481590380677517, 5.881427808886656, 6.031382322144054, 6.131313931644399, 6.231299753126223, 6.347703464947699, 6.447968686647073, 6.597846854037925, 6.731071357084147, 7.014255185102229]",2017_Feb_16_1655,60.0646620655,famFaceFilter,001,18,
30,./img/smoo15_KatjaBurkard4_1.png,0,7,7,29,,,None,None,1,1.28326081545,None,None,None,None,None,None,3,0.916696071588,Frauke Ludowig,"['lshift', 'f', 'r', 'a', 'u', 'k', 'e', 'space', 'lshift', 'l', 'u', 'd', 'backspace', 'd', 'o', 'w', 'i', 'g', 'return']","[2.532676352540875, 2.8491848314224626, 3.0325031308238977, 3.1658482475104393, 3.265757402343297, 3.4487959807447623, 3.5322846789895266, 3.632285577175935, 3.7987561397494574, 3.865435274099582, 4.09865522205655, 4.231768414108956, 4.715254610262491, 5.315035773492127, 5.448264767474029, 5.748050934886123, 5.864521048362803, 6.19807871451485, 6.53115873781644]",2017_Feb_16_1655,60.0646620655,famFaceFilter,001,18,
11,./img/smoo15_LeonardoDiCaprio3_1.png,0,8,8,10,,,None,None,1,0.949995701536,None,None,None,None,None,None,1,0.36683355831,Leonardo DiCaprio,"['lshift', 'l', 'e', 'o', 'n', 'a', 'r', 'd', 'o', 'space', 'lshift', 'd', 'i', 'space', 'space', 'lshift', 'backspace', 'lshift', 'c', 'a', 'backspace', 'backspace', 'backspace', 'lshift', 'c', 'a', 'p', 'r', 'i', 'o', 'return']","[0.31669549418074894, 1.2997887336605345, 1.4663619461389317, 1.566479287816037, 1.7663935109849263, 1.8995156849050545, 2.0494592916111287, 2.232721775126265, 2.316203736969328, 2.449344836964883, 2.6325550331821432, 2.6992659248498967, 2.8158162335676025, 2.932461493452138, 3.082416648274375, 3.232373086219013, 3.9154116646204784, 4.165317675800907, 4.198604474509921, 4.36543334941598, 4.69853871441228, 4.8651083983022545, 5.031693479679234, 5.3648783983517205, 5.44826091809955, 5.631452188237745, 6.147946745226363, 6.381300138062215, 6.531125376597629, 6.697892340776889, 6.91428379876379]",2017_Feb_16_1655,60.0646620655,famFaceFilter,001,18,
18,./img/smoo15_HughLaurie(DrHouse)4_1.png,0,9,9,17,,,None,None,2,3.24909475613,None,None,None,None,None,None,1,2.51577600764,,['return'],[0.3169248525664443],2017_Feb_16_1655,60.0646620655,famFaceFilter,001,18,
70,./img/smoo15_JasonSegel(Marshall)7_1.png,0,10,10,69,,,None,None,1,1.84968140035,None,None,None,None,None,None,1,0.733358525333,Marshall How I met your mother,"['lshift', 'm', 'a', 'r', 's', 'h', 'a', 'l', 'l', 'space', 'lshift', 'h', 'o', 'w', 'space', 'lshift', 'i', 'space', 'm', 'e', 't', 'space', 'y', 'o', 'u', 'r', 'space', 'lshift', 'm', 'backspace', 'm', 'o', 't', 'h', 'e', 'r', 'return']","[0.333581724724354, 0.6498685439619294, 0.8004116902848182, 1.0496434198867064, 1.2497648675562232, 1.383102927062282, 1.4839314401287993, 1.6163222334580496, 1.8995673306417302, 2.0661087858061364, 2.332660762585874, 2.782682768160157, 3.015923566879792, 3.115837212644692, 3.232450073650398, 3.415692989525269, 3.565674769168254, 3.7322386790001474, 3.9488373614876764, 4.065517907278263, 4.265113915735128, 4.664793519710656, 5.015077988267876, 5.1649994610888825, 5.581657038961566, 5.71470671638599, 5.814751561563753, 6.0814706652236055, 6.264652632715297, 6.631077516078221, 6.864365148816432, 7.030927454743505, 7.180913404539751, 7.297469487315539, 7.397458516607003, 7.463802755639335, 7.597411554274004]",2017_Feb_16_1655,60.0646620655,famFaceFilter,001,18,
46,./img/smoo15_NeilPatrickHarris(Barney)1_1.png,0,11,11,45,,,None,None,1,0.783315668996,None,None,None,None,None,None,1,0.566842411863,Barney How I met your mother,"['lshift', 'b', 'a', 'r', 'n', 'e', 'y', 'space', 'lshift', 'h', 'o', 'w', 'space', 'lshift', 'i', 'space', 'm', 'e', 't', 'space', 'y', 'o', 'u', 'r', 'space', 'm', 'o', 't', 'h', 'e', 'r', 'return']","[0.20031648249278078, 0.5334067707881331, 0.6335391891661857, 0.80010726915134, 0.8834124806890031, 0.9999451464536833, 1.3164712682882964, 1.399922114382207, 1.6164893603345263, 1.6664599768009793, 1.8334633565464173, 1.9495988954840868, 2.0661046156528755, 2.182826221403957, 2.332589549212571, 2.45003996930609, 2.6325001796358265, 2.7660121024237014, 2.949218449266482, 3.132339789157413, 3.532275376339385, 3.6489440532313893, 3.915547034186602, 4.065151896200405, 4.1319468324800255, 4.298606335036311, 4.431776305322273, 4.631843220227893, 4.848260661474342, 4.931631633106008, 4.981548999930965, 5.214955642408313]",2017_Feb_16_1655,60.0646620655,famFaceFilter,001,18,
48,./img/smoo15_JoshRadnor(Ted)6_2.png,0,12,12,47,,,None,None,1,5.86505162007,None,None,None,None,None,None,1,0.500206903718,Ted Mosby How I met your mother,"['lshift', 't', 'e', 'd', 'space', 'lshift', 'm', 'o', 's', 'y', 'b', 'backspace', 'backspace', 'b', 'y', 'space', 'lshift', 'h', 'o', 'w', 'space', 'lshift', 'i', 'space', 'm', 'e', 't', 'space', 'y', 'o', 'u', 'r', 'space', 'm', 'o', 't', 'h', 'e', 'r', 'return']","[0.4669454467075411, 0.7008675841861987, 0.9166774662917305, 1.1499872329186474, 1.7498142678232398, 1.9495777239426388, 2.0329057109265705, 2.1828149940738513, 2.399394429703534, 2.61592638975344, 3.049186307016498, 3.932133334532409, 4.082138210400444, 4.648593760426593, 4.831743008257035, 4.898463202574931, 5.181691939931625, 5.398106814929633, 5.515176147240709, 5.681291284508916, 5.798068706149934, 5.91474315710002, 6.081071613709355, 6.181209806145489, 6.364518161335582, 6.4809042302040325, 6.647752031185519, 6.7310335049296555, 7.047583685336576, 7.180923990308656, 7.414103199083911, 7.647380246053217, 7.747326611475728, 7.813923946683644, 7.963892253526865, 8.08056606291575, 8.16385683930639, 8.247185788633942, 8.313719929992658, 8.43048131258547]",2017_Feb_16_1655,60.0646620655,famFaceFilter,001,18,
22,./img/smoo15_WillSmith1_1.png,0,13,13,21,,,None,None,1,0.833190051169,None,None,None,None,None,None,1,0.534780354861,Will Smith,"['lshift', 'w', 'i', 'l', 'l', 'space', 'lshift', 's', 'm', 'i', 't', 'h', 'return']","[0.35022095392560004, 0.6500135369569762, 0.8499925578798866, 1.016584054876148, 1.1831838921752933, 1.266560637865041, 1.3997957266838057, 1.4996728034202533, 1.5830912506353343, 1.7664323254830379, 1.849663436616538, 1.93351108875504, 2.1494755872845417]",2017_Feb_16_1655,60.0646620655,famFaceFilter,001,18,
72,./img/smoo15_HughLaurie(DrHouse)2_1.png,0,14,14,71,,,None,None,1,6.39789285403,None,None,None,None,None,None,1,1.5669075304,Dr House,"['lshift', 'd', 'r', 'space', 'lshift', 'backspace', 'period', 'space', 'lshift', 'h', 'o', 'u', 's', 'e', 'return']","[0.5501438381797925, 0.8501378716537147, 1.0666444900089118, 1.233263253383484, 1.4665249028657854, 1.8496672859873797, 2.0663493715255754, 2.249639442197804, 2.3994669261992385, 2.4495135677498183, 2.5825930778009933, 3.015980986670911, 3.1825266119885782, 3.349048499512719, 3.898918390754261]",2017_Feb_16_1655,60.0646620655,famFaceFilter,001,18,
38,./img/smoo15_AlysonHannigan(Lily)5_4.png,0,15,15,37,,,None,None,1,1.63315842217,None,None,None,None,None,None,1,0.733303351004,Lilly How I met your mother,"['lshift', 'l', 'i', 'l', 'l', 'y', 'space', 'lshift', 'h', 'o', 'w', 'space', 'lshift', 'i', 'space', 'm', 'e', 't', 'space', 'y', 'o', 'u', 'r', 'space', 'm', 'o', 't', 'h', 'e', 'r', 'return']","[0.33352558805563604, 0.6668304788108799, 0.9168028916501498, 1.1000028228736483, 1.233328051141143, 1.39987560114605, 1.5165497313137166, 1.7497959833090135, 2.1163462920303573, 2.2496865970024373, 2.3995041367925296, 2.5001170850518974, 2.5993564492382575, 2.7493318132619606, 2.832694444587105, 3.2158435641104006, 3.365657896087214, 3.565679901661497, 3.7989989709349175, 4.1485308873598115, 4.248729386617924, 4.481965694401879, 4.665189042636484, 4.748543975219945, 4.865319151394942, 4.998525049144519, 5.115197575411003, 5.231696238395671, 5.315028395532863, 5.3650426382082514, 5.515009341143013]",2017_Feb_16_1655,60.0646620655,famFaceFilter,001,18,
60,./img/smoo15_LeonardoDiCaprio2_1.png,0,16,16,59,,,None,None,1,0.633514489033,None,None,None,None,None,None,1,0.350198820041,Leonardo DiCaprio,"['lshift', 'l', 'e', 'o', 'n', 'a', 'r', 'd', 'i', 'backspace', 'o', 'space', 'lshift', 'd', 'i', 'space', 'lshift', 'backspace', 'lshift', 'c', 'a', 'p', 'r', 'i', 'o', 'return']","[0.16696424447218305, 0.45021543649272644, 0.583532966018538, 0.6836470998823643, 0.8167683114588726, 0.9167287912459869, 1.0833058530988637, 1.2498194003201206, 1.3333433844709361, 1.6831611167290248, 1.8663026658177841, 2.01622061004673, 2.1661699908145238, 2.2661465096462052, 2.382842132141377, 2.5661893018259434, 2.6992816431156825, 3.049191439509741, 3.2490719806810375, 3.3157896087504923, 3.4657967300881865, 3.5657196784995904, 3.715661681304482, 3.8655683981996845, 3.9985484661556256, 4.24877461673168]",2017_Feb_16_1655,60.0646620655,famFaceFilter,001,18,
25,./img/smoo15_JasonSegel(Marshall)6_1.png,0,17,17,24,,,None,None,1,1.08341427706,None,None,None,None,None,None,1,0.750215244025,Marshall How I met your mother,"['lshift', 'm', 'a', 'r', 's', 'h', 'a', 'l', 'l', 'space', 'lshift', 'h', 'o', 'w', 'space', 'lshift', 'i', 'space', 'm', 'e', 't', 'space', 'y', 'o', 'u', 'r', 'space', 'm', 'o', 't', 'h', 'e', 'r', 'return']","[0.1503105801239144, 0.31697842299035983, 0.4501862454235379, 0.6334689381365024, 0.866757212439552, 1.2165419042576104, 1.399823634626955, 1.5164073045671103, 1.6831069047439087, 1.8327784891989722, 2.149345670997718, 2.399404053132457, 2.5659233744081575, 2.7326682047023496, 2.915856587813323, 3.23242601507809, 3.3490594060676813, 3.46577202995104, 3.7988770741685585, 3.882095995628333, 4.065604197352513, 4.232094969127502, 4.765150163981161, 5.514881349536154, 6.23110888845622, 6.431193767097284, 6.54774952909429, 6.647681459373416, 6.831005212046875, 6.997563668603107, 7.082200762688444, 7.197630904294783, 7.264127193499007, 7.480790994522977]",2017_Feb_16_1655,60.0646620655,famFaceFilter,001,18,
15,./img/smoo15_LisaEdelstein(DrLisaCuddy)1_1.png,0,18,18,14,,,None,None,2,1.78294677089,None,None,None,None,None,None,3,0.750016680609,,['return'],[0.3837788125492807],2017_Feb_16_1655,60.0646620655,famFaceFilter,001,18,
21,./img/smoo15_NeilPatrickHarris(Barney)3_7.png,0,19,19,20,,,None,None,1,0.866793139907,None,None,None,None,None,None,1,0.450039327745,Barney How I met your mother,"['lshift', 'b', 'a', 'r', 'n', 'e', 'y', 'space', 'lshift', 'h', 'o', 'w', 'space', 'lshift', 'i', 'space', 'm', 'e', 't', 'space', 'y', 'o', 'u', 'r', 'space', 'm', 'o', 't', 'h', 'e', 'r', 'return']","[0.2335372003253724, 0.5502772830623144, 0.7001923402640386, 0.8167497061658651, 0.9333933621455799, 1.0501098353997804, 1.4166226127490518, 1.5495670740165224, 1.783043967519916, 1.949446524529776, 2.099663436616538, 2.2995725272921845, 2.4002300641041074, 2.5661415054637473, 2.7661689643136924, 2.8828350749608944, 3.0492690685023263, 3.1492625887294707, 3.332489786334918, 4.182173432149284, 4.3154431653128995, 4.415415193212539, 4.765320819453336, 4.915179098425142, 4.9984984243237705, 5.115203670247865, 5.2484487032743345, 5.365011522451823, 5.448245520616183, 5.564989260252332, 5.598744078382879, 5.764817193346971]",2017_Feb_16_1655,60.0646620655,famFaceFilter,001,18,
2,./img/smoo15_WillSmith5_1.png,0,20,20,1,,,None,None,1,0.66681411898,None,None,None,None,None,None,1,0.517004598714,Will Smith,"['lshift', 'w', 'i', 'l', 'l', 'space', 'lshift', 's', 'm', 'i', 't', 'backspace', 't', 'h', 'return']","[0.1502855592116248, 0.4500919358251849, 0.6501158660830697, 0.8500085969317297, 0.999957656913466, 1.1167674774296756, 1.2331333370966604, 1.3331409716847702, 1.4331399451839388, 1.6163209503320104, 1.716345265529526, 2.53272190343705, 3.3489965330009, 3.4157244260604784, 3.8321657975648122]",2017_Feb_16_1655,60.0646620655,famFaceFilter,001,18,
50,./img/smoo15_OmarEpps(DrEricForeman)2_2.png,0,21,21,49,,,None,None,2,3.34896317178,None,None,None,None,None,None,1,1.7496647839,,['return'],[0.25030025098021724],2017_Feb_16_1655,60.0646620655,famFaceFilter,001,18,
33,./img/smoo15_Ice-T(OdafinFinTutuola)7_1.png,0,22,22,32,,,None,None,2,1.55002643235,None,None,None,None,None,None,1,1.5162517258,,['return'],[0.11696989021584159],2017_Feb_16_1655,60.0646620655,famFaceFilter,001,18,
69,./img/smoo15_BritneySpears5_1.png,0,23,23,68,,,None,None,1,0.933389191992,None,None,None,None,None,None,2,0.783400675948,Britney Spears,"['lshift', 'b', 'r', 'i', 't', 'n', 'e', 'space', 'lshift', 's', 'p', 'e', 'backspace', 'backspace', 'backspace', 'backspace', 'y', 'space', 'lshift', 's', 'p', 'e', 'a', 'r', 's', 'return']","[0.4668707047421776, 0.6668763504858362, 0.833354932583461, 0.9498975425594836, 1.049939821488806, 1.166502961448714, 1.6498739972375915, 2.2329010916801053, 2.5159254915633937, 2.6160043395248067, 2.7325216078024823, 2.8159002781794698, 3.182450907679595, 3.349036951400194, 3.5156092015349714, 3.7156629644268833, 4.265138936647418, 4.365353474953736, 4.598601330853853, 4.631831992894149, 4.815141631206643, 5.481394062728214, 5.664767215672327, 5.848058248688176, 6.431136668084946, 6.581133203650097]",2017_Feb_16_1655,60.0646620655,famFaceFilter,001,18,
63,./img/smoo15_RobertSeanLeonard(Wilson)8_1.png,0,24,24,62,,,None,None,2,1.74954866119,None,None,None,None,None,None,2,1.54974863604,,['return'],[0.5170677925671043],2017_Feb_16_1655,60.0646620655,famFaceFilter,001,18,
27,./img/smoo15_JasonSegel(Marshall)9_1.png,0,25,25,26,,,None,None,1,0.783555613154,None,None,None,None,None,None,1,0.516431042357,Marshall How I met your mother,"['lshift', 'm', 'a', 'r', 's', 'h', 'a', 'l', 'l', 'space', 'lshift', 'h', 'o', 'w', 'space', 'lshift', 'i', 'space', 'm', 'e', 't', 'space', 'y', 'o', 'u', 'r', 'space', 'm', 'o', 't', 'h', 'e', 'r', 'return']","[0.25016295672685374, 0.5501823318954848, 0.6667525290358753, 0.8333587819543027, 1.0499173668249568, 1.2161816672378336, 1.316424113487301, 1.4164189168368466, 1.699645729506301, 1.9495151716546388, 2.082670065232378, 2.3326248351186223, 2.4327518002210127, 2.565927223778999, 2.682583710997278, 2.7827943999327545, 2.949142424178717, 3.0657665125181666, 3.232126726441493, 3.33230662040296, 3.5489409095789597, 4.032161178318347, 4.331931627461017, 4.465172490337864, 4.748430418760108, 4.965073369021411, 5.08157523981572, 5.148191821881483, 5.298039835863165, 5.414738345385558, 5.514788643838983, 5.647903760578629, 5.682476890939142, 5.881996874308243]",2017_Feb_16_1655,60.0646620655,famFaceFilter,001,18,
35,./img/smoo15_KatjaBurkard1_1.png,0,26,26,34,,,None,None,1,1.56647543845,None,None,None,None,None,None,3,0.850079810301, Frauke Ludowig,"['space', 'lshift', 'f', 'r', 'a', 'u', 'k', 'e', 'space', 'lshift', 'l', 'u', 'd', 'o', 'w', 'i', 'g', 'return']","[0.10032296227291226, 0.300072304031346, 0.383629649400973, 0.5168458121406729, 0.6335279618360801, 0.7501350487873424, 0.9166771455129492, 0.9833197108382592, 1.0833327986983932, 1.1998009874951094, 1.2665920744002506, 1.4997799442608084, 1.666133101003652, 1.832976411053096, 2.066432774576242, 2.216257371546817, 2.4658223925653147, 2.599386602647428]",2017_Feb_16_1655,60.0646620655,famFaceFilter,001,18,
67,./img/smoo15_GeorgeClooney4_2.png,0,27,27,66,,,None,None,1,1.01635020555,None,None,None,None,None,None,1,0.416882445326,George Clooney,"['lshift', 'g', 'e', 'o', 'r', 'g', 'e', 'space', 'lshift', 'c', 'l', 'o', 'o', 'n', 'e', 'y', 'return']","[0.3499466862049303, 0.5666967773067881, 0.7333331836343859, 0.8666481469117571, 1.0333714848820819, 1.3329969410333433, 1.78281396757302, 1.9994245189554931, 2.2334640622648294, 2.3992221703265386, 2.5660587439742812, 2.732631635673897, 2.849105598525057, 3.0325868546533457, 3.1490694785898086, 3.365711145725072, 3.532269281502522]",2017_Feb_16_1655,60.0646620655,famFaceFilter,001,18,
53,./img/smoo15_GuentherJauch4_1.png,0,28,28,52,,,None,None,1,0.750137935815,None,None,None,None,None,None,3,0.833376104129,Günther Jauch,"['lshift', 'g', u'\xfc', 'n', 't', 'h', 'e', 'r', 'space', 'lshift', 'j', 'a', 'u', 'c', 'h', 'return']","[0.38363638579903636, 0.5669774606467399, 0.7498553277873725, 1.0166697033928358, 1.1496395063550153, 1.2664669698242506, 1.3498029763322847, 1.4164593352397787, 1.5163553380516532, 1.6828647151196492, 1.9661293799435953, 2.066359636515699, 2.1828605449663883, 2.2994493474034243, 2.3494113027809362, 2.5160778625213425]",2017_Feb_16_1655,60.0646620655,famFaceFilter,001,18,
47,./img/smoo15_BarackObama4_1.png,0,29,29,46,,,None,None,1,0.633445521129,None,None,None,None,None,None,4,1.08335429102, Barack Obama,"['space', 'lshift', 'b', 'r', 'a', 'backspace', 'backspace', 'a', 'r', 'a', 'c', 'k', 'space', 'lshift', 'o', 'b', 'a', 'm', 'a', 'return']","[0.18364581675996305, 0.5001671268801147, 0.9500053249648772, 1.1332646006667346, 1.2998711743675813, 1.8830945867557602, 2.032907314831391, 2.0996509261603933, 2.2671297032902658, 2.4661021135616465, 2.865645385631069, 2.999270544096362, 3.1325130108743906, 3.2990182177927636, 3.5990276487536903, 4.048784368471388, 4.165437006318825, 4.282033186715125, 4.398647010064451, 4.548572653038718]",2017_Feb_16_1655,60.0646620655,famFaceFilter,001,18,
20,./img/smoo15_NicoleKidman5_1.png,0,30,30,19,,,None,None,1,2.33290038597,None,None,None,None,None,None,1,0.733059236696,Nicole Kidman,"['lshift', 'n', 'i', 'c', 'o', 'l', 'e', 'space', 'lshift', 'k', 'i', 'd', 'm', 'a', 'n', 'return']","[0.250184449054359, 0.6167671566508943, 0.7667627298724256, 1.0331940930118435, 1.1332232199238206, 1.2831280121317832, 1.3331310274734278, 1.4830823329248233, 1.632992578412086, 1.6996768452590914, 1.8829483106383123, 1.9663651539485727, 2.049502917823702, 2.1494717379137, 2.2494354255104554, 2.58271144597893]",2017_Feb_16_1655,60.0646620655,famFaceFilter,001,18,
4,./img/smoo15_UrsulavonderLeyen1_1.png,0,31,31,3,,,None,None,1,3.38215854792,None,None,None,None,None,None,4,0.95002970432, Ursula von der Leyen,"['space', 'lshift', 'u', 'r', 'l', 'backspace', 's', 'u', 'l', 'a', 'space', 'v', 'o', 'n', 'space', 'd', 'e', 'r', 'space', 'lshift', 'l', 'e', 'y', 'e', 'n', 'return']","[0.11700998783635441, 0.2834773426002357, 0.5500982872872555, 0.6666562947502825, 0.883222578358982, 1.1498916401906172, 1.2498078522039577, 1.3830230526036758, 1.5662576281720249, 1.7162660326321202, 2.2994259303923172, 2.5825972479542543, 2.9658637733082287, 3.132517501810071, 3.2990480504231527, 3.398976452110219, 3.5157038319193816, 3.582264277320064, 3.6488150992881856, 3.8321343610296026, 3.948790527465462, 4.048926153656794, 4.8317494238763175, 5.015049117981107, 5.348192014349479, 5.697987933504919]",2017_Feb_16_1655,60.0646620655,famFaceFilter,001,18,
44,./img/smoo15_GuentherJauch2_1.png,0,32,32,43,,,None,None,1,0.850177006934,None,None,None,None,None,None,4,1.94946416748,Günter Jauch,"['lshift', 'g', u'\xfc', 'm', 't', 'backspace', 'backspace', 'n', 't', 'e', 'r', 'lshift', 'space', 'lshift', 'j', 'a', 'u', 'c', 'h', 'return']","[0.15024225378147094, 0.28351904412556905, 0.39992628453546786, 0.6666389725760382, 0.7832277750130743, 1.2497606974029623, 1.3664345067918475, 1.6163292906385323, 1.7663457146227302, 1.9328733762085903, 2.0162530089255597, 2.4492081842763582, 2.666012166580913, 2.848962850999669, 2.965706269857037, 3.065763946273364, 3.199031113188539, 3.2822933400748298, 3.36567810528868, 3.5656625794908905]",2017_Feb_16_1655,60.0646620655,famFaceFilter,001,18,
29,./img/smoo15_GuentherJauch3_1.png,0,33,33,28,,,None,None,1,0.79997254115,None,None,None,None,None,None,3,1.89957567094, Günther Jauch,"['lshift', 'space', 'g', u'\xfc', 'n', 't', 'e', 'r', 'backspace', 'backspace', 'h', 'e', 'r', 'space', 'lshift', 'j', 'a', 'u', 'c', 'h', 'return']","[0.18392714166111546, 0.3502767698118987, 0.6335837777223787, 0.7336045643278339, 0.9666910674059181, 1.083331515575992, 1.216632685271179, 1.316716665725835, 1.6664372013547109, 1.7664210981492943, 1.9996060809826304, 2.082888517070387, 2.1159565431626106, 2.232912639796268, 2.416064453878789, 2.5494009094800276, 2.6994064269129012, 2.8158906547541847, 2.93249998716783, 3.0159793827660906, 3.21580699507831]",2017_Feb_16_1655,60.0646620655,famFaceFilter,001,18,
59,./img/smoo15_JoshRadnor(Ted)1_2.png,0,34,34,58,,,None,None,1,0.86665071316,None,None,None,None,None,None,1,0.433479331441,Ted Mosby How I met your mother,"['lshift', 't', 'e', 'd', 'space', 'lshift', 'm', 'o', 's', 'b', 'y', 'space', 'lshift', 'h', 'o', 'w', 'space', 'lshift', 'i', 'space', 'm', 'e', 't', 'space', 'y', 'o', 'u', 'r', 'space', 'm', 'o', 't', 'h', 'e', 'r', 'return']","[0.3668470311058627, 0.6334503328398569, 0.8000986080660368, 0.98334601487295, 1.1000294476907584, 1.2665593547426397, 1.3666507131601975, 1.4998347978034872, 1.7164822390004701, 2.1329611418768764, 2.2660727300244616, 2.6160508527646016, 3.6323166929287254, 3.8655302252627735, 3.998734519111167, 4.148732658581139, 4.498592413143342, 4.748564505200193, 4.898495601450122, 5.064954615907482, 5.232315345645475, 5.364926515496336, 5.531567733542033, 5.814738730321551, 6.2979019000486005, 6.4478442236322735, 6.681136347306165, 6.980941440793686, 7.130660500828526, 7.180616040586756, 7.347468974065123, 7.497569121878769, 7.564059316249768, 7.68075108937046, 7.74739205079095, 7.863938830920233]",2017_Feb_16_1655,60.0646620655,famFaceFilter,001,18,
71,./img/smoo15_AngelaMerkel1_1.png,0,35,35,70,,,None,None,1,0.966690746627,None,None,None,None,None,None,4,0.883354419333, Angela Merkel,"['space', 'lshift', 'a', 'n', 'g', 'e', 'l', 'a', 'space', 'lshift', 'm', 'e', 'r', 'k', 'e', 'l', 'return']","[0.2003052551590372, 0.4168336866168829, 0.5169237619120395, 0.666654690841824, 0.7668185457587242, 0.9167525290358753, 0.983290840547852, 1.1167145485705987, 1.3166557173426554, 1.4831189019532758, 1.5997686527698534, 1.6831681739095075, 1.7664486853100243, 1.9497435677003523, 2.4993539471433905, 2.5993577323606587, 3.0826270805846434]",2017_Feb_16_1655,60.0646620655,famFaceFilter,001,18,
61,./img/smoo15_OmarEpps(DrEricForeman)3_1.png,0,36,36,60,,,None,None,1,2.86596071332,None,None,None,None,None,None,1,0.216906311431,aus New Girl,"['lshift', 'lshift', 'a', 'u', 's', 'backspace', 'backspace', 'backspace', 'a', 'u', 's', 'space', 'lshift', 'n', 'e', 'w', 'space', 'lshift', 'g', 'i', 'r', 'l', 'return']","[0.45000853277451824, 1.449430485481571, 2.066117767673859, 2.1994234283010883, 2.3326642911779345, 2.8988109291349247, 3.0990799360479286, 3.2989871020399733, 4.165305486123543, 4.315186219762836, 4.498418549865164, 4.598455054740043, 4.715057329973206, 4.832285128082731, 5.048292932042386, 5.2648434973853, 5.4147174946228915, 5.581263761501759, 5.647989088316535, 5.814735201733129, 5.897982672697253, 5.9979271134325245, 6.447760179020406]",2017_Feb_16_1655,60.0646620655,famFaceFilter,001,18,
57,./img/smoo15_UrsulavonderLeyen5_1.png,0,37,37,56,,,None,None,1,2.16612540226,None,None,None,None,None,None,4,0.89993109625,Ursula von der Leyen,"['lshift', 'lshift', 'i', 'r', 's', 'i', 'backspace', 'backspace', 'backspace', 'backspace', 'lshift', 'u', 'r', 's', 'u', 'l', 'a', 'space', 'v', 'o', 'n', 'space', 'd', 'e', 'r', 'space', 'lshift', 'l', 'e', 'y', 'e', 'n', 'return']","[0.2837307595546008, 0.6501524351115222, 0.8001098353997804, 0.9501519218611065, 1.666477619750367, 1.8163512962091772, 2.1495589903352084, 2.2994772553465737, 2.466119756511034, 2.6160582307238656, 2.882667306515941, 3.249157308415306, 3.4158113576959295, 3.6322287989423785, 3.6822991782864847, 3.9154934637663246, 3.9988830406946363, 4.43200790917399, 4.681812553568307, 4.898414443865477, 5.098351121705491, 5.181708941319812, 5.331656076614308, 5.481546754464944, 5.531500690318353, 5.615003823706502, 5.731334076688654, 5.848141972517624, 5.964658920020156, 6.197987933501281, 6.414473701090174, 6.547892597398459, 6.781075013983354]",2017_Feb_16_1655,60.0646620655,famFaceFilter,001,18,
51,./img/smoo15_LeonardoDiCaprio1_1.png,0,38,38,50,,,None,None,1,0.683556318872,None,None,None,None,None,None,1,0.500028870287,Leonardo DiCaprio,"['lshift', 'l', 'e', 'o', 'n', 'a', 'r', 'd', 'o', 'space', 'lshift', 'd', 'i', 'lshift', 'c', 'a', 'p', 'r', 'i', 'o', 'return']","[0.28366050852491753, 0.45021607805392705, 0.6001494197698776, 0.7165820018781233, 0.8667552877523121, 1.0166478902865492, 1.1664160298096249, 1.349811637417588, 1.466361304577731, 1.7663129949651193, 2.066136693745648, 2.1328363580832956, 2.2830795742047485, 2.6827312702407653, 2.7826237444605795, 2.965859923933749, 3.0992130601443932, 3.415751692438789, 3.5157545153124374, 3.665685932341148, 4.664741553195199]",2017_Feb_16_1655,60.0646620655,famFaceFilter,001,18,
6,./img/smoo15_AlysonHannigan(Lily)1_1.png,0,39,39,5,,,None,None,1,0.767064263975,None,None,None,None,None,None,1,0.466454331057,Lilly How I met your mother,"['lshift', 'l', 'i', 'l', 'l', 'y', 'space', 'lshift', 'h', 'o', 'w', 'space', 'lshift', 'i', 'space', 'm', 'e', 't', 'space', 'y', 'p', 'u', 'backspace', 'backspace', 'o', 'u', 'r', 'space', 'm', 'o', 't', 'h', 'e', 'r', 'return']","[0.08354804271948524, 0.2835427819118195, 0.5000660808764223, 0.7332956522623135, 0.8666041999204026, 0.9333333761023823, 1.2164953910178156, 1.432968327368144, 1.6996155760971305, 1.899488739301887, 2.0161830786746577, 2.1827007960491756, 2.382535465541878, 2.582546243782417, 2.7663463561839308, 2.965718780313182, 3.1656968388961104, 3.3655982308264356, 3.6821907543198904, 3.8820847682909516, 4.032486129428435, 4.315307154181937, 4.648433049162122, 4.798408733964607, 5.248230893001164, 5.614465232476505, 5.764633385853813, 5.865190839005663, 6.048001021365053, 6.214502378908946, 6.381119217599917, 6.547668050727225, 6.681005147889664, 6.747563668603107, 6.947498421755881]",2017_Feb_16_1655,60.0646620655,famFaceFilter,001,18,
10,./img/smoo15_KatjaBurkard5_3.png,0,40,40,9,,,None,None,1,1.38324503303,None,None,None,None,None,None,3,0.949910053019,Frauke Ludowig,"['lshift', 'f', 'r', 'a', 'u', 'k', 'e', 'space', 'lshift', 'l', 'u', 'd', 'o', 'w', 'i', 'g', 'return']","[0.16699119007171248, 0.30024873355796444, 0.45019234026403865, 0.6332665253503365, 0.8833999702328583, 1.049787129755714, 1.1167928191243846, 1.2165598679930554, 1.3331480288652529, 1.4166113854153082, 1.6497880279421224, 1.8162560242672043, 1.94961397219231, 2.5660811986417684, 2.6826732088884455, 2.999192273542576, 3.099223325138155]",2017_Feb_16_1655,60.0646620655,famFaceFilter,001,18,
12,./img/smoo15_MariskaHargitay(Liv)8_8.png,0,41,41,11,,,None,None,2,4.36530567859,None,None,None,None,None,None,3,1.09969776018,,['return'],[0.4500505550786329],2017_Feb_16_1655,60.0646620655,famFaceFilter,001,18,
28,./img/smoo15_HughLaurie(DrHouse)5_3.png,0,42,42,27,,,None,None,1,1.33337097163,None,None,None,None,None,None,1,0.916561985145,Dr House,"['lshift', 'd', 'r', 'period', 'space', 'lshift', 'h', 'o', 'u', 's', 'e', 'return']","[0.35021133049667696, 0.6002642593557539, 0.850078847957775, 1.0333256132034876, 1.416509377067996, 1.5330458922071557, 1.9996814645055565, 2.1829160400739056, 2.382742369260086, 2.44942535298469, 2.6493979582919565, 3.015621391212335]",2017_Feb_16_1655,60.0646620655,famFaceFilter,001,18,
3,./img/smoo15_JoshRadnor(Ted)3_1.png,0,43,43,2,,,None,None,1,0.733465666173,None,None,None,None,None,None,1,0.533513270067,Ted Mosby,"['lshift', 't', 'e', 'd', 'space', 'lshift', 'm', 'o', 's', 'b', 'y', 'return']","[0.20037678931839764, 0.583463035767636, 0.7334499479075021, 0.9166963923707954, 1.0333746926917229, 1.200052800548292, 1.2686431478614395, 1.4334260818031908, 1.5832984751359618, 1.816481533282058, 1.9497307364617882, 2.2163138289943163]",2017_Feb_16_1655,60.0646620655,famFaceFilter,001,18,
55,./img/smoo15_MariskaHargitay(Liv)4_4.png,0,44,44,54,,,None,None,2,2.1994099555,None,None,None,None,None,None,3,1.34989311578,,['return'],[0.18364998691322398],2017_Feb_16_1655,60.0646620655,famFaceFilter,001,18,
9,./img/smoo15_EmilyDeschanel6_12.png,0,45,45,8,,,None,None,2,2.18281467329,None,None,None,None,None,None,2,1.16678300323,,['return'],[0.40016013385684346],2017_Feb_16_1655,60.0646620655,famFaceFilter,001,18,
40,./img/smoo15_NeilPatrickHarris(Barney)2_2.png,0,46,46,39,,,None,None,1,1.08530431848,None,None,None,None,None,None,1,0.683251897739,Barney Stinson How I met your mother,"['lshift', 'b', 'a', 'r', 'n', 'e', 'y', 'space', 'lshift', 's', 't', 'i', 'n', 's', 'o', 'n', 'space', 'lshift', 'h', 'o', 'w', 'space', 'lshift', 'i', 'space', 'm', 'e', 't', 'space', 'y', 'o', 'u', 'r', 'space', 'm', 'o', 't', 'h', 'e', 'r', 'return']","[0.36661286100934376, 0.6501726443129883, 0.833442826569808, 0.98322828826349, 1.11660259601922, 1.2999956373787427, 1.5498923459126672, 1.733219947956968, 2.9158780801408284, 2.949183804925269, 3.1822100011813745, 3.2824062549734663, 3.43234825777472, 3.5823293958565046, 3.649073969525489, 3.8155214358666854, 3.965504819414491, 4.165379586527706, 4.4152114973039716, 4.581921041692112, 4.715251081674069, 4.831795616337331, 5.015038852990983, 5.165030897624092, 5.364887701001862, 5.714802950671583, 5.831384695928136, 6.347724957275204, 6.59767716090937, 6.81406861889991, 6.997618842931843, 7.230893002870289, 7.397654834556306, 7.530752308342926, 7.647391152604541, 7.830738322292746, 8.130536358599784, 8.230509990404244, 8.363639863066055, 8.399520175840735, 8.546936670139985]",2017_Feb_16_1655,60.0646620655,famFaceFilter,001,18,
8,./img/smoo15_AngelaMerkel4_1.png,0,47,47,7,,,None,None,1,0.649851863353,None,None,None,None,None,None,4,0.88336275964,Angela Merkel,"['lshift', 'a', 'n', 'g', 'e', 'l', 'a', 'space', 'lshift', 'm', 'e', 'r', 'k', 'e', 'l', 'return']","[0.16688854016683763, 0.2669304983137408, 0.45014358155822265, 0.5668363170261728, 0.7000467057077913, 0.7834555294939491, 0.9166001580815646, 1.0165628833347, 1.1497982929322461, 1.2664964816758584, 1.3664569614629727, 1.433163362195046, 1.5497438243255601, 1.649730287368584, 1.8163718261930626, 2.249391478519101]",2017_Feb_16_1655,60.0646620655,famFaceFilter,001,18,
62,./img/smoo15_RobertSeanLeonard(Wilson)1_1.png,0,48,48,61,,,None,None,2,2.51611988483,None,None,None,None,None,None,1,2.76607722096,,['return'],[0.5668982277493342],2017_Feb_16_1655,60.0646620655,famFaceFilter,001,18,
45,./img/smoo15_RobertSeanLeonard(Wilson)2_6.png,0,49,49,44,,,None,None,2,1.63327262019,None,None,None,None,None,None,2,1.98273685183,,['return'],[0.16690297530658427],2017_Feb_16_1655,60.0646620655,famFaceFilter,001,18,
31,./img/smoo15_BritneySpears1_1.png,0,50,50,30,,,None,None,1,0.983380659218,None,None,None,None,None,None,2,0.416843310049,Britney Spears,"['lshift', 'b', 'r', 'i', 't', 'n', 'e', 'y', 'space', 'lshift', 's', 'p', 'e', 'a', 'r', 's', 'return']","[0.3003805745320278, 0.6335696633577754, 0.80010726915134, 0.9668155304170796, 1.1334852979671268, 1.2500920641359698, 1.3333645560123841, 1.6997470962887746, 1.8998031046467077, 2.0662406267802, 2.1330621878805687, 2.3329109717342362, 2.482927074939653, 2.666158763477142, 2.8160186463537684, 3.032685975969798, 3.1826847570009704]",2017_Feb_16_1655,60.0646620655,famFaceFilter,001,18,
23,./img/smoo15_JoachimLoew4_1.png,0,51,51,22,,,None,None,1,0.833441222661,None,None,None,None,None,None,5,1.21656275502,Jogi Löw,"['lshift', 'j', 'o', 'g', 'i', 'space', 'lshift', 'l', u'\xf6', 'w', 'return']","[0.06686935746620293, 0.2668682668081601, 0.46675105344547774, 0.7333274095799425, 0.8833236243663123, 1.066264043791307, 1.1497921980953834, 1.249797587217472, 1.4497118103863613, 1.6496231465280289, 1.866299458011781]",2017_Feb_16_1655,60.0646620655,famFaceFilter,001,18,
68,./img/smoo15_AlysonHannigan(Lily)8_3.png,0,52,52,67,,,None,None,1,0.916778833074,None,None,None,None,None,None,1,0.433829303471,Lilly How I met your mother,"['lshift', 'l', 'i', 'l', 'l', 'y', 'space', 'lshift', 'h', 'o', 'w', 'space', 'lshift', 'i', 'space', 'm', 'e', 't', 'space', 'y', 'o', 'u', 'r', 'space', 'm', 'o', 't', 'h', 'e', 'r', 'return']","[0.2833916940835479, 0.5335017219549627, 0.7334104918481898, 0.9165658345191332, 1.0333079702541, 1.1332739033168764, 1.299973824276094, 1.499675690451113, 1.7496442539159034, 1.882880305078288, 2.0828096049554006, 2.216113020116609, 2.415884174977691, 2.566114880646637, 2.7158859071969346, 2.982534118265903, 3.0991043154026556, 3.282264149009279, 3.9987351606760058, 4.548566237419436, 4.698512410373951, 4.9316778255670215, 5.115096208628529, 5.281586338838679, 5.364854339783051, 5.531485934399825, 5.63141465686931, 5.764654878181318, 5.831240023715509, 5.897956047876505, 6.04796830171108]",2017_Feb_16_1655,60.0646620655,famFaceFilter,001,18,
19,./img/smoo15_NicoleKidman7_1.png,0,53,53,18,,,None,None,1,0.899737344549,None,None,None,None,None,None,1,0.583344988376,Nicole Kidman,"['lshift', 'n', 'i', 'c', 'o', 'l', 'e', 'space', 'lshift', 'k', 'i', 'd', 'm', 'a', 'n', 'return']","[0.18331894096263568, 0.6000990571592411, 0.7167045402056829, 0.8665153435940738, 0.9662544845159573, 1.1330987569090212, 1.2663588666437136, 1.3660816477349726, 1.4996445746946847, 1.5995726556029695, 1.7662020047537226, 1.8828029968644842, 1.999431896918395, 2.116100253031618, 2.1993993697287806, 2.4159245933769853]",2017_Feb_16_1655,60.0646620655,famFaceFilter,001,18,
14,./img/smoo15_BritneySpears7_1.png,0,54,54,13,,,None,None,1,0.783493381648,None,None,None,None,None,None,1,0.683400419326,Britney Spears,"['lshift', 'lshift', 'b', 'r', 'i', 't', 'n', 'e', 'y', 'space', 'lshift', 's', 'p', 'e', 'a', 'r', 's', 'return']","[0.05037287578670657, 0.5501056652465195, 0.7167218623762892, 0.9000183486714377, 0.9995396793201508, 1.0996175649379438, 1.4164789028764062, 1.5831445002731925, 1.8663145347127283, 2.0162687271913455, 2.1826783413816884, 2.2661978346004616, 2.3495469931258413, 2.5660962753463537, 2.7825868546533457, 2.982509738907538, 3.1824229997364455, 3.382306748717383]",2017_Feb_16_1655,60.0646620655,famFaceFilter,001,18,
41,./img/smoo15_AngelaMerkel3_1.png,0,55,55,40,,,None,None,1,1.29967902657,None,None,None,None,None,None,4,0.866674771733,Angela Merkel,"['lshift', 'a', 'n', 'g', 'e', 'l', 'a', 'space', 'lshift', 'm', 'e', 'r', 'k', 'e', 'l', 'return']","[0.3501545522667584, 0.5668966238445137, 0.7667604844027665, 1.0332364360983775, 1.1665366434499447, 1.2832049995631678, 1.3828957025616546, 1.5164538178069051, 1.6662896421112237, 1.782764246523584, 1.8829386872093892, 1.9328980763384607, 2.082784584035835, 2.199069286121812, 2.299392889952287, 2.532604176823952]",2017_Feb_16_1655,60.0646620655,famFaceFilter,001,18,
17,./img/smoo15_GeorgeClooney11_1.png,0,56,56,16,,,None,None,1,1.63280941248,None,None,None,None,None,None,1,0.150324694489,George Clooney,"['lshift', 'g', 'e', 'o', 'r', 'g', 'e', 'space', 'lshift', 'lshift', 'c', 'l', 'o', 'o', 'n', 'e', 'y', 'return']","[0.3335939143980795, 0.5835611947404686, 0.7500259832559095, 0.8999375118692114, 1.0333201599278254, 1.349828638809413, 1.4831153733612155, 1.6830164445163973, 1.8995779164106352, 2.615813795633585, 2.982509738911176, 3.132462648263754, 3.315613500002655, 3.4323071978105872, 3.6155398486916965, 3.7155500495282467, 3.9654089059040416, 4.232145652520558]",2017_Feb_16_1655,60.0646620655,famFaceFilter,001,18,
52,./img/smoo15_BastianSchweinsteiger3_1.png,0,57,57,51,,,None,None,1,1.05009507948,None,None,None,None,None,None,5,0.833253886583,Sebastian Schweinsteiger,"['lshift', 's', 'b', 'e', 'backspace', 'backspace', 'e', 'b', 'a', 's', 't', 'i', 'a', 'n', 'space', 'lshift', 's', 'c', 'h', 'w', 'e', 'i', 'n', 's', 't', 'e', 'i', 'g', 'e', 'r', 'return']","[0.1997554365952965, 0.26639126551890513, 0.48299187269367394, 0.6495400642597815, 0.9161096839925449, 1.0493742846592795, 1.1493844854921917, 1.2492965273522714, 1.4159768806748616, 1.6158429867027735, 1.8324638030753704, 1.9490737770538544, 2.0823085450902, 2.2156632852056646, 2.398791040715878, 2.5653777259976778, 2.632060709722282, 2.815172426180652, 2.8988205525638477, 3.0319667850562837, 3.0819637055574276, 3.165318958923308, 3.3318196749060007, 3.681688090557145, 3.8816818674058595, 4.031426910700247, 4.0815713904448785, 4.231584927401855, 4.398090455099009, 4.4314625815422914, 4.681280057175172]",2017_Feb_16_1655,60.0646620655,famFaceFilter,001,18,
56,./img/smoo15_MariskaHargitay(Liv)6_5.png,0,58,58,55,,,None,None,2,1.61651470203,None,None,None,None,None,None,3,3.38238598161,,['return'],[0.15031346715477412],2017_Feb_16_1655,60.0646620655,famFaceFilter,001,18,
34,./img/smoo15_EmilyDeschanel5_1.png,0,59,59,33,,,None,None,2,1.88297910561,None,None,None,None,None,None,1,1.91619854032,,['return'],[0.26702192088851007],2017_Feb_16_1655,60.0646620655,famFaceFilter,001,18,
5,./img/smoo15_BarackObama1_3.png,0,60,60,4,,,None,None,1,0.983193002354,None,None,None,None,None,None,4,0.899882658323,Barack Obama,"['lshift', 'b', 'a', 'r', 'a', 'c', 'k', 'space', 'lshift', 'o', 'b', 'a', 'm', 'a', 'return']","[0.20023404178937199, 0.3667982724036847, 0.5501313277272857, 0.6998952970971004, 0.8167500269482844, 1.0832866062410176, 1.2498575732533936, 1.4164099349727621, 1.5663205012424442, 1.8829415742402489, 2.1162349810365413, 2.249428689112392, 2.366041550118098, 2.4325150638760533, 2.6160251902874734]",2017_Feb_16_1655,60.0646620655,famFaceFilter,001,18,
36,./img/smoo15_BastianSchweinsteiger6_2.png,0,61,61,35,,,None,None,1,0.849879642985,None,None,None,None,None,None,5,1.48345860899,Sebastian Schweinsteiger,"['lshift', 's', 'e', 'b', 'a', 's', 't', 'i', 'a', 'n', 'space', 'lshift', 's', 'c', 'h', 'w', 'e', 'i', 'n', 's', 't', 'e', 'i', 'g', 'e', 'r', 'return']","[0.23372453640695312, 0.5669068888346374, 0.7667842221962928, 0.9168224592867773, 1.0164595918649866, 1.1167315499624237, 1.3332599814202695, 1.466668612738431, 1.583153482140915, 1.699732661149028, 1.8331031195302785, 2.04971078388553, 2.099610507757461, 2.183030879659782, 2.3162200967999524, 2.4160997397848405, 2.499418103339849, 2.566024741194269, 2.732596670550265, 3.0992820280553133, 3.2824867709932732, 3.432278327527456, 3.482560422304232, 3.6157348835185985, 3.7489699723373633, 3.798834089520824, 3.898899143900053]",2017_Feb_16_1655,60.0646620655,famFaceFilter,001,18,
32,./img/smoo15_TomCruise1_1.png,0,62,62,31,,,None,None,1,1.43310498006,None,None,None,None,None,None,1,0.400023481168,Tom Cruise,"['lshift', 't', 'o', 'm', 'space', 'lshift', 'c', 'r', 'u', 'i', 's', 'e', 'return']","[0.28359442765213316, 0.5001100278714148, 0.6835264862420445, 0.8499986527203873, 0.9999611855055264, 1.149789631846943, 1.2332058335960028, 1.4498529540105665, 1.5830694375326857, 1.7496795398219547, 1.8829733315542398, 2.0325656831118977, 2.13304037477792]",2017_Feb_16_1655,60.0646620655,famFaceFilter,001,18,
37,./img/smoo15_Ice-T(OdafinFinTutuola)5_1.png,0,63,63,36,,,None,None,2,1.13325273177,None,None,None,None,None,None,1,0.833298154354,,['return'],[0.5836186145352258],2017_Feb_16_1655,60.0646620655,famFaceFilter,001,18,
54,./img/smoo15_LisaEdelstein(DrLisaCuddy)6_3.png,0,64,64,53,,,None,None,2,2.26612758357,None,None,None,None,None,None,2,0.18359000087,,['return'],[0.6998596904086298],2017_Feb_16_1655,60.0646620655,famFaceFilter,001,18,
7,./img/smoo15_LisaEdelstein(DrLisaCuddy)2_2.png,0,65,65,6,,,None,None,2,1.89986918553,None,None,None,None,None,None,3,0.2001647531,,['return'],[0.2668657005597197],2017_Feb_16_1655,60.0646620655,famFaceFilter,001,18,
1,./img/smoo15_Ice-T(OdafinFinTutuola)6_1.png,0,66,66,0,,,None,None,2,2.18279478487,None,None,None,None,None,None,1,0.450148714051,,['return'],[0.13369733418221585],2017_Feb_16_1655,60.0646620655,famFaceFilter,001,18,
26,./img/smoo15_TomCruise4_1.png,0,67,67,25,,,None,None,1,3.28269110846,None,None,None,None,None,None,1,0.582989883853,Tom Cruise,"['lshift', 't', 'o', 'm', 'space', 'lshift', 'c', 'r', 'u', 'i', 's', 'e', 'return']","[0.6168566545384238, 1.0333329911663895, 1.183339470942883, 1.3664107690019591, 1.5330019452158012, 1.649814011198032, 1.6997743626743613, 1.9162861135191633, 2.0162770674978674, 2.1828069745497487, 2.282710034542106, 2.416108721648925, 2.5327276774951315]",2017_Feb_16_1655,60.0646620655,famFaceFilter,001,18,
49,./img/smoo15_TomCruise5_1.png,0,68,68,48,,,None,None,1,1.59959222324,None,None,None,None,None,None,1,1.16650969785,Tom Cruise,"['lshift', 't', 'm', 'backspace', 'o', 'm', 'space', 'lshift', 'v', 'backspace', 'lshift', 'c', 'r', 'u', 'i', 's', 'e', 'return']","[0.43342351555475034, 0.6668054578985902, 0.8000662091908453, 1.0667086462017323, 1.2164912208681926, 1.4162601302632538, 1.5664375862907036, 1.7497145049455867, 2.0495365998249326, 2.3827173483477964, 2.6327442939509638, 2.8827016300820105, 2.9659131735788833, 3.082560999708221, 3.165966615684738, 3.5656782977566763, 3.9156682893917605]",2017_Feb_16_1655,60.0646620655,famFaceFilter,001,18,
65,./img/smoo15_UrsulavonderLeyen4_1.png,0,69,69,64,,,None,None,1,3.39893892074,None,None,None,None,None,None,4,1.24961891222,,['return'],[0.8666192766249878],2017_Feb_16_1655,60.0646620655,famFaceFilter,001,18,
58,./img/smoo15_EmilyDeschanel3_1.png,0,70,70,57,,,None,None,2,3.11575220569,None,None,None,None,None,None,2,2.23295209585,,['return'],[0.5501265160091862],2017_Feb_16_1655,60.0646620655,famFaceFilter,001,18,
66,./img/smoo15_NicoleKidman3_1.png,0,71,71,65,,,None,None,1,2.01622093083,None,None,None,None,None,None,1,1.34974748123,Nicole Kidman,"['lshift', 'b', 'backspace', 'lshift', 'n', 'i', 'c', 'o', 'l', 'e', 'space', 'lshift', 'k', 'i', 'd', 'm', 'a', 'n', 'return']","[0.2169284453157161, 0.5334539255891286, 0.8333141934017476, 1.0499205746345979, 1.1165041162603302, 1.2831706760007364, 1.5497386918286793, 1.6663210786427953, 1.7996373250462057, 2.049601718357735, 2.182732232584385, 2.3326546677490114, 2.4327389689824486, 2.566052328354999, 2.6658716645179084, 2.7825217361169052, 2.8997043041090365, 2.9658413186407415, 3.132375716624665]",2017_Feb_16_1655,60.0646620655,famFaceFilter,001,18,
18,./img/edges5_JoshRadnor(Ted)6_2.png,0,0,0,17,,,None,None,1,1.76618692805,None,None,None,None,None,None,1,1.31655242587,Ted Mosby How I met your mother,"['lshift', 't', 'e', 'd', 'space', 'lshift', 'm', 'o', 's', 'b', 'y', 'space', 'lshift', 'h', 'o', 'w', 'space', 'lshift', 'i', 'space', 'm', 'e', 't', 'space', 'y', 'o', 'u', 'r', 'space', 'm', 'o', 't', 'h', 'e', 'r', 'return']","[0.15031859964801697, 0.283631317459367, 0.4169421105834772, 0.6668003253980714, 0.883445200346614, 1.0330943301305524, 1.1332921878274647, 1.2832880818314152, 1.5664876281189208, 1.8496486806907342, 2.033031136281352, 2.1495654059544904, 2.316062593345123, 2.382739161450445, 2.51609839250159, 2.632810054044967, 2.8660158876373316, 3.3324150443695544, 3.482363142011309, 3.599012251266686, 3.7656197873075143, 3.84899460831366, 4.0155097594397375, 4.165436043975205, 4.615207198836288, 4.715264233691414, 4.931879596791987, 5.065081003605883, 5.165067787431326, 5.248309484337369, 5.431498509009543, 5.531563242606353, 5.664587257553649, 5.7480798051692545, 5.814544657841907, 5.931271396089869]",2017_Feb_16_1655,60.0646620655,famFaceFilter,001,18,
67,./img/edges5_LeonardoDiCaprio2_1.png,0,1,1,66,,,None,None,1,1.36654293075,None,None,None,None,None,None,1,0.149955154822,Leonardo DiCaprio,"['lshift', 'l', 'e', 'o', 'n', 'a', 'r', 'd', 'o', 'space', 'lshift', 'd', 'i', 'lshift', 'c', 'a', 'p', 'r', 'i', 'o', 'return']","[0.25059055774545413, 0.4172510226489976, 0.5670746572759526, 0.6504449873464182, 0.8004232383973431, 0.933632985521399, 1.1170401412455249, 1.28357935094391, 1.4667879432527116, 1.7000932189439482, 1.8831529688904993, 1.9665358094171097, 2.0998703403347463, 2.516293748107273, 2.6162795695890964, 2.799455442240287, 3.43280280439285, 3.5826209857441427, 3.74917110199749, 3.9487815455977398, 4.099010005797027]",2017_Feb_16_1655,60.0646620655,famFaceFilter,001,18,
48,./img/edges5_GeorgeClooney3_1.png,0,2,2,47,,,None,None,1,1.28326851419,None,None,None,None,None,None,1,0.150250273306,George Clooney,"['lshift', 'g', 'e', 'o', 'r', 'g', 'e', 'space', 'lshift', 'c', 'l', 'o', 'o', 'n', 'e', 'y', 'return']","[0.3166050339495996, 1.033278458402492, 1.3998399944539415, 1.4998052859555173, 1.7164373296654958, 1.9160683032459929, 2.049649514719931, 2.1827347988291876, 2.332678726317681, 2.7326797528185125, 2.899326424136234, 3.0825465645611985, 3.215850300504826, 3.3990290601868764, 3.515673678510211, 3.798960477219225, 4.16550950281453]",2017_Feb_16_1655,60.0646620655,famFaceFilter,001,18,
59,./img/edges5_BastianSchweinsteiger3_1.png,0,3,3,58,,,None,None,1,0.999988131105,None,None,None,None,None,None,5,0.766798015775,Sebastian Schweinsteiger,"['lshift', 's', 'e', 'b', 'a', 's', 't', 'i', 'n', 'backspace', 'a', 'n', 'space', 'lshift', 's', 'c', 'h', 'w', 'e', 'i', 'n', 's', 't', 'e', 'i', 'g', 'e', 'r', 'return']","[0.30000301533800666, 0.6998093277943553, 0.8832344472539262, 1.0831137052991835, 1.1332283524170634, 1.2332231557629711, 1.4995499443102744, 1.6162859852047404, 1.8662417174346047, 2.182829749996017, 2.2827424334172974, 2.399370050348807, 2.5827056719172106, 2.749267657065502, 2.8493086528724234, 2.999163724034588, 3.115639932351769, 3.199278756088461, 3.2658321443050227, 3.3322617110679857, 3.515410638119647, 3.7989659304948873, 3.998849679472187, 4.148778851038514, 4.2819760877027875, 4.381936888268683, 4.581923928719334, 4.648510998937127, 5.214951472255052]",2017_Feb_16_1655,60.0646620655,famFaceFilter,001,18,
50,./img/edges5_WillSmith5_1.png,0,4,4,49,,,None,None,1,1.01663185124,None,None,None,None,None,None,1,0.39997536402,Will Smith,"['lshift', 'w', 'i', 'l', 'l', 'space', 'lshift', 's', 'm', 'i', 't', 'h', 'return']","[0.40032886464177864, 0.7002558548956586, 0.8501814978662878, 1.0334927400872402, 1.1502300641041074, 1.6666745792645088, 1.8664152599340014, 1.9496941674333357, 2.0829719201174157, 2.249718995877629, 2.332911934077856, 2.499582343189104, 2.8495428229762183]",2017_Feb_16_1655,60.0646620655,famFaceFilter,001,18,
71,./img/edges5_HughLaurie(DrHouse)4_1.png,0,5,5,70,,,None,None,1,1.09970353424,None,None,None,None,None,None,1,0.400252839554,Dr House,"['lshift', 'd', 'r', 'space', 'lshift', 'h', 'o', 'u', 's', 'e', 'return']","[0.6834119674422254, 0.8668329167485354, 1.7498572524746123, 2.0330901599809295, 2.199618142345571, 2.4328881321307563, 2.632831546368834, 2.8660582307275035, 2.9660629782847536, 3.1326092451636214, 3.349261498075066]",2017_Feb_16_1655,60.0646620655,famFaceFilter,001,18,
19,./img/edges5_HughLaurie(DrHouse)2_1.png,0,6,6,18,,,None,None,1,0.949747737854,None,None,None,None,None,None,1,0.516849019947,Dr House,"['lshift', 'd', 'r', 'space', 'lshift', 'h', 'o', 'u', 's', 'e', 'return']","[0.31690849273945787, 0.5834607903016149, 0.7667203867822536, 1.0498281897162087, 1.2665324091394723, 1.4665691706395592, 1.6330653956902097, 1.8329696746513946, 1.899545838314225, 2.0661690926244773, 2.2491861787020753]",2017_Feb_16_1655,60.0646620655,famFaceFilter,001,18,
68,./img/edges5_MariskaHargitay(Liv)4_4.png,0,7,7,67,,,None,None,2,2.98248407643,None,None,None,None,None,None,3,0.54981343379,,['return'],[0.25026175726452493],2017_Feb_16_1655,60.0646620655,famFaceFilter,001,18,
57,./img/edges5_BritneySpears5_1.png,0,8,8,56,,,None,None,1,0.883109021899,None,None,None,None,None,None,2,0.433476444414,Britney Spears,"['lshift', 'b', 'r', 'i', 't', 'n', 'e', 'y', 'space', 'lshift', 's', 'p', 'e', 'a', 's', 'backspace', 'r', 's', 'return']","[0.43354797856591176, 0.8335076243238291, 1.0499699749016145, 1.2665965653359308, 1.449816384978476, 1.583003035870206, 1.716484163684072, 2.0662518541139434, 2.182946193486714, 2.3661547857955156, 2.449486622150289, 2.599417397621437, 2.715729686868144, 2.899261947164632, 3.015861976935412, 3.3990851968555944, 3.4990017296513543, 3.7155606353007897, 4.065339873843186]",2017_Feb_16_1655,60.0646620655,famFaceFilter,001,18,
36,./img/edges5_AngelaMerkel1_1.png,0,9,9,35,,,None,None,1,1.13344744581,None,None,None,None,None,None,5,0.583411390035,Angela Merkel,"['4', 'backspace', 'lshift', 'a', 'n', 'g', 'e', 'l', 'a', 'space', 'lshift', 'm', 'e', 'r', 'k', 'e', 'l', 'return']","[1.2999019693379523, 2.065920487380936, 4.715193020318111, 4.781774958039023, 5.198298770254041, 5.2980311747742235, 5.481617967838247, 5.631462774010288, 5.881351783798891, 6.081324709884939, 6.281267161779397, 6.481181064169505, 6.614403321749705, 7.414139447329944, 7.5474948290102475, 7.7640479606016015, 7.863969625890604, 8.113971871356625]",2017_Feb_16_1655,60.0646620655,famFaceFilter,001,18,
65,./img/edges5_LisaEdelstein(DrLisaCuddy)1_1.png,0,10,10,64,,,None,None,2,1.68307258118,None,None,None,None,None,None,3,1.44958093175,,['return'],[0.2669545568860485],2017_Feb_16_1655,60.0646620655,famFaceFilter,001,18,
66,./img/edges5_BritneySpears1_1.png,0,11,11,65,,,None,None,1,2.51592581235,None,None,None,None,None,None,2,1.43320185591,Britney Spears,"['lshift', 'b', 'r', 'i', 't', 'n', 'e', 'x', 'backspace', 'y', 'space', 'lshift', 's', 'p', 'e', 'a', 'r', 's', 'return']","[0.20016667778691044, 0.3834679757965205, 0.5334231306187576, 0.6833539060862677, 0.8833438335641404, 0.9832879535206303, 1.2662414608093968, 1.583013621642749, 2.049496822986839, 2.1661221944486897, 2.3161209754835, 2.499238786782371, 2.565858255875355, 2.715729366085725, 2.849220117328514, 3.5988358217400673, 3.815478451218951, 3.9987701257959998, 4.1987315037695225]",2017_Feb_16_1655,60.0646620655,famFaceFilter,001,18,
55,./img/edges5_JoachimLoew1_1.png,0,12,12,54,,,None,None,1,1.26602685835,None,None,None,None,None,None,5,1.18339143746,Jogi Löw,"['lshift', 'j', 'o', 'g', 'i', 'space', 'lshift', 'l', u'\xf6', 'w', 'return']","[0.08355542068602517, 0.3503223207080737, 0.5502371854418016, 0.8666924146855308, 0.9831057499359304, 1.0833372896304354, 1.2832268126694544, 1.3665464593468641, 1.5498063766135601, 1.7664012097302475, 2.0162244594212098]",2017_Feb_16_1655,60.0646620655,famFaceFilter,001,18,
40,./img/edges5_NicoleKidman3_1.png,0,13,13,39,,,None,None,1,1.49990953977,None,None,None,None,None,None,1,0.166737773114,Nicole Kidman,"['lshift', 'n', 'i', 'c', 'o', 'l', 'e', 'space', 'lshift', 'k', 'i', 'd', 'm', 'a', 'n', 'return']","[0.3999400781140139, 0.6334702212589036, 0.8163917146121094, 0.9166858065946144, 1.0833010413807642, 1.2498222873473424, 1.449804836862313, 1.5664144900583779, 1.7495967783324886, 1.866349179057579, 2.032860801591596, 2.132850472444261, 2.299427855075919, 2.4157946770865237, 2.4994174617750105, 2.8491835482964234]",2017_Feb_16_1655,60.0646620655,famFaceFilter,001,18,
23,./img/edges5_UrsulavonderLeyen1_1.png,0,14,14,22,,,None,None,1,2.38273210427,None,None,None,None,None,None,4,0.816743932108, Ursula Von der Leyen,"['space', 'lshift', 'u', 'r', 's', 'u', 'l', 'a', 'space', 'lshift', 'v', 'o', 'n', 'space', 'd', 'e', 'r', 'space', 'lshift', 'l', 'e', 'y', 'e', 'n', 'return']","[0.15021627052192343, 0.29995393585340935, 0.5001539748591313, 0.6000727531209122, 0.8999080000212416, 0.999861101845454, 1.1831235853569524, 1.2997858466296748, 1.4329741014298634, 1.682866639806889, 1.9661380410288984, 2.082726201901096, 2.2494363878504373, 2.399424903895124, 2.51597777886127, 2.6492747784031963, 2.715934024337912, 2.7659158681344707, 2.9825873679037613, 3.2823459481514874, 3.5989397547673434, 3.782225976072368, 3.865541452600155, 4.3986380281967286]",2017_Feb_16_1655,60.0646620655,famFaceFilter,001,18,
21,./img/edges5_JoshRadnor(Ted)3_1.png,0,15,15,20,,,None,None,1,0.883312397029,None,None,None,None,None,None,1,2.21612777604,Ted Mosby How I met your mother,"['lshift', 't', 'e', 'd', 'space', 'lshift', 'm', 'o', 's', 'b', 'y', 'space', 'lshift', 'j', 'o', 'backspace', 'backspace', 'lshift', 'h', 'o', 'w', 'space', 'lshift', 'i', 'space', 'm', 'e', 't', 'space', 'y', 'o', 'u', 'r', 'space', 'm', 'o', 't', 'h', 'e', 'r', 'return']","[0.18427069807148655, 0.38349909154567285, 0.566848185917479, 0.7667098010133486, 0.9333638502939721, 1.0999425160516694, 1.1499256429706293, 1.299902610899153, 1.4830403106170706, 1.7996876876568422, 1.9328130693866115, 2.1494852107134648, 2.6826372814175556, 2.9492351298758877, 3.149105726835842, 3.5322189188918856, 3.6487884744674375, 3.9153638682582823, 4.348465319726529, 4.516023008975026, 4.681843990103516, 4.7818266037756985, 4.915112375983881, 5.08178887993563, 5.181767323454551, 5.348227621034312, 5.464813857222907, 5.614745274255256, 5.764966356491641, 6.131243680614716, 6.297816893093113, 6.497741060476983, 6.681030489588011, 6.814332942405599, 6.864159207438206, 7.047592667204299, 7.147556996358617, 7.26407522698355, 7.347450368768477, 7.413939600792219, 7.563977837882703]",2017_Feb_16_1655,60.0646620655,famFaceFilter,001,18,
31,./img/edges5_GeorgeClooney4_2.png,0,16,16,30,,,None,None,1,1.84969808096,None,None,None,None,None,None,1,0.71673533518,George Clooney,"['lshift', 'g', 'e', 'o', 'r', 'g', 'e', 'space', 'lshift', 'c', 'l', 'o', 'o', 'n', 'e', 'y', 'return']","[0.1336899562193139, 0.26694397111350554, 0.46808486067675403, 0.5835310413312982, 0.733472081788932, 1.0833539702398411, 1.4164493910284364, 1.5829853929171804, 1.6995639303604548, 1.8996385440113954, 2.0494878411191166, 2.216255446859577, 2.350686086316273, 2.5326821265989565, 2.59936350641874, 2.8658991233678535, 3.0657918542165135]",2017_Feb_16_1655,60.0646620655,famFaceFilter,001,18,
72,./img/edges5_EmilyDeschanel6_12.png,0,17,17,71,,,None,None,2,1.38324054209,None,None,None,None,None,None,3,0.999883877292,,['return'],[0.13369540949497605],2017_Feb_16_1655,60.0646620655,famFaceFilter,001,18,
9,./img/edges5_RobertSeanLeonard(Wilson)8_1.png,0,18,18,8,,,None,None,2,1.19980964858,None,None,None,None,None,None,2,0.666663993492,,['return'],[0.16695237557723885],2017_Feb_16_1655,60.0646620655,famFaceFilter,001,18,
34,./img/edges5_KatjaBurkard1_1.png,0,19,19,33,,,None,None,1,1.91598842879,None,None,None,None,None,None,3,0.833412352375,Frauke Ludowig,"['lshift', 'f', 'r', 'a', 'u', 'k', 'e', 'space', 'lshift', 'l', 'u', 'd', 'o', 'w', 'i', 'g', 'return']","[0.15023583816218888, 0.4002845968680049, 0.583467205920897, 0.7165403003527899, 0.8167740855169541, 0.9833934904563648, 1.0667558010027278, 1.1666444258517004, 1.2663409029082686, 1.3665349112343392, 1.599719573285256, 1.932703362297616, 2.082761167028366, 2.3491190713248216, 2.482715038724564, 3.0491779667099763, 3.149207735183154]",2017_Feb_16_1655,60.0646620655,famFaceFilter,001,18,
45,./img/edges5_WillSmith4_1.png,0,20,20,44,,,None,None,1,1.21636964488,None,None,None,None,None,None,1,1.04993565134,Will Smith,"['lshift', 'w', 'i', 'l', 'l', 'space', 'lshift', 's', 'm', 'i', 't', 'h', 'return']","[0.13373454477550695, 0.26700588184030494, 0.41681668523233384, 0.6000942454484175, 0.7168723086506361, 0.849855263633799, 0.9334174207178876, 1.049984410048637, 1.1832628042939177, 1.3498607169094612, 1.3998262008753954, 1.5164820465324738, 1.6997932887497882]",2017_Feb_16_1655,60.0646620655,famFaceFilter,001,18,
62,./img/edges5_AlysonHannigan(Lily)5_4.png,0,21,21,61,,,None,None,1,1.00001411436,None,None,None,None,None,None,1,0.833083231111,Lilly How I met your mother,"['lshift', 'l', 'i', 'l', 'l', 'y', 'space', 'lshift', 'h', 'o', 'space', 'backspace', 'w', 'space', 'lshift', 'i', 'space', 'm', 'e', 't', 'space', 'y', 'o', 'u', 'r', 'space', 'm', 'o', 't', 'h', 'e', 'r', 'return']","[0.0669264564749028, 0.1835402798242285, 0.3999811380781466, 0.5834139562794007, 0.7166849725654174, 0.8332092980272137, 1.049943029302085, 1.2997441451043414, 1.5496883292180428, 1.6996165384407504, 2.03272286578067, 2.699227110351785, 2.9491639165025845, 3.26567239538781, 3.39900820942421, 3.532268319158902, 3.7487983545215684, 3.9154703675376368, 4.0153009310342895, 4.5984820003395726, 4.9650441779522225, 5.198312243053806, 5.298340407622163, 5.514780624314881, 5.681328495098569, 5.797873350544251, 5.897893174806086, 6.047647199968196, 6.164447076273063, 6.29786725570375, 6.4144185267687135, 6.480998860584805, 6.64772027386789]",2017_Feb_16_1655,60.0646620655,famFaceFilter,001,18,
2,./img/edges5_OmarEpps(DrEricForeman)1_5.png,0,22,22,1,,,None,None,2,1.73273845574,None,None,None,None,None,None,1,4.83153738766,,['return'],[0.26737606306778616],2017_Feb_16_1655,60.0646620655,famFaceFilter,001,18,
24,./img/edges5_JasonSegel(Marshall)7_1.png,0,23,23,23,,,None,None,1,2.21612553057,None,None,None,None,None,None,1,0.550171746127,Marshall How I met your mother,"['lshift', 'm', 'a', 'r', 's', 'h', 'a', 'l', 'l', 'space', 'lshift', 'h', 'o', 'w', 'space', 'lshift', 'i', 'space', 'm', 'e', 't', 'space', 'y', 'o', 'u', 'r', 'space', 'm', 'o', 't', 'h', 'e', 'r', 'return']","[0.25040771259955363, 0.416870897210174, 0.5334622658920125, 0.7834651529192342, 1.0332848740217742, 1.166497828951833, 1.249850516069273, 1.366634353329573, 1.5163069001246186, 1.6663922920160985, 1.766347639306332, 2.116212205586635, 2.265967193088727, 2.399278948556457, 2.5159922140046547, 2.6160389838660194, 2.832509033189126, 2.9326189969033294, 3.099192530164146, 3.2157239128064248, 3.3990553642252053, 3.4822781350558216, 3.748854170407867, 3.865619723150303, 4.132078031892888, 4.465185642355209, 4.631853806000436, 4.715218682795239, 4.865161968722532, 4.948610890125565, 5.065085815320344, 5.181503641502786, 5.231584927398217, 5.331610204939352]",2017_Feb_16_1655,60.0646620655,famFaceFilter,001,18,
41,./img/edges5_OmarEpps(DrEricForeman)3_1.png,0,24,24,40,,,None,None,1,3.31575560597,None,None,None,None,None,None,1,1.39979540591,aus New Girl,"['lshift', 'n', 'backspace', 'a', 'u', 's', 'space', 'lshift', 'n', 'e', 'w', 'space', 'lshift', 'g', 'i', 'r', 'l', 'return']","[0.6667916643127683, 1.2165611511154566, 1.6664429754091543, 1.8840800258694799, 1.9995980614548898, 2.13290981692262, 2.1995000949500536, 2.3994245831127046, 2.565974699366052, 2.7659604566906637, 3.0325095464431797, 3.1326201517185837, 3.2162846379287657, 3.415559544646385, 3.565590082991548, 3.6655059742261074, 3.782260620417219, 4.248604923603125]",2017_Feb_16_1655,60.0646620655,famFaceFilter,001,18,
12,./img/edges5_UrsulavonderLeyen4_1.png,0,25,25,11,,,None,None,1,0.766610679697,None,None,None,None,None,None,4,0.900074806119,Ursula von der Leyen,"['lshift', 'u', 'r', 'u', 's', 'backspace', 'backspace', 's', 'u', 'a', 'backspace', 'l', 'a', 'space', 'v', 'o', 'n', 'space', 'd', 'e', 'r', 'space', 'lshift', 'l', 'e', 'y', 'e', 'n', 'return']","[0.26697316218269407, 1.9162966992917063, 2.0994844408414792, 2.266097430161608, 2.3828957025616546, 3.065917600353714, 3.365724939310894, 3.5821385311828635, 3.6822035855620925, 4.065424880798673, 4.315359120701032, 4.465248836208048, 4.598507662816701, 4.748493291830528, 5.031811527071113, 5.148385252803564, 5.33167083254375, 5.43164446434821, 5.531585376495059, 5.681530907888373, 5.731424857702223, 5.848205166370462, 5.981260938631749, 6.081281725237204, 6.197949760571646, 6.647823565341241, 6.83105268763029, 6.914366881035676, 7.19753017907351]",2017_Feb_16_1655,60.0646620655,famFaceFilter,001,18,
8,./img/edges5_LeonardoDiCaprio3_1.png,0,26,26,7,,,None,None,1,0.783531233799,None,None,None,None,None,None,1,0.350066016723,Leonardo Diaprio,"['lshift', 'l', 'e', 'o', 'n', 'a', 'r', 'd', 'o', 'space', 'lshift', 'd', 'i', 'lshift', 'c', 'backspace', 'a', 'p', 'r', 'i', 'o', 'return']","[0.3335352114845591, 0.8833611557347467, 1.0332861571441754, 1.1165753296336334, 1.28324445562248, 1.4164952627070306, 1.5830524361372227, 1.7497398466402956, 1.9162607718244544, 2.0664225095824804, 2.4826884139038157, 2.5827069550432498, 2.7159324204330915, 3.0491304911265615, 3.3501968953532923, 3.9820827794501383, 4.048895037904003, 4.165424175080261, 4.36518057401554, 4.498723612556205, 4.665187117949245, 4.831828015212523]",2017_Feb_16_1655,60.0646620655,famFaceFilter,001,18,
4,./img/edges5_LeonardoDiCaprio1_1.png,0,27,27,3,,,None,None,1,1.16718462099,None,None,None,None,None,None,1,0.516864096655,Leonardo DiCaprio,"['lshift', 'l', 'e', 'o', 'n', 'a', 'r', 'd', 'o', 'space', 'lshift', 'd', 'i', 'lshift', 'c', 'a', 'p', 'r', 'i', 'o', 'return']","[0.11699170331849018, 0.2336706452042563, 0.3836248376828735, 0.5001863737379608, 0.6999950599711156, 0.8505487920665473, 1.0331780539636384, 1.2159600075938215, 1.3162284371028363, 1.5664985346702451, 1.6830109912370972, 1.7995260140523897, 1.8995759917270334, 2.1163145347127283, 2.232601803043508, 2.6499609288766806, 2.799301467377518, 3.032511791905563, 3.182498704045429, 3.3324342912274005, 3.6822693456560955]",2017_Feb_16_1655,60.0646620655,famFaceFilter,001,18,
6,./img/edges5_GuentherJauch3_1.png,0,28,28,5,,,None,None,1,1.64984544773,None,None,None,None,None,None,3,0.200257138018,Günther Jauch,"['lshift', 'g', 'p', 'backspace', u'\xfc', 'n', 't', 'h', 'e', 'r', 'space', 'lshift', 'j', 'a', 'u', 'c', 'h', 'return']","[0.23360713057627436, 0.6164755667559803, 0.8334168433102604, 1.0833020037243841, 1.2666244732790801, 1.5497155955999915, 1.682985328759969, 1.8161097481497563, 1.8828713232069276, 1.9495052274469344, 2.0661376560929057, 2.199400011289981, 2.4160022223695705, 2.5494240057087154, 2.682547783530026, 2.799245651494857, 2.899316800710949, 3.3655898905235517]",2017_Feb_16_1655,60.0646620655,famFaceFilter,001,18,
3,./img/edges5_NicoleKidman5_1.png,0,29,29,2,,,None,None,1,1.58294946545,None,None,None,None,None,None,1,0.116984325359,Nicole Kidman,"['lshift', 'n', 'i', 'c', 'o', 'l', 'e', 'space', 'lshift', 'k', 'i', 'd', 'm', 'a', 'n', 'return']","[0.10032199992929236, 0.25027555084307096, 0.38353533979534404, 0.5168557563483773, 0.8334043328541156, 1.0332951390118978, 1.1165429307584418, 1.267772227554815, 1.3499409121468489, 1.4829575491312426, 1.6498085579223698, 1.7664984063594602, 1.8996334115181526, 2.0328540651935327, 2.149546800657845, 2.3659838095445593]",2017_Feb_16_1655,60.0646620655,famFaceFilter,001,18,
11,./img/edges5_RobertSeanLeonard(Wilson)1_1.png,0,30,30,10,,,None,None,2,1.78295479041,None,None,None,None,None,None,2,0.983225401233,,['return'],[0.4501891324543976],2017_Feb_16_1655,60.0646620655,famFaceFilter,001,18,
26,./img/edges5_NicoleKidman7_1.png,0,31,31,25,,,None,None,1,2.33278811263,None,None,None,None,None,None,1,1.28311261465,Nicole Kidman,"['lshift', 'n', 'i', 'c', 'o', 'l', 'e', 'space', 'lshift', 'k', 'i', 'd', 'm', 'a', 'n', 'n', 'backspace', 'return']","[0.3669009223121975, 0.7001541673307656, 0.8500541478279047, 0.9167624732472177, 1.0666290925255453, 1.2498550070085912, 1.349862641593063, 1.4664190451512695, 1.5330051530254423, 1.7161499099274806, 1.8833245867062942, 1.9996009484857495, 2.132834754182113, 2.2661256588871765, 2.365999207031564, 2.5660815194241877, 3.0326308016447, 3.2491162484548113]",2017_Feb_16_1655,60.0646620655,famFaceFilter,001,18,
29,./img/edges5_TomCruise4_1.png,0,32,32,28,,,None,None,1,1.21659804093,None,None,None,None,None,None,1,0.350078847958,Tom Cruise,"['lshift', 't', 'o', 'm', 'space', 'lshift', 'c', 'r', 'u', 'i', 's', 'e', 'return']","[0.38345354065313586, 0.5501252328867849, 0.6833388293816824, 0.8499588758822938, 1.016612604384136, 1.183965956159227, 1.2664862166857347, 1.4830085533030797, 1.5996756262939016, 1.7663271093297226, 1.833020999605651, 1.9995457741606515, 2.0828660624029]",2017_Feb_16_1655,60.0646620655,famFaceFilter,001,18,
53,./img/edges5_KatjaBurkard4_1.png,0,33,33,52,,,None,None,1,1.38386125325,None,None,None,None,None,None,4,0.649987553697,Frauke Ludowig Moderatorin,"['lshift', 'f', 'r', 'a', 'u', 'k', 'e', 'space', 'lshift', 'l', 'u', 'd', 'o', 's', 'i', 'backspace', 'backspace', 'w', 'i', 'g', 'space', 'lshift', 'm', 'o', 'd', 'e', 'r', 'a', 't', 'o', 'r', 'i', 'n', 'return']","[1.3664479795916122, 1.4331614375078061, 1.5996865328452259, 1.8161578652907338, 1.866383181837591, 2.116197449664469, 2.2495098466933996, 2.4326815491913294, 2.5825699815759435, 2.832595002488233, 3.09908763479325, 3.265693566929258, 3.432034533994738, 3.5489303238100547, 3.7321636162523646, 4.281981861760869, 4.6651701165574195, 5.031424023669388, 5.115061564283678, 5.3315534267094336, 6.014600024635001, 6.231070073958108, 6.381116972133896, 6.5143533440787, 6.630989942874294, 6.764335380343255, 6.847671386851289, 7.030942210669309, 7.1974785333368345, 7.463775810036168, 7.597395194443379, 9.329923217868782, 9.479964983551326, 9.829788489867497]",2017_Feb_16_1655,60.0646620655,famFaceFilter,001,18,
51,./img/edges5_Ice-T(OdafinFinTutuola)6_1.png,0,34,34,50,,,None,None,2,1.49982966531,None,None,None,None,None,None,1,3.3822952006,,['return'],[0.4168689725229342],2017_Feb_16_1655,60.0646620655,famFaceFilter,001,18,
38,./img/edges5_GeorgeClooney11_1.png,0,35,35,37,,,None,None,1,0.983355959084,None,None,None,None,None,None,1,1.59935292065,George Clooney,"['lshift', 'g', 'e', 'o', 'r', 'g', 'e', 'space', 'lshift', 'c', 'l', 'o', 'o', 'n', 'e', 'y', 'return']","[0.08373537880470394, 0.31700408546748804, 0.45027830955950776, 0.5836035378270026, 0.7002423820922559, 0.9335351473273477, 1.4832398363760149, 1.6831059424039267, 1.8997267587765236, 2.099779880103597, 2.3162605151992466, 2.482867088900093, 2.616029039658315, 2.7990191801363835, 2.8825935268978355, 3.4324961377969885, 3.882417097367579]",2017_Feb_16_1655,60.0646620655,famFaceFilter,001,18,
47,./img/edges5_UrsulavonderLeyen5_1.png,0,36,36,46,,,None,None,1,0.966626911213,None,None,None,None,None,None,4,0.866717114819,Ursula von der Leyen,"['lshift', 'u', 'r', 'u', 'backspace', 's', 'u', 'l', 'a', 'r', 'backspace', 'space', 'b', 'o', 'n', 'backspace', 'backspace', 'v', 'o', 'backspace', 'backspace', 'backspace', 'v', 'o', 'n', 'space', 'd', 'e', 'r', 'lshift', 'space', 'lshift', 'l', 'e', 'y', 'e', 'n', 'return']","[0.6668141189838934, 0.9501827168351156, 1.066747460699844, 1.4166094607317063, 1.7831629772590532, 1.9162912460160442, 1.9996564435932669, 2.249566304144537, 2.3829252144132624, 2.5661556198283506, 3.132600584078318, 3.265873845830356, 3.4491818802416674, 3.549123433949717, 3.7490761508342985, 4.048838580456504, 4.215493271301966, 4.448791810591501, 4.565392161141062, 4.798609863632009, 4.981855345751683, 5.115108077523473, 5.19839211751605, 5.315223109573708, 5.515000359275291, 5.698206706121709, 5.964777929759293, 6.13138354111652, 6.1601816518450505, 6.347978695011989, 6.664536894943012, 6.7977588317444315, 6.897794053493271, 6.997834407738992, 7.264264487752371, 7.480910004262114, 7.580850274847762, 7.864094088905404]",2017_Feb_16_1655,60.0646620655,famFaceFilter,001,18,
42,./img/edges5_JoachimLoew4_1.png,0,37,37,41,,,None,None,1,1.14978353701,None,None,None,None,None,None,5,1.29985224829,Jogi Löw,"['lshift', 'j', 'o', 'g', 'i', 'space', 'lshift', 'l', u'\xf6', 'w', 'return']","[0.08366737323740381, 0.26690836442503496, 0.4835372003253724, 0.85000570990087, 0.9499921729438938, 1.0665957313030958, 1.166498791295453, 1.3164449642499676, 1.4663783059659181, 1.5996907029948488, 1.7829150135730742]",2017_Feb_16_1655,60.0646620655,famFaceFilter,001,18,
49,./img/edges5_RobertSeanLeonard(Wilson)2_6.png,0,38,38,48,,,None,None,2,1.16653792658,None,None,None,None,None,None,1,0.500203054347,,['return'],[0.9500935397263675],2017_Feb_16_1655,60.0646620655,famFaceFilter,001,18,
37,./img/edges5_JasonSegel(Marshall)9_1.png,0,39,39,36,,,None,None,1,0.800104702907,None,None,None,None,None,None,1,0.533510062258,Marshall How I met your mother,"['lshift', 'm', 'a', 'r', 's', 'h', 'a', 'l', 'l', 'space', 'lshift', 'h', 'o', 'w', 'space', 'lshift', 'i', 'space', 'm', 'e', 't', 'space', 'y', 'o', 'u', 'r', 'space', 'm', 'o', 't', 'h', 'e', 'r', 'return']","[0.1670293630049855, 0.5501775201810233, 0.6834703495733265, 0.8667183979414403, 1.1167017173320346, 1.1999950599711156, 1.2999263486890413, 1.4165802696588798, 1.5503969343590143, 1.7164414998187567, 1.8163772794687247, 2.016300805287756, 2.1495538578383275, 2.2996572134652524, 2.416156518011121, 2.5165009726079006, 2.6835489409095317, 2.78277996478937, 2.932695984334714, 3.049207478557946, 3.1991289513789525, 3.3325212228664896, 3.698991657129227, 3.8155564009903173, 4.015498532105994, 4.198827738058753, 4.3154438068741, 4.365319472173724, 4.532008165799198, 4.648655029588554, 4.765010624265415, 4.8652610900389845, 4.915146057985112, 5.081782143533928]",2017_Feb_16_1655,60.0646620655,famFaceFilter,001,18,
13,./img/edges5_MariskaHargitay(Liv)6_5.png,0,40,40,12,,,None,None,1,2.46610339669,None,None,None,None,None,None,3,0.433526807024,,['return'],[0.43343249741883483],2017_Feb_16_1655,60.0646620655,famFaceFilter,001,18,
58,./img/edges5_HughLaurie(DrHouse)5_3.png,0,41,41,57,,,None,None,1,1.31649853467,None,None,None,None,None,None,1,0.150311221689,Dr House,"['lshift', 'd', 'r', 'space', 'lshift', 'h', 'o', 'u', 's', 'e', 'return']","[0.18365672331492533, 0.8832880176778417, 1.0833016829456028, 1.2165601887754747, 1.4163691957910487, 1.5831570107329753, 1.7163722111326933, 1.9162588471408526, 2.032974999616272, 2.199506831351755, 2.3495152358118503]",2017_Feb_16_1655,60.0646620655,famFaceFilter,001,18,
54,./img/edges5_KatjaBurkard5_3.png,0,42,42,53,,,None,None,1,1.51626391548,None,None,None,None,None,None,3,0.250183486707, Frauke Ludowig,"['space', 'lshift', 'f', 'r', 'a', 'u', 'k', 'e', 'space', 'lshift', 'l', 'u', 'd', 'o', 'w', 'i', 'g', 'return']","[0.10041791343246587, 0.3835186591859383, 0.6833770023149555, 0.8511743149392714, 0.9832472143352788, 1.083310344030906, 1.2665699405115447, 1.3165405569779978, 1.4336175880343944, 1.5996599080244778, 1.667267382475984, 1.916348345024744, 2.216226576572808, 2.39934855802494, 2.5826472897861095, 2.715950063386117, 2.91618378439307, 3.415640060666192]",2017_Feb_16_1655,60.0646620655,famFaceFilter,001,18,
70,./img/edges5_BastianSchweinsteiger1_1.png,0,43,43,69,,,None,None,1,1.74967055795,None,None,None,None,None,None,5,0.350185347241,Sebastian Schweinsteiger,"['lshift', 's', 'e', 'b', 'a', 's', 't', 'i', 'a', 'n', 'space', 'lshift', 's', 'c', 'h', 'w', 'e', 'i', 'n', 's', 't', 'i', 'e', 'backspace', 'backspace', 'e', 'i', 'g', 'e', 'r', 'return']","[0.38365948203136213, 0.6002658632605744, 0.8667495136978687, 1.066676568105322, 1.1666755416081287, 1.249990376571077, 1.4831743970607931, 1.616437073040288, 1.7000204016694624, 1.8163814496219857, 1.9662599377952574, 2.1335186591895763, 2.149540385042201, 2.3011892633330717, 2.416200785784895, 2.532752698411059, 2.616106347872119, 2.6497257964365417, 3.2658693548983138, 3.6656830453175644, 3.899035796588578, 4.148864178776421, 4.365428858483938, 4.798562067266175, 4.9484982960129855, 5.69820381909085, 5.79815242998302, 5.931434994381561, 6.098020396537322, 6.164619656432478, 6.464237734620838]",2017_Feb_16_1655,60.0646620655,famFaceFilter,001,18,
7,./img/edges5_AngelaMerkel3_1.png,0,44,44,6,,,None,None,1,0.91700402131,None,None,None,None,None,None,4,0.916636085549,Angela Merkel,"['lshift', 'a', 'n', 'g', 'e', 'l', 'a', 'space', 'lshift', 'm', 'e', 'r', 'k', 'e', 'l', 'return']","[0.16699856803461444, 0.30023301528854063, 0.5166607215251133, 0.5834556578047341, 0.7167638846840418, 0.8001287614788453, 0.9168208553819568, 1.050013921892969, 1.1832968070739298, 1.2999488033601665, 1.383215200399718, 1.4498792580452573, 1.5664244342697202, 1.6997426053567324, 1.7663024091925763, 1.9996047978565912]",2017_Feb_16_1655,60.0646620655,famFaceFilter,001,18,
56,./img/edges5_NeilPatrickHarris(Barney)1_1.png,0,45,45,55,,,None,None,1,1.11666643143,None,None,None,None,None,None,1,0.516620303126,Barney Stinson How I met your mother,"['lshift', 'b', 'a', 'r', 'n', 'y', 'space', 'backspace', 'backspace', 'e', 'y', 'space', 'lshift', 's', 't', 'i', 'n', 's', 'o', 'n', 'space', 'lshift', 'h', 'o', 'w', 'space', 'lshift', 'i', 'space', 'm', 'e', 't', 'space', 'y', 'o', 'u', 'r', 'space', 'm', 'o', 't', 'h', 'e', 'r', 'return']","[0.18358294368954375, 1.3166460939137323, 1.549738371049898, 1.7330140065787418, 1.849657983340876, 2.216189686761936, 2.4494859805890883, 3.099047537172737, 3.2325068518803164, 3.282397593884525, 3.715549407967046, 3.965430719010328, 4.19863045776583, 4.298683964032534, 4.531944651171216, 4.715156130507239, 4.848664845485473, 5.031722029183584, 5.1315917279571295, 5.298315065927454, 5.49819304085031, 5.68133619384389, 5.748086220788537, 5.914603938163054, 6.047880086945952, 6.147888363091624, 6.247734324075282, 6.447905172015453, 6.532157649726287, 6.7143868977655075, 6.830933677894791, 6.980898776924732, 7.114180378983292, 7.714005168421863, 7.913899823954125, 8.113796404173627, 8.330423956947925, 8.463484861706092, 8.54710187233286, 8.680263823091082, 8.78008508394123, 8.913558833795832, 9.030043703198317, 9.096719308960019, 9.26312667768434]",2017_Feb_16_1655,60.0646620655,famFaceFilter,001,18,
25,./img/edges5_JoachimLoew8_1.png,0,46,46,24,,,None,None,1,0.766564166457,None,None,None,None,None,None,5,0.733161886601,Jogi Löw,"['lshift', 'j', 'o', 'g', 'i', 'lshift', 'space', 'l', u'\xf6', 'w', 'return']","[0.08337834959456814, 0.3002808116507367, 0.4001745689965901, 0.5834925476156059, 0.7997188034096325, 1.0831615016650176, 1.2163946657965425, 1.4830278001609258, 1.6328414905801765, 1.7995712441661453, 2.032766171210824]",2017_Feb_16_1655,60.0646620655,famFaceFilter,001,18,
60,./img/edges5_TomCruise1_1.png,0,47,47,59,,,None,None,1,1.23328089634,None,None,None,None,None,None,1,0.433585509942,Tom Cruise,"['lshift', 't', 'o', 'm', 'space', 'lshift', 'c', 'r', 'u', 'i', 's', 'e', 'return']","[0.26692536581686, 0.4335056354793778, 0.583394067860354, 0.733391565769125, 0.9000331045936036, 1.0666281301819254, 1.1832178949589434, 1.3997177769124391, 1.5330035491206218, 1.7496731242026726, 1.7996453445703082, 1.9161853882978903, 2.0663006128197594]",2017_Feb_16_1655,60.0646620655,famFaceFilter,001,18,
43,./img/edges5_BarackObama1_3.png,0,48,48,42,,,None,None,1,1.34988156767,None,None,None,None,None,None,5,0.716594833117,Barack Obama Politiker,"['lshift', 'b', 'r', 'backspace', 'a', 'r', 'a', 'c', 'k', 'space', 'lshift', 'o', 'b', 'a', 'm', 'a', 'space', 'lshift', 'p', 'l', 'backspace', 'backspace', 'p', 'backspace', 'lshift', 'p', 'o', 'l', 'i', 't', 'i', 'k', 'e', 'r', 'return']","[3.565637879357382, 3.898833704584831, 4.182126598130708, 4.681899805993453, 4.798533517761825, 4.915171720465878, 5.115108077523473, 5.314957823720761, 5.4148987358676095, 5.764809173822869, 5.864741104105633, 5.998055746600585, 6.247932887490606, 6.397888042312843, 6.514435464003327, 6.581208587180299, 6.881051212039893, 7.180899610957567, 7.330828140959056, 7.564070543583512, 7.9805353320989525, 8.163875444603036, 8.480395792383206, 9.080051209475641, 9.313276931487053, 9.463223746006406, 9.663245751577051, 9.813224644192815, 9.979836029604485, 10.129670891568821, 10.21304827881977, 10.379654852520616, 10.462919004090509, 10.512866845107055, 11.079290958597994]",2017_Feb_16_1655,60.0646620655,famFaceFilter,001,18,
64,./img/edges5_EmilyDeschanel3_1.png,0,49,49,63,,,None,None,2,2.6659579546,None,None,None,None,None,None,1,1.29980188568,,['return'],[0.5666284509607067],2017_Feb_16_1655,60.0646620655,famFaceFilter,001,18,
16,./img/edges5_BritneySpears7_1.png,0,50,50,15,,,None,None,1,1.11657468807,None,None,None,None,None,None,2,0.349840186926,Britney Spears,"['lshift', 'b', 'r', 'i', 't', 'n', 'e', 'y', 'space', 'lshift', 's', 'p', 'e', 'a', 'r', 's', 'return']","[0.4332820511517639, 0.79998858019826, 0.9998906136934238, 1.1498534672573442, 1.2997784686704108, 1.4497410014519119, 1.6497360614266654, 1.949409313940123, 2.2327474376033933, 2.4491202902936493, 2.5159043200219458, 2.6493014032239444, 2.965777162447921, 3.2322951364476467, 3.6485543043672806, 3.9487683935803943, 4.13202734850347]",2017_Feb_16_1655,60.0646620655,famFaceFilter,001,18,
10,./img/edges5_GuentherJauch4_1.png,0,51,51,9,,,None,None,1,1.10030852713,None,None,None,None,None,None,3,0.250387824181,Günther Jauch,"['lshift', 'g', u'\xfc', 'n', 't', 'e', 'r', 'backspace', 'backspace', 'h', 'e', 'r', 'space', 'lshift', 'j', 'a', 'u', 'c', 'h', 'return']","[0.3000973249436356, 0.6834286480516312, 1.0666476978185528, 1.3164850618741184, 1.5163864538044436, 1.6996226332776132, 1.76625653751762, 2.3827378783280437, 2.5159806658921298, 2.632587432057335, 2.832522826774948, 2.8825338616370573, 2.999170139657508, 3.2156905515912513, 3.4323511448019417, 3.5156451290058612, 3.6656451931630727, 3.8154688277900277, 4.165465235044394]",2017_Feb_16_1655,60.0646620655,famFaceFilter,001,18,
5,./img/edges5_AlysonHannigan(Lily)1_1.png,0,52,52,4,,,None,None,1,0.800072304031,None,None,None,None,None,None,1,0.666786211037,Lilly How I met your mother,"['lshift', 'l', 'i', 'l', 'l', 'y', 'space', 'lshift', 'h', 'o', 'w', 'space', 'lshift', 'i', 'space', 'm', 'e', 't', 'space', 'y', 'o', 'u', 'r', 'space', 'm', 'o', 't', 'h', 'e', 'r', 'return']","[0.25030634581708, 0.3669737395866832, 0.6169092626150814, 0.8001281199140067, 0.9333516606202465, 1.033350313336996, 1.3165617285230837, 1.6498136904192506, 2.0828744027057837, 2.2495233194931643, 2.3828847960103303, 2.516030707720347, 2.7326617890830676, 2.8826284920214675, 3.0159264539070136, 3.165605416321341, 3.2658629392753937, 3.449057417226868, 3.56550283057004, 3.865607212694158, 3.9988121481037524, 4.282096380564326, 4.498638926383137, 4.631898394556629, 4.731872988704708, 4.848601651636272, 4.981738902260986, 5.0817564810568, 5.181693864615227, 5.231561831169529, 5.864797882331914]",2017_Feb_16_1655,60.0646620655,famFaceFilter,001,18,
14,./img/edges5_AngelaMerkel4_1.png,0,53,53,13,,,None,None,1,2.64930108244,None,None,None,None,None,None,4,0.983091956354, Angela Merkel,"['space', 'lshift', 'a', 'n', 'g', 'e', 'l', 'a', 'space', 'lshift', 'm', 'e', 'r', 'k', 'e', 'l', 'return']","[0.16699600178617402, 0.3837152979176608, 0.5169067605238524, 0.7001968311997189, 0.850168987410143, 1.0167678623693064, 1.1333387010672595, 1.2167038986444823, 1.3831937080758507, 1.5165170116561058, 1.6165163059376937, 1.7331557917641476, 1.8163172934291651, 1.8997469679779897, 2.049634438018984, 2.1496558661856398, 2.4328775463582133]",2017_Feb_16_1655,60.0646620655,famFaceFilter,001,18,
1,./img/edges5_BastianSchweinsteiger6_2.png,0,54,54,0,,,None,None,1,1.93275564959,None,None,None,None,None,None,5,0.366633070207,Sebastian Schweinsteiger,"['lshift', 's', 'e', 'b', 'a', 's', 't', 'i', 'a', 'n', 'space', 'lshift', 's', 'c', 'h', 'w', 'e', 'i', 'n', 's', 't', 'i', 'backspace', 'e', 'i', 'g', 'e', 'r', 'return']","[0.2835132700674876, 0.5501419134961907, 0.733335429104045, 0.8999817796429852, 0.9998550070085912, 1.0832756996896933, 1.283238040003198, 1.4331296801938151, 1.5996419442926708, 1.7162714859114203, 1.8829168741067406, 2.0662444761546794, 2.132917515667941, 2.5160727300280996, 2.8671216196125897, 3.0325313595494663, 3.0587151054496644, 3.182452190805634, 3.3661079517769394, 3.565577251756622, 3.765522911460721, 3.9321423164001317, 4.531854832501267, 4.665103073341015, 4.7817598813380755, 4.931815761381586, 5.098310703306197, 5.165013575449848, 5.764762660583074]",2017_Feb_16_1655,60.0646620655,famFaceFilter,001,18,
28,./img/edges5_Ice-T(OdafinFinTutuola)5_1.png,0,55,55,27,,,None,None,2,1.84967979644,None,None,None,None,None,None,1,0.900020594137,,"['a', 'u', 's', 'space', 'lshift', 'b', 'r', 'e', 'a', 'k', 'i', 'n', 'g', 'space', 'backspace', 'backspace', 'backspace', 'backspace', 'backspace', 'backspace', 'backspace', 'backspace', 'backspace', 'backspace', 'backspace', 'backspace', 'backspace', 'backspace', 'return']","[3.4489011968980776, 3.5989089597969723, 4.0819964252186764, 4.231894481028576, 4.515173580992268, 4.598520173272846, 4.815028074750444, 4.931713111473073, 5.114939025956119, 5.248237950185285, 5.431239317993459, 5.597977732668369, 5.7313324727838335, 5.864705497417162, 6.247500474757544, 7.214071570080705, 7.414015625883621, 7.547169557117741, 7.697351824859652, 7.8636943958299526, 8.013768560387689, 8.180432553879655, 8.330402785406477, 8.496914087161713, 8.663327550722897, 8.813501478158287, 8.98003683848583, 9.080021376845252, 9.346598053758498]",2017_Feb_16_1655,60.0646620655,famFaceFilter,001,18,
30,./img/edges5_MariskaHargitay(Liv)8_8.png,0,56,56,29,,,None,None,2,1.69970250774,None,None,None,None,None,None,3,0.533501401173,,['return'],[0.33362310546726803],2017_Feb_16_1655,60.0646620655,famFaceFilter,001,18,
32,./img/edges5_Ice-T(OdafinFinTutuola)7_1.png,0,57,57,31,,,None,None,2,1.59984211161,None,None,None,None,None,None,1,0.450064348661,,['return'],[0.3670298762554012],2017_Feb_16_1655,60.0646620655,famFaceFilter,001,18,
17,./img/edges5_NeilPatrickHarris(Barney)3_7.png,0,58,58,16,,,None,None,1,0.833270246414,None,None,None,None,None,None,1,0.850006030683,Barney Stinson How I met your mother,"['lshift', 'b', 'a', 'r', 'n', 'y', 'backspace', 'e', 'y', 'space', 'lshift', 's', 't', 'i', 'n', 's', 'o', 'n', 'space', 'lshift', 'h', 'o', 'w', 'space', 'lshift', 'i', 'space', 'm', 'e', 't', 'space', 'y', 'o', 'u', 'r', 'space', 'm', 'o', 't', 'h', 'e', 'r', 'return']","[0.16707106453031884, 0.5503247586420912, 0.7669689920294331, 0.9333930413631606, 1.0500668507520459, 1.183361604827951, 1.8497635202766105, 1.9329763468958845, 2.182989819695649, 2.332943370613066, 2.5328165338178223, 2.5827881126278953, 2.78241106668429, 2.8827545589374495, 3.0826578755550145, 3.3824780457507586, 3.4824147877443465, 3.6490479862659413, 3.8322649188812647, 4.015582255935442, 4.298761913803901, 4.565284699518088, 4.715270007749496, 4.882606678915181, 5.364870699610037, 5.614540615999431, 5.699863860558253, 5.848141972521262, 5.91492888927678, 6.081344919086405, 6.198045032513619, 6.447945590414747, 6.64787553185306, 6.847865459330933, 7.114345901958586, 7.230607187033456, 7.2975467955257045, 7.430787658398913, 7.54744125858997, 7.6475525054265745, 7.7473641428478, 7.830733510574646, 7.980579279090307]",2017_Feb_16_1655,60.0646620655,famFaceFilter,001,18,
46,./img/edges5_TomCruise5_1.png,0,59,59,45,,,None,None,1,1.34990081453,None,None,None,None,None,None,1,0.949991531383,Tom Cruise,"['lshift', 't', 'o', 'm', 'space', 'lshift', 'c', 'r', 'u', 'i', 's', 'e', 'return']","[0.15026406688411953, 0.23354233282225323, 0.4002226861412055, 0.5667307800868002, 0.7832418893740396, 1.2495525105587149, 1.2997216904368543, 1.5164608749873878, 1.6330115044875129, 1.7829522241663653, 1.9495000949500536, 2.0660324399359524, 2.3160677258420037]",2017_Feb_16_1655,60.0646620655,famFaceFilter,001,18,
61,./img/edges5_NeilPatrickHarris(Barney)2_2.png,0,60,60,60,,,None,None,1,0.94996041563,None,None,None,None,None,None,1,0.633172215752,Barney Stinson,"['lshift', 'b', 'a', 'r', 'n', 'y', 'space', 'backspace', 'backspace', 'e', 'y', 'space', 'lshift', 's', 't', 'i', 'n', 's', 'o', 'n', 'return']","[0.1336777665419504, 0.3170480324588425, 0.5011602647355176, 0.6502130627122824, 0.8665862361885956, 1.0501213835159433, 1.183429610391613, 1.6828393734249403, 1.8164253966133401, 1.8498831715733104, 2.3661993743480707, 2.499526206520386, 2.6827970303384063, 2.766046746768552, 2.999310962495656, 3.099335919254372, 3.2659498709181207, 3.383423066461546, 3.499146722646401, 3.698800792455586, 3.915622417713166]",2017_Feb_16_1655,60.0646620655,famFaceFilter,001,18,
44,./img/edges5_EmilyDeschanel5_1.png,0,61,61,43,,,None,None,2,1.44989369319,None,None,None,None,None,None,1,0.999633668143,,['return'],[0.3169582137888938],2017_Feb_16_1655,60.0646620655,famFaceFilter,001,18,
35,./img/edges5_WillSmith1_1.png,0,62,62,34,,,None,None,1,1.69981959278,None,None,None,None,None,None,1,0.350217746116,Will Smith,"['lshift', 'w', 'i', 'l', 'l', 'space', 'lshift', 's', 'm', 'i', 't', 'h', 'return']","[0.2170140938324039, 0.33331932589862845, 0.4835147456578852, 0.6834472533446387, 0.8168250896887912, 0.9666763114801142, 1.0667721608333522, 1.466437650447915, 1.5665264426170324, 1.7497408089839155, 1.9163233241124544, 2.2161996309732785, 2.5159652684051252]",2017_Feb_16_1655,60.0646620655,famFaceFilter,001,18,
33,./img/edges5_BarackObama2_1.png,0,63,63,32,,,None,None,1,1.58323111113,None,None,None,None,None,None,4,0.599781484012,Barack Obama,"['lshift', 'b', 'a', 'r', 'a', 'k', 'backspace', 'c', 'k', 'space', 'lshift', 'o', 'b', 'a', 'm', 'a', 'return']","[0.48355420171719743, 0.9999015202447481, 1.2163879293984792, 1.3832097471204179, 1.5331389186867455, 1.6163706713814463, 1.9496550321564428, 2.0329451669858827, 2.1328658699312655, 2.249425481299113, 2.3827808629757783, 2.5160935807871283, 2.782450522743602, 2.9325917305213807, 3.0657296227109327, 3.1490980280941585, 3.349120675229642]",2017_Feb_16_1655,60.0646620655,famFaceFilter,001,18,
69,./img/edges5_GuentherJauch2_1.png,0,64,64,68,,,None,None,1,0.733365261731,None,None,None,None,None,None,3,1.03300611537,Günther Jauch,"['lshift', 'g', u'\xfc', 'n', 't', 'h', 'e', 'r', 'space', 'lshift', 'j', 'a', 'c', 'u', 'h', 'backspace', 'backspace', 'backspace', 'u', 'c', 'h', 'return']","[0.183810056612856, 0.350290884176502, 0.6502076094402582, 0.9333038642580505, 1.067335772979277, 1.2332674235403829, 1.3665541580921854, 1.416429823391809, 1.56639780945261, 1.6996697880786087, 1.816300292040978, 1.9496441256051185, 1.9997154672892066, 2.083048586770019, 2.366213488712674, 2.5993946221715305, 2.7661205263902957, 2.8826358699843695, 3.099250912302523, 3.232531872796244, 3.299202025282284, 3.5323501183047483]",2017_Feb_16_1655,60.0646620655,famFaceFilter,001,18,
52,./img/edges5_BarackObama4_1.png,0,65,65,51,,,None,None,1,0.900070315187,None,None,None,None,None,None,4,0.933326639701,Barack Obama,"['lshift', 'b', 'a', 'r', 'a', 'c', 'k', 'space', 'lshift', 'o', 'b', 'a', 'm', 'a', 'return']","[0.18369361312215915, 0.3002310906049388, 0.5668536391967791, 0.7668047521765402, 0.933584226815583, 1.1332986034467467, 1.3332214877045772, 1.4331919116993959, 1.5997737852667342, 1.966261541700078, 2.316104936435295, 2.4326712842012057, 2.566047837422957, 3.08255779189858, 3.249090265195264]",2017_Feb_16_1655,60.0646620655,famFaceFilter,001,18,
20,./img/edges5_JoshRadnor(Ted)1_2.png,0,66,66,19,,,None,None,1,0.666844593175,None,None,None,None,None,None,1,0.70025040162,Ted Mosby,"['lshift', 't', 'e', 'd', 'space', 'lshift', 'm', 'o', 's', 'b', 'y', 'return']","[0.18501843848935096, 0.30031256896836567, 0.46691272704993025, 0.6502512356491934, 0.7836229771564831, 0.9666554607210855, 1.0500007698756235, 1.183360642487969, 1.349922948415042, 1.6497389484538871, 1.766349884775991, 2.266233120506513]",2017_Feb_16_1655,60.0646620655,famFaceFilter,001,18,
27,./img/edges5_OmarEpps(DrEricForeman)2_2.png,0,67,67,26,,,None,None,2,2.93238226055,None,None,None,None,None,None,1,0.24995573223,,['return'],[0.7338390552104102],2017_Feb_16_1655,60.0646620655,famFaceFilter,001,18,
63,./img/edges5_LisaEdelstein(DrLisaCuddy)2_2.png,0,68,68,62,,,None,None,2,4.31532736339,None,None,None,None,None,None,4,1.39979861371,,['return'],[0.13355234118716908],2017_Feb_16_1655,60.0646620655,famFaceFilter,001,18,
15,./img/edges5_LisaEdelstein(DrLisaCuddy)6_3.png,0,69,69,14,,,None,None,2,2.08299437478,None,None,None,None,None,None,3,0.516833622463,,['return'],[0.26725384552264586],2017_Feb_16_1655,60.0646620655,famFaceFilter,001,18,
22,./img/edges5_JasonSegel(Marshall)6_1.png,0,70,70,21,,,None,None,1,1.01663345514,None,None,None,None,None,None,1,0.483362695482,Marshall How I met your mother,"['lshift', 'm', 'a', 'r', 's', 'h', 'a', 'l', 'l', 'space', 'lshift', 'h', 'o', 'w', 'space', 'lshift', 'i', 'space', 'm', 'e', 't', 'space', 'y', 'o', 'u', 'r', 'space', 'm', 'o', 't', 'h', 'e', 'r', 'return']","[0.2335384834514116, 0.4002297433253261, 0.516858643379237, 0.7332363077839545, 0.8999237182870274, 1.0499359721216024, 1.1832496522729343, 1.2830782910859853, 1.4504245856805937, 1.7828476495742507, 2.0828044724548818, 2.3494032832568337, 2.5159370396795566, 2.632684949468967, 2.7492605998850195, 2.832564207517862, 2.9992946026686695, 3.099244817462022, 3.2491364576526394, 3.332482729154435, 3.515818671505258, 3.605744802065601, 3.93216060091072, 4.049068259620981, 4.331825448964082, 4.4818890277529135, 4.598627955674601, 4.681848160256777, 4.781755069623614, 4.91511462145354, 5.015138936651056, 5.131650751653069, 5.198403665628575, 5.314949804196658]",2017_Feb_16_1655,60.0646620655,famFaceFilter,001,18,
39,./img/edges5_AlysonHannigan(Lily)8_3.png,0,71,71,38,,,None,None,1,0.833462394206,None,None,None,None,None,None,1,0.616791856784,Lilly How I met your mother,"['lshift', 'l', 'i', 'l', 'l', 'y', 'space', 'lshift', 'h', 'o', 'w', 'space', 'lshift', 'i', 'space', 'm', 'e', 't', 'space', 'y', 'o', 'u', 'r', 'space', 'm', 'o', 't', 'h', 'e', 'r', 'return']","[0.08376777767989552, 0.5502679804158106, 0.7502075452830468, 0.9501455062454625, 1.099667606769799, 1.1666675220840261, 1.3498241478773707, 1.51628508702197, 1.8326379871396057, 1.982747116820974, 2.132902438963356, 2.2663219768328418, 2.332627722145844, 2.5158786575448175, 2.6323654516345414, 2.849075124333467, 2.9989757463918068, 3.149522742085537, 3.282160215974727, 3.8489006194940885, 4.048805860795255, 4.348585291809286, 4.498670362918347, 4.615259486134164, 4.698483540087182, 4.832946899201488, 4.948463651668135, 5.048530951513385, 5.148144987862906, 5.2149995893996675, 5.348185598730197]",2017_Feb_16_1655,60.0646620655,famFaceFilter,001,18,
64,./img/gray_LisaEdelstein(DrLisaCuddy)2_2.png,0,0,0,63,,,None,None,2,2.99930358454,None,None,None,None,None,None,4,1.21642770624,,['return'],[0.30058940293383785],2017_Feb_16_1655,60.0646620655,famFaceFilter,001,18,
34,./img/gray_RobertSeanLeonard(Wilson)2_6.png,0,1,1,33,,,None,None,2,1.94961493454,None,None,None,None,None,None,2,2.11614612471,,['return'],[0.41699888881339575],2017_Feb_16_1655,60.0646620655,famFaceFilter,001,18,
10,./img/gray_HughLaurie(DrHouse)2_1.png,0,2,2,9,,,None,None,1,1.03345488793,None,None,None,None,None,None,1,0.816812900011,Dr House,"['lshift', 'd', 'r', 'space', 'lshift', 'h', 'o', 'u', 's', 'e', 'return']","[0.200223456016829, 0.33346303576763603, 0.5833789911557687, 0.6999982677807566, 0.8000273946927337, 1.0333259339859069, 1.1498865076937363, 1.3665256085841975, 1.4497875146917067, 1.5830700790902483, 1.7164212906172907]",2017_Feb_16_1655,60.0646620655,famFaceFilter,001,18,
38,./img/gray_MariskaHargitay(Liv)4_4.png,0,3,3,37,,,None,None,1,2.71596995181,None,None,None,None,None,None,3,0.966871346303,Anne Will,"['lshift', 'a', 'n', 'n', 'e', 'space', 'lshift', 'w', 'i', 'l', 'l', 'return']","[0.2002103039958456, 0.33357755457109306, 0.4834926117728173, 0.6500857126702613, 0.7167818484158488, 0.7999289149374817, 0.9166521245933836, 1.016653985123412, 1.1332880176742037, 1.3663815779327706, 1.5164130786215537, 1.6329961070005083]",2017_Feb_16_1655,60.0646620655,famFaceFilter,001,18,
17,./img/gray_JasonSegel(Marshall)6_1.png,0,4,4,16,,,None,None,1,0.733347939557,None,None,None,None,None,None,1,0.467030774442,Marshall How I met your mother,"['lshift', 'm', 'a', 'r', 's', 'h', 'a', 'l', 'l', 'space', 'lshift', 'h', 'o', 'w', 'space', 'lshift', 'i', 'space', 'm', 'e', 't', 'space', 'y', 'o', 'u', 'r', 'space', 'm', 'o', 't', 'h', 'e', 'r', 'return']","[0.2500628730667813, 0.5834999255785078, 0.6834437247525784, 0.9666050981068111, 1.1666184425957908, 1.2999773528645164, 1.3999019051807409, 1.4831952478198218, 1.6498175397900923, 1.8493827532729483, 2.0662903478296357, 2.449476998721366, 2.632717027565377, 2.749285620800947, 2.8826345868583303, 3.0825087124103447, 3.2324584139532817, 3.3657711317646317, 3.532371931407397, 3.6489578468135733, 3.8653153020204627, 4.082203649715666, 4.532010411265219, 4.681834045892174, 4.93182570558929, 5.0817738032274065, 5.198422912482783, 5.298487646083231, 5.431658257926756, 5.648182519231341, 5.73156503897917, 5.848077816328441, 5.897978823322774, 6.014716147343279]",2017_Feb_16_1655,60.0646620655,famFaceFilter,001,18,
39,./img/gray_UrsulavonderLeyen1_1.png,0,5,5,38,,,None,None,1,0.933320865646,None,None,None,None,None,None,4,0.783232265945, Ursula von der Leyen,"['space', 'lshift', 'u', 'r', 's', 'u', 'l', 'a', 'space', 'v', 'o', 'n', 'space', 'd', 'e', 'r', 'space', 'lshift', 'l', 'e', 'y', 'e', 'n', 'return']","[0.38357447507223696, 0.5502298074788996, 0.8833489660573832, 1.116689527654671, 1.599827676469431, 1.733016252044763, 1.9328361656152993, 2.0329320149648993, 2.549358887172275, 2.732684564532974, 2.799228650103032, 2.9491597463529615, 3.0824281963905378, 3.232368595286971, 3.3990438161126804, 3.44890568783012, 3.5323045674085733, 3.6321681713416183, 3.715605223853345, 3.7989133224182297, 4.015663092737668, 4.248909986294166, 4.365452275491407, 4.58203331502591]",2017_Feb_16_1655,60.0646620655,famFaceFilter,001,18,
21,./img/gray_HughLaurie(DrHouse)4_1.png,0,6,6,20,,,None,None,1,0.949895938655,None,None,None,None,None,None,1,0.616612540227,Dr House,"['lshift', 'd', 'r', 'space', 'lshift', 'h', 'o', 's', 'u', 'backspace', 'backspace', 'u', 's', 'e', 'return']","[0.16692190138201113, 0.30021216452587396, 0.5001328033176833, 0.6500436903661466, 0.7333408823797072, 1.0000564574474993, 1.1333412673157, 1.2831421264963865, 1.3831035686234827, 1.6996883933752542, 1.816373430097883, 1.9829042994897463, 2.0996470767859137, 2.432739610547287, 2.5994064910664747]",2017_Feb_16_1655,60.0646620655,famFaceFilter,001,18,
45,./img/gray_NicoleKidman7_1.png,0,7,7,44,,,None,None,1,0.883371099942,None,None,None,None,None,None,1,1.13317670668,Nicole Kidman,"['lshift', 'n', 'i', 'c', 'o', 'l', 'e', 'space', 'lshift', 'k', 'i', 'd', 'm', 'a', 'n', 'return']","[0.23358563825240708, 0.6834623300528619, 0.816810012987844, 0.9667209000363073, 1.0499856931710383, 1.216598682491167, 1.3165258010558318, 1.4499232050402497, 1.5161840410219156, 1.6163187048659893, 1.8329914877576812, 1.9497102064815408, 2.1161907132627675, 2.266129508258018, 2.349473534290155, 2.61598541344938]",2017_Feb_16_1655,60.0646620655,famFaceFilter,001,18,
42,./img/gray_NicoleKidman5_1.png,0,8,8,41,,,None,None,1,0.833350120869,None,None,None,None,None,None,1,0.633471825164,Nicole Kidman,"['lshift', 'n', 'i', 'c', 'o', 'l', 'e', 'space', 'lshift', 'k', 'i', 'd', 'm', 'a', 'n', 'return']","[0.05043189948628424, 0.30063976554811234, 0.41671980937826447, 0.5501759162798407, 0.6335083941958146, 0.8167214774402964, 0.9833575629891129, 1.1166821496954071, 1.29989844074953, 1.433163362195046, 1.6164736420723784, 1.7164119879707869, 1.8496105077574612, 1.9663863254936587, 2.066257948954444, 2.249600306924549]",2017_Feb_16_1655,60.0646620655,famFaceFilter,001,18,
58,./img/gray_GeorgeClooney3_1.png,0,9,9,57,,,None,None,1,0.89984448539,None,None,None,None,None,None,1,0.849647397568,George Clooney,"['lshift', 'g', 'e', 'o', 'r', 'g', 'e', 'space', 'lshift', 'c', 'l', 'o', 'o', 'n', 'e', 'y', 'return']","[0.10032745320495451, 0.4336240036536765, 0.583772589394357, 0.700143902337004, 0.833383482087811, 1.049978956769337, 1.199639313887019, 1.316559803835844, 1.4997186750952096, 1.7163115835282952, 1.8829069298953982, 2.0495734896321665, 2.1829445895782555, 2.3661461247065745, 2.432809540794551, 2.6825821070924576, 2.8326071921655966]",2017_Feb_16_1655,60.0646620655,famFaceFilter,001,18,
2,./img/gray_BastianSchweinsteiger1_1.png,0,10,10,1,,,None,None,1,1.14994071968,None,None,None,None,None,None,5,0.416906183116,Sebastian Schweinsteiger,"['lshift', 's', 'e', 'b', 'a', 's', 't', 'i', 'a', 'n', 'space', 'lshift', 's', 'c', 'h', 'w', 'e', 'i', 'n', 's', 't', 'e', 'i', 'g', 'e', 'r', 'return']","[0.3002282035740791, 0.4669034243997885, 0.6501655871325056, 0.7667088386697287, 0.8334765085674007, 0.9166453881953203, 1.1332440706828493, 1.2998628340610594, 1.449787835470488, 1.5331774123987998, 1.932639847665996, 2.0995877323075547, 2.166921901382011, 2.3160558569470595, 2.3660572683838836, 2.866003697963606, 2.98254759106203, 3.1158035306434613, 3.282447314933961, 3.5489871020399733, 3.7988825274442206, 3.9486827450637065, 3.9988682847688324, 4.098924036501558, 4.265391391265439, 4.315350459615729, 4.5651782002387336]",2017_Feb_16_1655,60.0646620655,famFaceFilter,001,18,
47,./img/gray_HughLaurie(DrHouse)5_3.png,0,11,11,46,,,None,None,1,0.716772224987,None,None,None,None,None,None,1,0.466867817715,Dr House,"['lshift', 'd', 'r', 'space', 'lshift', 'h', 'o', 'u', 's', 'e', 'return']","[0.2335269353352487, 0.38356388930333196, 0.5500216206382902, 0.6833134876869735, 0.8667119823257963, 0.9833591668939334, 1.1498675816219475, 1.3331489912088728, 1.4165096978504153, 1.5660439880521153, 1.749402064291644]",2017_Feb_16_1655,60.0646620655,famFaceFilter,001,18,
11,./img/gray_EmilyDeschanel6_12.png,0,12,12,10,,,None,None,2,1.20018047137,None,None,None,None,None,None,1,0.716668612738,,['return'],[0.6501989483513171],2017_Feb_16_1655,60.0646620655,famFaceFilter,001,18,
