num,pic,trials.thisRepN,trials.thisTrialN,trials.thisN,trials.thisIndex,key_resp_2.keys,key_resp_2.rt,ratingBekannt.response,ratingBekannt.rt,key_resp_5.keys,key_resp_5.rt,ratingK1.response,ratingK1.rt,ratingK2.response,ratingK2.rt,ratingK3.response,ratingK3.rt,key_resp_6.keys,key_resp_6.rt,inputText,key_resp_4.keys,key_resp_4.rt,date,frameRate,expName,session,participant,
,,,,,,space,13.8429519596,,,,,,,,,,,,,,,,2017_Feb_20_1110,60.0000577398,famFaceFilter,001,19,
69,./img/smoo15_BritneySpears5_1.png,0,0,0,68,,,None,None,1,2.74930046792,None,None,None,None,None,None,2,1.33323357202,Britney Spears,"['lshift', 'b', 'r', 'i', 'n', 'backspace', 't', 'e', 'n', 'backspace', 'backspace', 'backspace', 't', 'n', 'e', 'y', 'space', 'lshift', 's', 'p', 'e', 'a', 'r', 't', 'backspace', 's', 'return']","[0.6168017293675803, 0.7501162010767075, 1.00005741888981, 1.1499617795498125, 1.5330015868785267, 1.8663926598774196, 2.016118348350574, 2.116239890346151, 2.2661301368661952, 2.7324071249468034, 2.8825867113446293, 3.282383531877713, 4.198467268506647, 4.414991655015001, 4.565201073573007, 4.815017509554309, 5.015015841519016, 5.231467732669444, 5.448079691003841, 5.697967018461895, 5.8147692289931, 6.247843664082211, 6.4644710196607775, 6.897391482309104, 7.2638337020653125, 7.84727666056915]",2017_Feb_20_1110,60.0000577398,famFaceFilter,001,19,
40,./img/smoo15_NeilPatrickHarris(Barney)2_2.png,0,1,1,39,,,None,None,2,7.29750972031,None,None,None,None,None,None,1,1.71628492729,,['return'],[0.7833655873519092],2017_Feb_20_1110,60.0000577398,famFaceFilter,001,19,
47,./img/smoo15_BarackObama4_1.png,0,2,2,46,,,None,None,1,1.43308117138,None,None,None,None,None,None,4,1.16630819958,Barack Obama,"['lshift', 'b', 'a', 'r', 'a', 'c', 'k', 'space', 'lshift', 'o', 'b', 'a', 'm', 'a', 'return']","[0.6166875331400661, 0.7501222958189828, 0.9499932797443762, 1.1161260148946894, 1.232969605519429, 1.5498432849253732, 1.733117964381563, 1.9496526157190601, 2.0329193078550816, 2.1494960129157334, 2.3493188804541205, 2.449307941994448, 2.599213585758662, 2.6994692120879336, 3.0491281150152645]",2017_Feb_20_1110,60.0000577398,famFaceFilter,001,19,
4,./img/smoo15_UrsulavonderLeyen1_1.png,0,3,3,3,,,None,None,1,6.89769878564,None,None,None,None,None,None,4,1.28290383042,Von der Leyen,"['lshift', 'v', 'o', 'n', 'space', 'd', 'e', 'r', 'space', 'lshift', 'l', 'e', 'y', 'e', 'n', 'return']","[0.6001162491920695, 0.9333742001854262, 1.0332311020474663, 1.183368987576614, 1.3498019689859575, 1.5163783372317994, 1.599687692565567, 1.7163455539330243, 1.8663987546187855, 2.1662645740525477, 2.3160701357292055, 2.515906796631498, 2.7825482503112653, 2.9159345758262134, 3.032470863121489, 3.482225325194122]",2017_Feb_20_1110,60.0000577398,famFaceFilter,001,19,
34,./img/smoo15_EmilyDeschanel5_1.png,0,4,4,33,,,None,None,2,2.28318386779,None,None,None,None,None,None,3,1.0,,['return'],[0.8000039134658437],2017_Feb_20_1110,60.0000577398,famFaceFilter,001,19,
57,./img/smoo15_UrsulavonderLeyen5_1.png,0,5,5,56,,,None,None,1,2.33298593301,None,None,None,None,None,None,4,0.866668527167,Von der Leyen,"['lshift', 'v', 'o', 'n', 'space', 'd', 'e', 'r', 'space', 'lshift', 'l', 'e', 'y', 'e', 'n', 'return']","[0.5335526799062791, 0.7666598982950745, 0.9500494155299748, 1.8328436688934744, 1.9661876519876387, 2.1495159010228235, 2.2494475436742505, 2.3659366769088592, 2.499480503400264, 2.8157777484802864, 2.9659188417681435, 3.199090856892326, 3.482276007789551, 3.6155648174253656, 3.7322403214684527, 5.248154495947347]",2017_Feb_20_1110,60.0000577398,famFaceFilter,001,19,
70,./img/smoo15_JasonSegel(Marshall)7_1.png,0,6,6,69,,,None,None,2,1.76631410185,None,None,None,None,None,None,1,1.48324571339,,['return'],[0.6834843065189489],2017_Feb_20_1110,60.0000577398,famFaceFilter,001,19,
16,./img/smoo15_WillSmith4_1.png,0,7,7,15,,,None,None,2,2.39943819306,None,None,None,None,None,None,2,0.883355611221,,['return'],[0.6497280942921861],2017_Feb_20_1110,60.0000577398,famFaceFilter,001,19,
68,./img/smoo15_AlysonHannigan(Lily)8_3.png,0,8,8,67,,,None,None,2,2.93275414034,None,None,None,None,None,None,1,1.64925591214,,['return'],[0.5501573245492182],2017_Feb_20_1110,60.0000577398,famFaceFilter,001,19,
50,./img/smoo15_OmarEpps(DrEricForeman)2_2.png,0,9,9,49,,,None,None,2,1.38346804318,None,None,None,None,None,None,2,0.91658029775,,['return'],[0.5335581330973582],2017_Feb_20_1110,60.0000577398,famFaceFilter,001,19,
43,./img/smoo15_JoachimLoew1_1.png,0,10,10,42,,,None,None,1,1.06667969017,None,None,None,None,None,None,5,1.46639984526,Jogi Löw,"['lshift', 'j', 'o', 'g', 'i', 'space', 'lshift', 'l', u'\xf6', 'w', 'return']","[0.5835568339543897, 0.7667314313239331, 0.9168125395153766, 1.1333539271472546, 1.2666847584278003, 1.4664697744074147, 1.7330047304822074, 1.93291645294903, 2.099638132685868, 2.2162687281006583, 2.665940429987131]",2017_Feb_20_1110,60.0000577398,famFaceFilter,001,19,
63,./img/smoo15_RobertSeanLeonard(Wilson)8_1.png,0,11,11,62,,,None,None,2,2.44912317507,None,None,None,None,None,None,1,1.24984338116,,['return'],[0.566943849137715],2017_Feb_20_1110,60.0000577398,famFaceFilter,001,19,
8,./img/smoo15_AngelaMerkel4_1.png,0,12,12,7,,,None,None,1,1.34983148037,None,None,None,None,None,None,4,1.6663478154,Angela Merkel,"['lshift', 'a', 'n', 'g', 'e', 'l', 'a', 'space', 'lshift', 'm', 'a', 'r', 'backspace', 'backspace', 'e', 'r', 'k', 'e', 'l', 'return']","[0.5335392073175171, 0.783529183070641, 0.949966976118958, 1.1165677233348106, 1.2499550111770077, 1.4331709886409953, 1.5831109554274008, 1.7663840310051455, 1.8827650627545154, 1.9828760191448964, 2.1495515071492264, 2.266187234979043, 2.9326989668770693, 3.0491608341581014, 3.132444848194609, 3.232465987327487, 3.8655284895530713, 3.948771123495135, 4.032089139778691, 4.498497325210337]",2017_Feb_20_1110,60.0000577398,famFaceFilter,001,19,
49,./img/smoo15_TomCruise5_1.png,0,13,13,48,,,None,None,1,1.7996132084,None,None,None,None,None,None,1,0.500136490153,Tom Hanks,"['lshift', 't', 'o', 'm', 'space', 'lshift', 'h', 'a', 'n', 'k', 's', 'return']","[0.4502526270753151, 0.7667311105487897, 0.9001726095220874, 1.0332426499817302, 1.1833654590418519, 1.2999027086643764, 1.5664691007787042, 1.6331404507736806, 1.69949423261005, 1.7830810591121917, 1.8996773315038809, 2.2493750483172334]",2017_Feb_20_1110,60.0000577398,famFaceFilter,001,19,
55,./img/smoo15_MariskaHargitay(Liv)4_4.png,0,14,14,54,,,None,None,1,2.61628560092,None,None,None,None,None,None,3,1.54977207267,,['return'],[0.6334519241900125],2017_Feb_20_1110,60.0000577398,famFaceFilter,001,19,
1,./img/smoo15_Ice-T(OdafinFinTutuola)6_1.png,0,15,15,0,,,None,None,2,1.8496433453,None,None,None,None,None,None,1,1.51617977694,,['return'],[0.9501180615761768],2017_Feb_20_1110,60.0000577398,famFaceFilter,001,19,
44,./img/smoo15_GuentherJauch2_1.png,0,16,16,43,,,None,None,1,1.46670554471,None,None,None,None,None,None,3,1.483160387,Günther Jauch,"['lshift', 'g', u'\xfc', 'n', 't', 'h', 'e', 'r', 'space', 'lshift', 'j', 'a', 'u', 'c', 'h', 'return']","[0.6167539337548078, 0.8501264338283363, 1.28351138000653, 1.5331501061282324, 1.7496449812515493, 1.9330707461658676, 2.0659720584926617, 2.1661587179996786, 2.316115365134465, 2.5825665986940294, 2.832571971690413, 2.882586390567667, 3.015543517904007, 3.1325067579464303, 3.2157602982697426, 3.6657393034856796]",2017_Feb_20_1110,60.0000577398,famFaceFilter,001,19,
45,./img/smoo15_RobertSeanLeonard(Wilson)2_6.png,0,17,17,44,,,None,None,1,2.01654048946,None,None,None,None,None,None,1,1.43293778455,Sherlock,"['lshift', 's', 'h', 'e', 'r', 'l', 'o', 'c', 'k', 'return']","[0.43353891861897864, 0.6335420622235688, 0.8334415952058407, 1.0000099440530903, 1.0499743218879303, 1.1832637730749411, 1.2997917201955715, 1.416505717349537, 1.4831315171641108, 1.7494868387238967]",2017_Feb_20_1110,60.0000577398,famFaceFilter,001,19,
54,./img/smoo15_LisaEdelstein(DrLisaCuddy)6_3.png,0,18,18,53,,,None,None,2,1.40001206117,None,None,None,None,None,None,3,1.83293124072,,['return'],[0.7666634268298367],2017_Feb_20_1110,60.0000577398,famFaceFilter,001,19,
10,./img/smoo15_KatjaBurkard5_3.png,0,19,19,9,,,None,None,1,1.43279760547,None,None,None,None,None,None,3,1.11646250883,Arbeitet bei RTL,"['lshift', 'd', 'i', 'e', 'backspace', 'backspace', 'backspace', 'lshift', 'a', 'r', 'b', 'e', 'i', 't', 'e', 't', 'space', 'b', 'e', 'i', 'space', 'lshift', 'r', 't', 'l', 'backspace', 'backspace', 'lshift', 't', 'l', 'backspace', 'lshift', 'l', 'return']","[0.5835398328308656, 0.8499034945652966, 0.9835563848682796, 1.0835021416605741, 2.349596672399457, 2.499415385888824, 2.899213489526119, 3.0492897860776793, 3.199067119474421, 3.4990144159910415, 3.6323304915795234, 3.732159806713753, 3.832390733296961, 4.348836112696517, 4.448553797810746, 4.515297643163649, 4.748452336387345, 5.198344732105397, 5.331326559187801, 5.4648710272304015, 5.664669836574831, 5.8146357862106015, 6.097966248599732, 6.347983169529471, 6.631050595665329, 6.997476776625263, 7.130686354609679, 7.4306285187112735, 7.647271913085206, 8.297092070066356, 8.94684550565671, 9.130029726304201, 9.246745648113574, 9.713199704501676]",2017_Feb_20_1110,60.0000577398,famFaceFilter,001,19,
59,./img/smoo15_JoshRadnor(Ted)1_2.png,0,20,20,58,,,None,None,2,2.26586228897,None,None,None,None,None,None,1,3.69867176315,,['return'],[0.5835966101685699],2017_Feb_20_1110,60.0000577398,famFaceFilter,001,19,
71,./img/smoo15_AngelaMerkel1_1.png,0,21,21,70,,,None,None,1,1.0167743351,None,None,None,None,None,None,4,0.849995236477,Angela Merkel,"['lshift', 'a', 'n', 'g', 'e', 'l', 'a', 'space', 'lshift', 'm', 'e', 'r', 'k', 'e', 'l', 'return']","[0.5002564603473729, 0.6335131923906374, 0.8667140773477513, 1.0499666232663003, 1.1833699499047725, 1.633093938266029, 1.7331654392182827, 1.8663387695232814, 1.9828150717212338, 2.0495201031872057, 2.282777123929918, 2.3994997820327626, 2.5493810468269658, 2.6826801212919236, 2.899397294127084, 3.3656781315194166]",2017_Feb_20_1110,60.0000577398,famFaceFilter,001,19,
26,./img/smoo15_TomCruise4_1.png,0,22,22,25,,,None,None,1,2.88305728962,None,None,None,None,None,None,1,0.733175062495,Tom Hanks,"['lshift', 't', 'o', 'm', 'space', 'lshift', 'h', 'a', 'n', 'k', 's', 'return']","[0.466869140426752, 0.7501165218527603, 0.9000629041574939, 1.0666248374873248, 1.2165856547089788, 1.4332011415772286, 1.683045805839356, 1.766262777708107, 1.8329623559839092, 1.9329777211505643, 2.0161356702501507, 2.382845417122553]",2017_Feb_20_1110,60.0000577398,famFaceFilter,001,19,
24,./img/smoo15_BastianSchweinsteiger1_1.png,0,23,23,23,,,None,None,2,3.18208267614,None,None,None,None,None,None,5,1.19959704129,Bastian Schweinsteiger,"['lshift', 'b', 'a', 's', 't', 'i', 'a', 'n', 'space', 'lshift', 's', 'c', 'h', 'w', 'e', 'i', 'n', 's', 't', 'e', 'i', 'g', 'e', 'r', 'return']","[1.3330840904445722, 1.5164999113058002, 1.616491859830603, 1.6830069919533344, 1.9329203022607544, 2.04952395249893, 2.18289167301009, 2.2324400044781214, 2.36618848600574, 2.416041554595722, 2.532717700190915, 2.749201989709036, 2.7989851291495143, 2.9325273517606547, 3.0157978932084006, 3.0658212938114957, 3.1490905521550303, 3.515615211322256, 4.015129396194425, 4.115465858055359, 4.232030052854498, 4.4317730471884715, 4.565306929625876, 4.64854186494631, 5.081750063593972]",2017_Feb_20_1110,60.0000577398,famFaceFilter,001,19,
27,./img/smoo15_JasonSegel(Marshall)9_1.png,0,24,24,26,,,None,None,2,1.84979731774,None,None,None,None,None,None,4,1.16660972894,,['return'],[0.6668514335960936],2017_Feb_20_1110,60.0000577398,famFaceFilter,001,19,
19,./img/smoo15_NicoleKidman7_1.png,0,25,25,18,,,None,None,2,9.94669891106,None,None,None,None,None,None,1,1.4000742917,,['return'],[0.7001867878170742],2017_Feb_20_1110,60.0000577398,famFaceFilter,001,19,
23,./img/smoo15_JoachimLoew4_1.png,0,26,26,22,,,None,None,1,1.18353643261,None,None,None,None,None,None,5,1.83271054689,Jogi Löw,"['lshift', 'j', 'o', 'g', 'i', 'space', 'lshift', 'l', u'\xf6', 'w', 'return']","[0.616751688324257, 1.3165342984839299, 1.5166314294319818, 1.7163532525555638, 1.8495746992484783, 2.0495733519892383, 2.3161099119433857, 2.5159767257828207, 2.6827000093990137, 2.7659012632475424, 3.1991530874202]",2017_Feb_20_1110,60.0000577398,famFaceFilter,001,19,
72,./img/smoo15_HughLaurie(DrHouse)2_1.png,0,27,27,71,,,None,None,1,2.11623315405,None,None,None,None,None,None,1,0.483542751891,Dr House,"['lshift', 'd', 'r', 'space', 'lshift', 'h', 'o', 'u', 's', 'e', 'return']","[0.5168351221400371, 0.883463712705634, 1.2333757078322378, 1.599738375160996, 1.7663856348845002, 1.9163733972827686, 2.249449468329658, 2.416097048829215, 2.5660453557902656, 2.665992074909809, 3.0323836120714986]",2017_Feb_20_1110,60.0000577398,famFaceFilter,001,19,
35,./img/smoo15_KatjaBurkard1_1.png,0,28,28,34,,,None,None,1,1.55009092393,None,None,None,None,None,None,3,0.93329208155,Arbeitet bei RTL,"['lshift', 'a', 'r', 'b', 'e', 'i', 't', 'e', 't', 'space', 'b', 'e', 'i', 'space', 'lshift', 'r', 't', 'backspace', 't', 'backspace', 'lshift', 't', 'lshift', 'l', 'return']","[0.36683420792815014, 0.5502490664612196, 0.8167833809839067, 0.9838784438898074, 1.1333244157622175, 1.916335545723996, 2.1495579226675545, 2.266221237226091, 2.2990889001584947, 2.532783780029604, 2.6993893388835204, 2.782641596103531, 2.9159169331505836, 3.215953405372602, 3.2988184860587353, 3.432352047720997, 3.898897204469904, 4.482035746626025, 4.6985777758100085, 5.431242804595058, 5.781342774409495, 6.164650429630456, 6.664402630233781, 7.014232185949368, 7.6308222032103]",2017_Feb_20_1110,60.0000577398,famFaceFilter,001,19,
6,./img/smoo15_AlysonHannigan(Lily)1_1.png,0,29,29,5,,,None,None,2,2.03291994941,None,None,None,None,None,None,1,0.849993311822,,['return'],[0.750069367793003],2017_Feb_20_1110,60.0000577398,famFaceFilter,001,19,
18,./img/smoo15_HughLaurie(DrHouse)4_1.png,0,30,30,17,,,None,None,1,1.54976116629,None,None,None,None,None,None,1,0.766657332088,Dr House,"['lshift', 'd', 'r', 'space', 'lshift', 'h', 'o', 'u', 's', 'e', 'return']","[0.6501572924717038, 0.8834553725318983, 1.0665728717876846, 1.4164412413902028, 1.666455275336375, 1.8162743096017948, 2.166083014883043, 2.349471569790694, 2.4659857235465097, 2.5658795146400735, 2.89888244877784]",2017_Feb_20_1110,60.0000577398,famFaceFilter,001,19,
20,./img/smoo15_NicoleKidman5_1.png,0,31,31,19,,,None,None,2,3.18258052037,None,None,None,None,None,None,2,0.683578614639,,['return'],[0.6668812657562739],2017_Feb_20_1110,60.0000577398,famFaceFilter,001,19,
42,./img/smoo15_OmarEpps(DrEricForeman)1_5.png,0,32,32,41,,,None,None,2,1.31677905051,None,None,None,None,None,None,2,1.68308558205,,['return'],[0.3834333993809196],2017_Feb_20_1110,60.0000577398,famFaceFilter,001,19,
52,./img/smoo15_BastianSchweinsteiger3_1.png,0,33,33,51,,,None,None,1,1.21671460663,None,None,None,None,None,None,5,0.83350575039,Bastian Schweinsteiger,"['lshift', 'b', 'lshift', 'a', 's', 't', 'i', 'a', 'n', 'space', 'backspace', 'backspace', 'backspace', 'backspace', 'backspace', 'backspace', 'backspace', 'a', 's', 't', 'i', 'a', 'n', 'space', 'lshift', 's', 'c', 'h', 'w', 'e', 'i', 'n', 's', 't', 'e', 'i', 'g', 'e', 'r', 'return']","[0.5169214108618689, 0.7501777900524758, 0.8332943590585273, 1.1165487975549695, 1.2665141056395441, 1.5332007887236614, 1.6497633796434457, 1.7830284518613553, 1.8329655637426185, 1.9996477880413295, 2.2993397469263073, 2.432810757284642, 2.5826326785327183, 2.699192703245899, 2.8491926551296274, 2.999243931159981, 3.632199615004538, 3.748984182860113, 3.8486608086568594, 4.298594263692394, 4.465220352205506, 4.615144600971689, 4.665120526738974, 4.798411261031106, 4.881777393701668, 4.965099259296039, 5.164731265162118, 5.28163035002035, 5.448146091617673, 5.5313505532258205, 5.614845317039908, 5.714788828400742, 6.031215987728501, 6.197771184763042, 6.331020218184676, 6.414426447845472, 6.5976857300584015, 6.71424543399462, 6.814284857355233, 7.181279774019458]",2017_Feb_20_1110,60.0000577398,famFaceFilter,001,19,
64,./img/smoo15_JoachimLoew8_1.png,0,34,34,63,,,None,None,1,1.18315406771,None,None,None,None,None,None,5,0.833327719754,Jogi Löw,"['lshift', 'j', 'o', 'g', 'i', 'space', 'lshift', 'l', u'\xf6', 'w', 'return']","[0.4501955289606485, 0.7335564650620654, 0.9167474220039367, 1.1333228118828629, 1.2502376147613177, 1.4499719481455031, 1.699835858962615, 1.883001474606317, 2.049629166998784, 2.166331936995448, 2.4663122734318677]",2017_Feb_20_1110,60.0000577398,famFaceFilter,001,19,
48,./img/smoo15_JoshRadnor(Ted)6_2.png,0,35,35,47,,,None,None,2,2.28281657937,None,None,None,None,None,None,1,1.34961239042,,['return'],[0.616946399306471],2017_Feb_20_1110,60.0000577398,famFaceFilter,001,19,
60,./img/smoo15_LeonardoDiCaprio2_1.png,0,36,36,59,,,None,None,1,1.21658533393,None,None,None,None,None,None,1,0.734815831318,Leonardo Di Caprio,"['lshift', 'l', 'e', 'o', 'n', 'a', 'r', 'd', 'o', 'space', 'lshift', 'd', 'i', 'space', 'lshift', 'c', 'a', 'p', 'r', 'i', 'o', 'return']","[0.7670082609420206, 1.0501424084686732, 1.2002264036427732, 1.30014040361948, 1.4333227156503199, 1.550253236548997, 1.650112063067354, 1.8832882482774949, 2.0165863604152037, 2.3997820648410197, 2.5827539318306663, 2.6992315171319206, 2.8995159812166094, 3.082873420859869, 3.2827312529734627, 3.449180593955134, 3.532626279054057, 3.749138155300898, 4.432148996565047, 4.682113631020002, 4.832129942475149, 5.231859079289279]",2017_Feb_20_1110,60.0000577398,famFaceFilter,001,19,
61,./img/smoo15_OmarEpps(DrEricForeman)3_1.png,0,37,37,60,,,None,None,2,1.03327665223,None,None,None,None,None,None,2,2.11615648861,,['return'],[0.5167177181547231],2017_Feb_20_1110,60.0000577398,famFaceFilter,001,19,
7,./img/smoo15_LisaEdelstein(DrLisaCuddy)2_2.png,0,38,38,6,,,None,None,2,2.16631397354,None,None,None,None,None,None,3,1.84966964892,,['return'],[0.3834147943780408],2017_Feb_20_1110,60.0000577398,famFaceFilter,001,19,
38,./img/smoo15_AlysonHannigan(Lily)5_4.png,0,39,39,37,,,None,None,2,1.33371441512,None,None,None,None,None,None,1,1.03321025161,,['return'],[0.5002388176717432],2017_Feb_20_1110,60.0000577398,famFaceFilter,001,19,
33,./img/smoo15_Ice-T(OdafinFinTutuola)7_1.png,0,40,40,32,,,None,None,2,0.750208584541,None,None,None,None,None,None,1,1.382905723,,['return'],[0.7168629654897813],2017_Feb_20_1110,60.0000577398,famFaceFilter,001,19,
53,./img/smoo15_GuentherJauch4_1.png,0,41,41,52,,,None,None,1,0.983904105964,None,None,None,None,None,None,3,1.0332917287,Günther Jauch,"['lshift', 'g', u'\xfc', 'n', 't', 'h', 'e', 'r', 'space', 'lshift', 'j', 'a', 'u', 'c', 'h', 'return']","[0.8999660298304661, 1.2665891672049838, 1.5331571631986662, 1.7830159416007518, 1.9163092420994872, 1.9829164369111822, 2.0996435858769473, 2.199411312034499, 2.282730611421357, 2.482710979935291, 2.7327003141354, 2.8158755851354726, 2.9991890784776842, 3.1823832431791743, 3.2824781607732803, 3.76553557870011]",2017_Feb_20_1110,60.0000577398,famFaceFilter,001,19,
56,./img/smoo15_MariskaHargitay(Liv)6_5.png,0,42,42,55,,,None,None,2,1.38327012444,None,None,None,None,None,None,1,2.09947293309,,['return'],[0.5502189135258959],2017_Feb_20_1110,60.0000577398,famFaceFilter,001,19,
9,./img/smoo15_EmilyDeschanel6_12.png,0,43,43,8,,,None,None,2,1.93291741528,None,None,None,None,None,None,1,1.34966243146,,['return'],[0.4334895191286705],2017_Feb_20_1110,60.0000577398,famFaceFilter,001,19,
41,./img/smoo15_AngelaMerkel3_1.png,0,44,44,40,,,None,None,1,1.05043655999,None,None,None,None,None,None,4,1.23318901625,Angela Merkel,"['lshift', 'a', 'n', 'g', 'e', 'l', 'a', 'space', 'lshift', 'm', 'e', 'r', 'k', 'e', 'l', 'return']","[0.41677773532774154, 0.5501640608435991, 0.7667619050362191, 0.9167544790743705, 1.0832118394537247, 1.2664720839939037, 1.449839467691163, 1.5998025303442773, 1.7330031266028527, 1.8329851310736558, 2.0661635617161664, 2.1829548658661224, 2.349440775302355, 2.4326904663148525, 2.515982499749043, 2.9492275876273197]",2017_Feb_20_1110,60.0000577398,famFaceFilter,001,19,
46,./img/smoo15_NeilPatrickHarris(Barney)1_1.png,0,45,45,45,,,None,None,1,2.1991386525,None,None,None,None,None,None,1,0.816688110537,Barney Stinson,"['lshift', 'b', 'a', 'r', 'n', 'e', 'y', 'space', 'lshift', 's', 't', 'i', 'n', 's', 'o', 'n', 'return']","[1.0000426631968367, 1.283314102816803, 1.4165374741651249, 1.5328017434812864, 1.6330246506668118, 1.7997562744567404, 2.0826857669480887, 2.2494440151394883, 2.3992486144879877, 2.5657309953903678, 2.899152542100637, 3.115745895431246, 3.432337612804986, 3.648841148878091, 3.765726440371509, 3.9655072862642555, 4.398490620993471]",2017_Feb_20_1110,60.0000577398,famFaceFilter,001,19,
65,./img/smoo15_UrsulavonderLeyen4_1.png,0,46,46,64,,,None,None,1,1.3499216184,None,None,None,None,None,None,4,1.08326637136,Von der Leyen,"['lshift', 'v', 'o', 'm', 'backspace', 'n', 'space', 'd', 'e', 'r', 'space', 'lshift', 'l', 'e', 'y', 'e', 'm', 'backspace', 'n', 'return']","[0.38353444379572466, 0.63324085363638, 0.8000247639010922, 0.9500458869952126, 1.5330432877481144, 1.8163118403845147, 1.9328012943951762, 2.082884968794133, 2.1827906285961944, 2.2827998990205742, 2.4826455416477984, 2.682643552837362, 2.9158210211517144, 3.0824095788830164, 3.3156492777252424, 3.4485544393628516, 3.5656135914041442, 4.232024599664328, 4.2986070947299595, 4.531922175913678]",2017_Feb_20_1110,60.0000577398,famFaceFilter,001,19,
22,./img/smoo15_WillSmith1_1.png,0,47,47,21,,,None,None,1,1.56633726188,None,None,None,None,None,None,1,1.59972682723,Will Smith,"['lshift', 'w', 'i', 'l', 'l', 'space', 'lshift', 's', 'm', 'i', 't', 'h', 'return']","[0.516774174715465, 0.7168802873893583, 0.8830492702190895, 1.0332952572316572, 1.149992253261189, 1.299823156236016, 1.4665737058057857, 1.516276009714602, 1.649922163723204, 1.7662817034870386, 1.9663855707294715, 2.082885289569276, 2.466082277098394]",2017_Feb_20_1110,60.0000577398,famFaceFilter,001,19,
12,./img/smoo15_MariskaHargitay(Liv)8_8.png,0,48,48,11,,,None,None,2,1.90014823055,None,None,None,None,None,None,1,1.53252427231,,['return'],[0.7333697734775342],2017_Feb_20_1110,60.0000577398,famFaceFilter,001,19,
17,./img/smoo15_GeorgeClooney11_1.png,0,49,49,16,,,None,None,1,1.65010885531,None,None,None,None,None,None,1,0.600078397634,George Clooney,"['lshift', 'g', 'e', 'o', 'r', 'g', 'h', 'e', 'backspace', 'backspace', 'e', 'space', 'lshift', 'c', 'l', 'o', 'o', 'n', 'e', 'y', 'return']","[0.8833687630340137, 1.3500162473001183, 1.4663071410177508, 1.9662325606168451, 2.1995081863624364, 2.366339250686906, 2.5161348683104734, 2.9167294585531636, 3.0491967610614665, 3.1489872623096744, 3.4488755360571304, 3.4989018236437914, 3.7322088854289177, 3.9654556413415776, 4.132141073399907, 4.281733639866616, 4.44852556952992, 4.565315911351718, 4.748388501980116, 5.14815003716194]",2017_Feb_20_1110,60.0000577398,famFaceFilter,001,19,
30,./img/smoo15_KatjaBurkard4_1.png,0,50,50,29,,,None,None,1,1.38321430943,None,None,None,None,None,None,3,0.849636609001,Arbeitet bei rtl,"['lshift', 'a', 'r', 'b', 'e', 'i', 't', 'e', 't', 'space', 'b', 'e', 'i', 'space', 'r', 't', 'l', 'return']","[0.3004711235917057, 0.5170490796772356, 0.8168282896131132, 0.9662046531111628, 1.0996695687263127, 1.2168573519111305, 1.4993454567384106, 1.6165925834684458, 1.7331615899065582, 1.8659297802269066, 2.0322540186007245, 2.1321449227107223, 2.248882978057736, 2.41544074129979, 2.666099855618995, 2.8324096590758927, 2.999311935654987, 3.4491385723094936]",2017_Feb_20_1110,60.0000577398,famFaceFilter,001,19,
36,./img/smoo15_BastianSchweinsteiger6_2.png,0,51,51,35,,,None,None,1,1.34989980564,None,None,None,None,None,None,5,0.950016375611,Bastian Schweinsteiger,"['lshift', 'b', 'a', 's', 't', 'i', 'a', 'n', 'space', 'lshift', 's', 'c', 'h', 'w', 'e', 'i', 'n', 's', 't', 'e', 'i', 'g', 'e', 'r', 'return']","[0.4835222222336597, 0.6666871963261656, 0.7501838847956606, 0.8501748709923049, 1.1164830384923334, 1.250054772488511, 1.3998843923591267, 1.4663013670506189, 1.6162868840183364, 1.6830060296251759, 1.7996991763438928, 1.982996310114686, 2.0495473691407824, 2.215911062951818, 2.266219954122789, 2.3660348343400983, 2.394672746012475, 2.6324074778003705, 2.8324901738324115, 2.9325793174593855, 2.9825940571136016, 3.1491210258673163, 3.2325176322501648, 3.3489618568564765, 3.6822345635409874]",2017_Feb_20_1110,60.0000577398,famFaceFilter,001,19,
66,./img/smoo15_NicoleKidman3_1.png,0,52,52,65,,,None,None,2,3.14919897442,None,None,None,None,None,None,1,1.2164884596,,['return'],[0.5335379242142153],2017_Feb_20_1110,60.0000577398,famFaceFilter,001,19,
28,./img/smoo15_HughLaurie(DrHouse)5_3.png,0,53,53,27,,,None,None,1,1.23334780033,None,None,None,None,None,None,1,1.18315567159,Dr House,"['lshift', 'd', 'r', 'space', 'lshift', 'lshift', 'h', 'o', 'u', 's', 'e', 'return']","[0.6005861859130164, 1.2335351334631923, 1.9498547045477608, 2.29964255939376, 2.466384768789794, 2.9828744152655418, 3.2662128970523554, 3.499441689514242, 3.6324591227230485, 3.7325553234204563, 3.865550623090712, 4.132344766107963]",2017_Feb_20_1110,60.0000577398,famFaceFilter,001,19,
67,./img/smoo15_GeorgeClooney4_2.png,0,54,54,66,,,None,None,2,3.84848791044,None,None,None,None,None,None,1,0.816724678991,,['return'],[0.5169560546610228],2017_Feb_20_1110,60.0000577398,famFaceFilter,001,19,
11,./img/smoo15_LeonardoDiCaprio3_1.png,0,55,55,10,,,None,None,1,1.1503739766,None,None,None,None,None,None,1,0.516888050166,Leonardo Di Caprio,"['lshift', 'l', 'e', 'o', 'n', 'a', 'r', 'd', 'o', 'space', 'lshift', 'd', 'i', 'space', 'lshift', 'c', 'a', 'p', 'r', 'i', 'o', 'return']","[0.7501511656519142, 1.1334033266384722, 1.2498956676326998, 1.350027153681367, 1.5165541224359913, 1.5829781541979173, 1.6998785221594517, 1.933143562299847, 1.9996805071850758, 2.332950968439036, 2.4495504485894344, 2.99941939558812, 3.1325728377860287, 3.4169480673408543, 3.515717538840363, 3.732319873896813, 3.8324074136444324, 4.015592596620081, 4.148848366336097, 4.315504928561495, 4.448679221194652, 4.79838527818174]",2017_Feb_20_1110,60.0000577398,famFaceFilter,001,19,
39,./img/smoo15_BarackObama2_1.png,0,56,56,38,,,None,None,1,1.18331221024,None,None,None,None,None,None,4,0.833160916277,Barack Obama,"['lshift', 'b', 'a', 'r', 'a', 'c', 'k', 'space', 'lshift', 'o', 'b', 'a', 'm', 'a', 'return']","[0.8167003000216937, 1.2325846744179216, 1.4657849178220204, 1.5325528213688813, 1.6990031246787112, 1.8489844715586514, 1.9323576612996476, 2.0995627503461947, 2.3992838998401567, 2.5826917013027924, 2.815867244961737, 2.9158370599479895, 3.0158787287391533, 3.1153818147640777, 3.3490600142877156]",2017_Feb_20_1110,60.0000577398,famFaceFilter,001,19,
13,./img/smoo15_GeorgeClooney3_1.png,0,57,57,12,,,None,None,2,1.84961158848,None,None,None,None,None,None,1,0.833237581722,,['return'],[0.7169216674828931],2017_Feb_20_1110,60.0000577398,famFaceFilter,001,19,
51,./img/smoo15_LeonardoDiCaprio1_1.png,0,58,58,50,,,None,None,1,1.13313772418,None,None,None,None,None,None,1,0.800104957881,Leonardo Di Caprio,"['lshift', 'l', 'e', 'o', 'n', 'a', 'r', 'd', 'o', 'space', 'lshift', 'd', 'i', 'space', 'lshift', 'c', 'a', 'p', 'r', 'i', 'o', 'return']","[0.6501717273877148, 0.8666983593266195, 1.0166928580201784, 1.0832108771264757, 1.2166738680853086, 1.3665612276217871, 1.466205775826893, 1.6831413970621725, 1.7829251620150899, 2.099495066626332, 2.2658924419092727, 2.432855665912939, 2.58278857562982, 2.782508474097085, 2.9823987045783724, 3.115838278895353, 3.232462779567868, 3.432416523680331, 3.6155725160469956, 4.1487168482090055, 4.315305726715451, 4.681556122473012]",2017_Feb_20_1110,60.0000577398,famFaceFilter,001,19,
58,./img/smoo15_EmilyDeschanel3_1.png,0,59,59,57,,,None,None,2,2.63271029027,None,None,None,None,None,None,1,0.966581885592,,['return'],[0.3835591435408787],2017_Feb_20_1110,60.0000577398,famFaceFilter,001,19,
29,./img/smoo15_GuentherJauch3_1.png,0,60,60,28,,,None,None,1,1.11712330723,None,None,None,None,None,None,3,2.21615164489,Günther Jauch,"['lshift', 'g', u'\xfc', 'n', 't', 'h', 'e', 'r', 'space', 'lshift', 'j', 'a', 'u', 'c', 'h', 'return']","[0.5168251780869468, 0.9499217467146082, 1.183191277717924, 1.433028243357512, 1.5663613200704276, 1.6663773267882789, 1.749674171861443, 1.882883108293754, 1.9995922938078365, 2.182874351110513, 2.5659356504265816, 2.6659830931848774, 2.7993059050677402, 2.9323951920823674, 3.0156679789615737, 3.399000333927688]",2017_Feb_20_1110,60.0000577398,famFaceFilter,001,19,
3,./img/smoo15_JoshRadnor(Ted)3_1.png,0,61,61,2,,,None,None,2,2.51658780391,None,None,None,None,None,None,1,0.86670445407,,['return'],[0.4502827800106388],2017_Feb_20_1110,60.0000577398,famFaceFilter,001,19,
2,./img/smoo15_WillSmith5_1.png,0,62,62,1,,,None,None,1,1.1833327399,None,None,None,None,None,None,1,1.26632965949,Will Smith,"['lshift', 'w', 'i', 'l', 'l', 'space', 'lshift', 'm', 'backspace', 'lshift', 's', 'm', 'i', 'o', 'backspace', 't', 'h', 'return']","[0.4169236883717531, 0.6502727718025199, 0.8166791288113018, 0.9999451473186127, 1.0999585878289508, 1.3831873642520804, 1.5327542686454763, 1.716331119017923, 2.199560152061167, 2.3327921843592776, 2.416014288643055, 2.549393877863622, 2.8326608266206676, 3.3157131121333805, 3.665665204249308, 3.782217530339949, 4.16532437983642]",2017_Feb_20_1110,60.0000577398,famFaceFilter,001,19,
25,./img/smoo15_JasonSegel(Marshall)6_1.png,0,63,63,24,,,None,None,2,1.39970283319,None,None,None,None,None,None,3,1.76634617945,,['return'],[0.5669021482690368],2017_Feb_20_1110,60.0000577398,famFaceFilter,001,19,
62,./img/smoo15_RobertSeanLeonard(Wilson)1_1.png,0,64,64,61,,,None,None,2,2.33283677221,None,None,None,None,None,None,1,1.29982347701,,['return'],[0.6335629126579079],2017_Feb_20_1110,60.0000577398,famFaceFilter,001,19,
5,./img/smoo15_BarackObama1_3.png,0,65,65,4,,,None,None,1,1.91651902955,None,None,None,None,None,None,4,0.966641229136,Barack Obama,"['lshift', 'b', 'r', 'a', 'a', 'c', 'k', 'backspace', 'backspace', 'backspace', 'backspace', 'backspace', 'a', 'r', 'a', 'c', 'k', 'space', 'lshift', 'o', 'b', 'a', 'm', 'a', 'return']","[0.5169807544070864, 0.7667561310709061, 1.0831152859027497, 1.2499383308295364, 1.4332829394370492, 1.5329720754943992, 1.8995836649355624, 2.0494979696486553, 2.199513960328659, 2.2993535402920315, 2.916023109980415, 3.049078715524047, 3.2323880387793906, 3.399079244803943, 3.565423371284851, 4.16550433512657, 4.331770192283329, 4.431960701101161, 4.4984960421070355, 5.098316856678139, 5.164921164506268, 5.281633237004826, 5.364964725876234, 5.681308483464818]",2017_Feb_20_1110,60.0000577398,famFaceFilter,001,19,
37,./img/smoo15_Ice-T(OdafinFinTutuola)5_1.png,0,66,66,36,,,None,None,2,1.11669154284,None,None,None,None,None,None,1,2.5493534601,,['return'],[1.1666511090343192],2017_Feb_20_1110,60.0000577398,famFaceFilter,001,19,
31,./img/smoo15_BritneySpears1_1.png,0,67,67,30,,,None,None,1,2.00000384931,None,None,None,None,None,None,2,1.36643580424,Britney Spears,"['lshift', 'b', 'r', 'i', 't', 'n', 'e', 'y', 'space', 'lshift', 's', 'p', 'e', 'a', 'r', 's', 'return']","[0.5335831536185651, 0.7000809317642052, 0.9165831847340087, 1.0999329257556383, 1.5664642891397307, 1.7329768229774345, 1.9161546281075061, 2.382671556574678, 2.53281649917335, 2.6990300698553256, 2.7992751105794014, 3.065807500446681, 3.132236985399686, 3.2990600303264728, 3.4156277536612834, 3.5488880142402195, 3.832135395666228]",2017_Feb_20_1110,60.0000577398,famFaceFilter,001,19,
15,./img/smoo15_LisaEdelstein(DrLisaCuddy)1_1.png,0,68,68,14,,,None,None,2,1.44970794956,None,None,None,None,None,None,1,1.36646339097,,['return'],[0.6835045154020918],2017_Feb_20_1110,60.0000577398,famFaceFilter,001,19,
21,./img/smoo15_NeilPatrickHarris(Barney)3_7.png,0,69,69,20,,,None,None,1,1.20012054759,None,None,None,None,None,None,1,0.683535630666,Barney Stinson,"['lshift', 'b', 'a', 'r', 'n', 'e', 'y', 'space', 'lshift', 's', 't', 'i', 'n', 's', 'o', 'n', 'return']","[0.9166409243989619, 1.3997769324259934, 1.549458995375062, 1.7163401007428547, 1.8163182559028428, 1.9663214155452806, 2.132586631149934, 2.565962595603196, 2.6994217372521234, 2.799354342231709, 3.0324089533687584, 3.1659312878737182, 3.298985289537086, 3.565560342601202, 3.665590784235974, 3.8320760521210104, 4.365280690155487]",2017_Feb_20_1110,60.0000577398,famFaceFilter,001,19,
14,./img/smoo15_BritneySpears7_1.png,0,70,70,13,,,None,None,1,1.63309907068,None,None,None,None,None,None,2,0.866479269375,Britney Spears,"['lshift', 'b', 'r', 'i', 't', 'n', 'e', 'y', 'space', 'lshift', 's', 'p', 'e', 'a', 'r', 's', 'return']","[0.5501236430782228, 0.7333380166619463, 1.1166254629997638, 1.2497368835529414, 1.5665095185440805, 1.716348120141447, 1.7830399997947097, 2.0495194616351, 2.232822690149078, 2.399015410395805, 2.582659944486295, 2.7992462407473795, 2.9325690526302424, 3.0492432735700277, 3.18237618610965, 3.2991334880116483, 3.5656370080459965]",2017_Feb_20_1110,60.0000577398,famFaceFilter,001,19,
32,./img/smoo15_TomCruise1_1.png,0,71,71,31,,,None,None,2,2.66608477915,None,None,None,None,None,None,1,4.36520594937,,['return'],[0.4836537403598413],2017_Feb_20_1110,60.0000577398,famFaceFilter,001,19,
28,./img/edges5_Ice-T(OdafinFinTutuola)5_1.png,0,0,0,27,,,None,None,2,2.71592758291,None,None,None,None,None,None,1,1.24962557431,,['return'],[0.7667997565949918],2017_Feb_20_1110,60.0000577398,famFaceFilter,001,19,
67,./img/edges5_LeonardoDiCaprio2_1.png,0,1,1,66,,,None,None,1,1.39989497796,None,None,None,None,None,None,1,1.44968966534,Leonardo Di Caprio,"['lshift', 'l', 'e', 'o', 'n', 'a', 'r', 'd', 'o', 'space', 'lshift', 'd', 'i', 'space', 'lshift', 'c', 'a', 'p', 'r', 'i', 'o', 'return']","[0.5501194729904455, 0.7333957563268996, 0.9333568782849397, 1.0667021444833154, 1.2499492372107852, 1.3665862481439035, 1.4664267904345252, 1.6830406734234202, 2.549418898384829, 2.7326194786037377, 2.8326316360116834, 2.9658113818350103, 3.049206063562451, 3.215751958096007, 3.432303610557028, 3.61554653319763, 3.7322069607726007, 3.9819114459578486, 4.0989282555783575, 4.298640455424902, 4.4652405610877395, 4.865087422664146]",2017_Feb_20_1110,60.0000577398,famFaceFilter,001,19,
20,./img/edges5_JoshRadnor(Ted)1_2.png,0,2,2,19,,,None,None,2,3.89892447042,None,None,None,None,None,None,1,0.73319430905,,['return'],[0.5668764861948148],2017_Feb_20_1110,60.0000577398,famFaceFilter,001,19,
43,./img/edges5_BarackObama1_3.png,0,3,3,42,,,None,None,1,1.23369359677,None,None,None,None,None,None,4,0.733304976742,Barack Obama,"['lshift', 'b', 'a', 'r', 'a', 'c', 'k', 'space', 'lshift', 'o', 'b', 'a', 'm', 'a', 'return']","[0.9333562367337436, 1.0834350994937267, 1.2499367269501818, 1.2998507429656456, 1.4332415593435144, 1.6165380515622019, 1.9662396176863695, 2.1326924872037125, 2.332824582726971, 2.499416668992126, 2.6826461190448754, 2.7994261960375297, 2.9324670458881883, 2.9655159472149535, 3.282487784051227]",2017_Feb_20_1110,60.0000577398,famFaceFilter,001,19,
44,./img/edges5_EmilyDeschanel5_1.png,0,4,4,43,,,None,None,1,4.96490454831,None,None,None,None,None,None,2,2.68233560795,Sara Connor,"['lshift', 's', 'a', 'r', 'a', 'space', 'lshift', 'c', 'o', 'n', 'n', 'o', 'r', 'return']","[0.6335022860093886, 0.9832898200802447, 1.0666261205906267, 1.7997819365309624, 1.8828673902726223, 2.1161728481793034, 2.3160823252146656, 2.5993993150150345, 2.8491714839192355, 3.1822661599690036, 3.315798438527054, 3.5157018208201407, 3.665460869989147, 4.182049315448239]",2017_Feb_20_1110,60.0000577398,famFaceFilter,001,19,
4,./img/edges5_LeonardoDiCaprio1_1.png,0,5,5,3,,,None,None,1,1.19990498617,None,None,None,None,None,None,1,0.999832875747,Leonardo Di Caprio,"['lshift', 'l', 'e', 'o', 'n', 'a', 'r', 'd', 'o', 'space', 'lshift', 'd', 'i', 'space', 'lshift', 'c', 'a', 'p', 'r', 'i', 'o', 'return']","[0.45026128802510357, 0.6501479899707192, 0.7669290292906226, 0.8833023624183625, 1.0499117705840035, 1.1665747643664872, 1.2663068843967267, 1.4830436245629244, 1.5329537912666638, 1.7997277254007713, 1.8829568867549824, 2.03279997921436, 2.23290352568074, 2.3658892020739586, 2.582645188794231, 2.715963509815083, 2.8325748586748887, 2.9823647023313242, 3.165815166991706, 3.6156767682214195, 3.815523693952855, 4.265309271290789]",2017_Feb_20_1110,60.0000577398,famFaceFilter,001,19,
68,./img/edges5_MariskaHargitay(Liv)4_4.png,0,6,6,67,,,None,None,1,13.1949791512,None,None,None,None,None,None,1,1.01666719595,Sharon Osborne,"['lshift', 's', 'h', 'a', 'r', 'o', 'n', 'space', 'lshift', 'o', 's', 'b', 'o', 'r', 'n', 'e', 'return']","[0.7668058513372671, 0.9333889558774899, 1.1331714056495912, 1.26652469124474, 1.3999668317701435, 1.4831193276795602, 1.683114451885558, 1.8496103053748811, 1.9494967186228678, 2.0995473531011157, 2.1995338484348395, 3.2158546063901667, 3.4489704857287506, 3.582252879846237, 3.6990172388186693, 4.082165147631713, 8.297008989103233]",2017_Feb_20_1110,60.0000577398,famFaceFilter,001,19,
55,./img/edges5_JoachimLoew1_1.png,0,7,7,54,,,None,None,1,1.18301934183,None,None,None,None,None,None,5,0.999878425927,Jogi Löw,"['lshift', 'j', 'o', 'g', 'i', 'space', 'lshift', 'l', u'\xf6', 'w', 'return']","[0.5502936543143733, 0.9833334456052398, 1.166770758452003, 1.3666228165984649, 1.4664393006951286, 1.633395467628361, 1.9829443444159551, 2.083087378397977, 2.2995928391264897, 2.433025356373946, 2.899313250835803]",2017_Feb_20_1110,60.0000577398,famFaceFilter,001,19,
17,./img/edges5_NeilPatrickHarris(Barney)3_7.png,0,8,8,16,,,None,None,1,2.64940892225,None,None,None,None,None,None,1,0.666851754371,Barney Stinson,"['lshift', 'b', 'a', 'r', 'n', 'e', 'y', 'space', 'lshift', 's', 't', 'i', 'n', 's', 'o', 'n', 'return']","[0.46701926355672185, 0.666670195201732, 0.8000594077002461, 0.8835564169457939, 1.0000821186358735, 1.083389549313324, 1.250166402508512, 1.6831263205949654, 1.783069190403694, 1.8496122300311981, 2.0995258611155805, 2.4827475483898525, 2.6328395629625447, 2.7325210003982647, 2.8159333248013354, 2.9823390402580117, 3.3158147980993817]",2017_Feb_20_1110,60.0000577398,famFaceFilter,001,19,
36,./img/edges5_AngelaMerkel1_1.png,0,9,9,35,,,None,None,1,1.09996789033,None,None,None,None,None,None,4,1.63304518033,Angela Merkel,"['lshift', 'a', 'n', 'g', 'e', 'l', 'a', 'space', 'lshift', 'm', 'e', 'r', 'k', 'e', 'l', 'return']","[0.3337185852105904, 0.5169608662999963, 0.70027018955534, 0.8502611597132272, 0.9834168473435057, 1.1502321936477529, 1.2999626937598805, 1.4166016293484063, 1.5165874831309338, 1.6332937816623598, 1.816366372289849, 1.899776451262369, 2.266282505426716, 2.3663976319030553, 2.4162279254042005, 3.0659245836568516]",2017_Feb_20_1110,60.0000577398,famFaceFilter,001,19,
59,./img/edges5_BastianSchweinsteiger3_1.png,0,10,10,58,,,None,None,1,1.83297775323,None,None,None,None,None,None,5,0.916558805764,Bastian Schweinsteiger,"['lshift', 'b', 'a', 's', 't', 'i', 'a', 'n', 'space', 'lshift', 's', 'c', 'h', 'w', 'e', 'i', 'n', 's', 't', 'i', 'backspace', 'e', 'i', 'g', 'e', 'r', 'return']","[0.35024592285844847, 0.6666987442586105, 0.7834197984821003, 0.8668054984846094, 1.1332147103985335, 1.249980352475177, 1.3998818261516135, 1.4662660817002688, 1.5998740633749549, 1.649740604553699, 1.7497543658409995, 1.9328747520803518, 2.033101829352745, 2.166197852661753, 2.2659697489061728, 2.3162395054150693, 2.4493948722683854, 2.6490252742560187, 3.1489920739477384, 3.4323148377152393, 4.332079099492148, 4.48203638817904, 4.615223832623997, 4.765098040347766, 4.848379488176761, 4.931761338867545, 5.3982561337970765]",2017_Feb_20_1110,60.0000577398,famFaceFilter,001,19,
10,./img/edges5_GuentherJauch4_1.png,0,11,11,9,,,None,None,1,1.16667901654,None,None,None,None,None,None,3,1.48375863408,Günther Jauch,"['lshift', 'g', u'\xfc', 'n', 't', 'h', 'e', 'r', 'space', 'lshift', 'k', 'a', 'backspace', 'backspace', 'lshift', 'j', 'a', 'u', 'c', 'h', 'return']","[0.4835289585271312, 0.6501027605654599, 1.0331547573796342, 1.3496884143114585, 1.9664275923742025, 2.066231886987225, 2.149316699177689, 2.2328695234327824, 2.3828104525473464, 2.5492216211951018, 2.7989745435443183, 2.89926545522394, 3.2824499324924545, 3.432267042102467, 3.7821504881731016, 3.9655377599765416, 4.015676639910453, 4.148757586751344, 4.265352255262769, 4.348667384562759, 4.765011430849881]",2017_Feb_20_1110,60.0000577398,famFaceFilter,001,19,
11,./img/edges5_RobertSeanLeonard(Wilson)1_1.png,0,12,12,10,,,None,None,1,6.61484788325,None,None,None,None,None,None,1,1.05000062551,Patrick Swayze,"['lshift', 'p', 'a', 't', 'r', 'i', 'c', 'k', 'space', 'lshift', 's', 'w', 'a', 'y', 'z', 'e', 'return']","[0.4834708980852156, 0.8168000613322874, 0.9665680922262254, 1.299622992062723, 1.366408859060357, 1.4665220608821983, 1.599776547494912, 1.6994531732916585, 1.8496192871007224, 1.9995307048311588, 2.3328245827260616, 2.7992411083314437, 3.0157417574218925, 3.1658180539743626, 3.5155703026930496, 3.5990477446084697, 6.6976603566836275]",2017_Feb_20_1110,60.0000577398,famFaceFilter,001,19,
40,./img/edges5_NicoleKidman3_1.png,0,13,13,39,,,None,None,2,8.28039536274,None,None,None,None,None,None,1,0.849944233107,,['return'],[0.6501168747063275],2017_Feb_20_1110,60.0000577398,famFaceFilter,001,19,
23,./img/edges5_UrsulavonderLeyen1_1.png,0,14,14,22,,,None,None,1,1.28304368872,None,None,None,None,None,None,4,0.916780141148,Von der Leyen,"['lshift', 'v', 'o', 'n', 'space', 'd', 'e', 'r', 'space', 'lshift', 'l', 'e', 'y', 'e', 'n', 'return']","[0.466860479476054, 0.7668520430697754, 0.9331724321327783, 1.1001071070786566, 1.233307382561179, 1.333519062589403, 1.4331931221786363, 1.599915764243633, 1.7494932542422248, 1.966265279759682, 2.216160947392382, 2.449426949860026, 2.6660170954319256, 2.8327467945664466, 3.5990628210765863, 3.7989405412963606]",2017_Feb_20_1110,60.0000577398,famFaceFilter,001,19,
65,./img/edges5_LisaEdelstein(DrLisaCuddy)1_1.png,0,15,15,64,,,None,None,2,7.18046275776,None,None,None,None,None,None,3,0.766556929225,,['return'],[0.4334644986065541],2017_Feb_20_1110,60.0000577398,famFaceFilter,001,19,
52,./img/edges5_BarackObama4_1.png,0,16,16,51,,,None,None,1,1.18321886445,None,None,None,None,None,None,4,0.933317743624,Barack Obama,"['lshift', 'b', 'a', 'r', 'a', 'c', 'k', 'space', 'lshift', 'o', 'b', 'a', 'm', 'a', 'return']","[0.5001839649894464, 0.8335179398745822, 1.0500461756937511, 1.1330864000310612, 1.2832204362484845, 1.416414296212679, 1.5499270074396918, 1.716393991096993, 1.9829068136332353, 2.149154386562259, 2.349420245644069, 2.416072028308008, 2.549071498065132, 2.615927614989232, 2.949277628670643]",2017_Feb_20_1110,60.0000577398,famFaceFilter,001,19,
45,./img/edges5_WillSmith4_1.png,0,17,17,44,,,None,None,1,1.86651295085,None,None,None,None,None,None,1,1.83305794721,Will Smith,"['lshift', 'w', 'i', 'l', 'space', 'backspace', 'l', 'space', 'lshift', 's', 'm', 'i', 't', 'h', 'return']","[0.350319380543624, 0.7166820478723821, 0.8668010076216888, 1.1333401337833493, 1.316614171688343, 2.066315288725491, 2.616104362520673, 3.015855312097301, 3.1324984177726947, 3.265847854057938, 3.3991382675731074, 3.549026589436835, 3.7656446425135073, 3.898773705741405, 4.332164105110678]",2017_Feb_20_1110,60.0000577398,famFaceFilter,001,19,
29,./img/edges5_TomCruise4_1.png,0,18,18,28,,,None,None,1,1.849348873,None,None,None,None,None,None,1,0.433611093202,Tom Hanks,"['lshift', 't', 'o', 'm', 'space', 'lshift', 'h', 'a', 'n', 'k', 's', 'return']","[0.4668880662047741, 0.8166541082891854, 0.9666360967212313, 1.1496499853565183, 1.2832958185890675, 1.3664335588064205, 1.5328261224503876, 1.599724902572234, 1.7164295972233958, 1.8329771116750635, 1.9162146132030102, 2.3326237770015723]",2017_Feb_20_1110,60.0000577398,famFaceFilter,001,19,
49,./img/edges5_RobertSeanLeonard(Wilson)2_6.png,0,19,19,48,,,None,None,1,3.44896086245,None,None,None,None,None,None,1,1.89956794692,Patrick Swayze,"['lshift', 'p', 'a', 't', 'r', 'i', 'c', 'k', 'space', 'lshift', 's', 'w', 'a', 'y', 'z', 'e', 'return']","[0.7500860481395648, 0.9666806845734754, 1.1665446114293445, 1.4997441812047327, 1.6163840791205075, 1.749747950321762, 2.049670547092319, 2.4327591123610546, 2.74936686853016, 3.3983007216493206, 3.6656597510582287, 4.281849119197432, 4.431980589207342, 4.581449656945551, 4.948483066719746, 5.04842433264912, 5.3982054512016475]",2017_Feb_20_1110,60.0000577398,famFaceFilter,001,19,
72,./img/edges5_EmilyDeschanel6_12.png,0,20,20,71,,,None,None,2,2.24961274327,None,None,None,None,None,None,1,2.56597029422,,['return'],[0.8166390318210688],2017_Feb_20_1110,60.0000577398,famFaceFilter,001,19,
25,./img/edges5_JoachimLoew8_1.png,0,21,21,24,,,None,None,1,1.06676469579,None,None,None,None,None,None,5,0.749857014134,Jogi Löw,"['lshift', 'j', 'o', 'g', 'i', 'space', 'lshift', 'l', u'\xf6', 'w', 'return']","[0.5666073551992667, 0.9000276188062344, 1.7163583849705901, 1.9496696168425842, 2.0162149019015487, 2.216346676649664, 2.5325723886999185, 2.6994496447568963, 2.832693545764414, 2.9326139612585393, 3.332351438247315]",2017_Feb_20_1110,60.0000577398,famFaceFilter,001,19,
8,./img/edges5_LeonardoDiCaprio3_1.png,0,22,22,7,,,None,None,1,1.09970774106,None,None,None,None,None,None,1,0.466818778607,Leonardo Di Caprio,"['lshift', 'l', 'e', 'o', 'n', 'a', 'r', 'd', 'o', 'space', 'lshift', 'd', 'i', 'space', 'lshift', 'c', 'a', 'p', 'r', 'i', 'o', 'return']","[0.6998313680996944, 0.9834139603599397, 1.0834835366567859, 1.166586633074985, 1.31664689083118, 1.4495764314387998, 1.5163882812857992, 1.6996979253171958, 1.7997790495473964, 1.9830059333917234, 2.066317854933004, 2.1995328861075905, 2.282880413775274, 2.5493874623443844, 2.682617249211944, 2.8992173388360243, 2.999338239280405, 3.2158350390591295, 3.315481511919643, 3.7482351710905277, 3.948087870789095, 4.298701723625527]",2017_Feb_20_1110,60.0000577398,famFaceFilter,001,19,
38,./img/edges5_GeorgeClooney11_1.png,0,23,23,37,,,None,None,1,1.71649407318,None,None,None,None,None,None,1,0.566583617781,George Clooney,"['lshift', 'h', 'e', 'backspace', 'backspace', 'lshift', 'g', 'e', 'o', 'r', 'h', 'e', 'backspace', 'backspace', 'g', 'e', 'space', 'lshift', 'c', 'l', 'o', 'o', 'n', 'e', 'y', 'return']","[0.3835360476741698, 0.7502708150686885, 0.8001165058130937, 1.266494217532454, 1.4499469276242962, 1.7830422452252606, 1.96628933795364, 2.0660647627328217, 2.6160017142265133, 2.8156077372432264, 2.9991849083908164, 3.132488473718695, 3.6153688233389403, 3.732242566899913, 3.8488154226488405, 3.9154489210859538, 4.331914862221311, 4.381954943172786, 4.648644834015613, 4.815140687505846, 5.1982382345004225, 5.43156967525556, 5.631357257442687, 5.747923697673286, 5.931286911283678, 6.347868652525904]",2017_Feb_20_1110,60.0000577398,famFaceFilter,001,19,
5,./img/edges5_AlysonHannigan(Lily)1_1.png,0,24,24,4,,,None,None,2,3.61614734649,None,None,None,None,None,None,1,0.766537041119,,['return'],[0.5836049503423055],2017_Feb_20_1110,60.0000577398,famFaceFilter,001,19,
13,./img/edges5_MariskaHargitay(Liv)6_5.png,0,25,25,12,,,None,None,2,6.83090393692,None,None,None,None,None,None,1,0.883299796211,,['return'],[0.500189418179616],2017_Feb_20_1110,60.0000577398,famFaceFilter,001,19,
12,./img/edges5_UrsulavonderLeyen4_1.png,0,26,26,11,,,None,None,1,0.91664477371,None,None,None,None,None,None,4,0.88334149708,Von der Leyen,"['lshift', 'lshift', 'v', 'o', 'n', 'space', 'd', 'e', 'r', 'space', 'lshift', 'l', 'e', 'y', 'e', 'n', 'return']","[0.5667808949710889, 2.899215414180617, 3.249043686792902, 3.4323270271988804, 4.1151951231795465, 4.248773914245248, 4.332159935022901, 4.448640728083774, 4.5319462341067265, 4.648469690364436, 4.914817954854698, 5.098447733253124, 5.3314644928323105, 5.548302598188457, 5.681457644266629, 6.431213293210021, 6.647702394367116]",2017_Feb_20_1110,60.0000577398,famFaceFilter,001,19,
3,./img/edges5_NicoleKidman5_1.png,0,27,27,2,,,None,None,2,2.34939041348,None,None,None,None,None,None,3,0.61650052078,,['return'],[0.41707284917356446],2017_Feb_20_1110,60.0000577398,famFaceFilter,001,19,
70,./img/edges5_BastianSchweinsteiger1_1.png,0,28,28,69,,,None,None,1,1.23304274243,None,None,None,None,None,None,5,1.03327376525,Bastian Schweinsteiger,"['lshift', 'b', 'a', 's', 't', 'i', 'a', 'n', 'space', 'lshift', 's', 'c', 'h', 'w', 'e', 'i', 'n', 's', 't', 'e', 'u', 'g', 'e', 'backspace', 'backspace', 'backspace', 'i', 'g', 'e', 'r', 'return']","[0.6501948232544237, 1.1342982914511595, 1.2499405762619062, 1.3163418329331762, 1.6163366042856069, 1.7497482710987242, 1.866265953389302, 1.9495262300079048, 2.066148164471997, 2.1493715518599856, 2.1994985630844894, 2.3992826167359453, 2.482824213834647, 2.6325059560076625, 2.732647065333367, 2.8158759059115255, 2.8658637003882177, 3.2824653297375335, 3.465594376926674, 3.5657358070293412, 3.64887194336643, 3.815536845765564, 3.948848109715982, 4.232094528813832, 4.381966811882194, 4.515167728916822, 5.1649657523594215, 5.348073949114223, 5.4148781003395925, 5.514890899298734, 5.731475270903502]",2017_Feb_20_1110,60.0000577398,famFaceFilter,001,19,
22,./img/edges5_JasonSegel(Marshall)6_1.png,0,29,29,21,,,None,None,2,2.33245184111,None,None,None,None,None,None,1,1.91603914878,,['return'],[0.6334894549727323],2017_Feb_20_1110,60.0000577398,famFaceFilter,001,19,
27,./img/edges5_OmarEpps(DrEricForeman)2_2.png,0,30,30,26,,,None,None,2,2.2666584548,None,None,None,None,None,None,2,0.883319684318,,['return'],[0.6000841716013383],2017_Feb_20_1110,60.0000577398,famFaceFilter,001,19,
63,./img/edges5_LisaEdelstein(DrLisaCuddy)2_2.png,0,31,31,62,,,None,None,2,2.33282586583,None,None,None,None,None,None,3,1.13296835449,,['return'],[0.45023081431190803],2017_Feb_20_1110,60.0000577398,famFaceFilter,001,19,
62,./img/edges5_AlysonHannigan(Lily)5_4.png,0,32,32,61,,,None,None,2,1.53313727509,None,None,None,None,None,None,1,1.39973394845,,['return'],[0.40019009180923604],2017_Feb_20_1110,60.0000577398,famFaceFilter,001,19,
54,./img/edges5_KatjaBurkard5_3.png,0,33,33,53,,,None,None,1,1.16662352231,None,None,None,None,None,None,3,0.999923655331,Arbeitet bei rtl,"['lshift', 'a', 'r', 'b', 'e', 'i', 't', 'e', 't', 'space', 'b', 'e', 'i', 'space', 'r', 't', 'l', 'return']","[0.8166521836346874, 1.616532919148085, 1.8663047672762332, 2.016039758250372, 2.132912218708043, 2.2660098458964057, 2.5828107091683705, 2.682358383045539, 2.782547929536122, 2.949365521272739, 3.0989170284219654, 3.199053326109606, 3.2657079957571113, 3.4656816279766645, 3.815584320601374, 3.932232879467847, 4.148783890376762, 4.531797714857021]",2017_Feb_20_1110,60.0000577398,famFaceFilter,001,19,
2,./img/edges5_OmarEpps(DrEricForeman)1_5.png,0,34,34,1,,,None,None,2,1.93294275658,None,None,None,None,None,None,2,1.2166084298,,['return'],[0.5165672742487004],2017_Feb_20_1110,60.0000577398,famFaceFilter,001,19,
71,./img/edges5_HughLaurie(DrHouse)4_1.png,0,35,35,70,,,None,None,1,1.09984535393,None,None,None,None,None,None,1,0.733399926414,Dr House,"['lshift', 'd', 'r', 'space', 'lshift', 'h', 'o', 'u', 's', 'e', 'return']","[0.5332944552919798, 0.7668555716045375, 0.9167252884653863, 1.1332897719630637, 1.383077338111434, 1.483161670100344, 1.8329690922773807, 1.9829844414052786, 2.0994549696370086, 2.2162818799133674, 2.5491921098100647]",2017_Feb_20_1110,60.0000577398,famFaceFilter,001,19,
1,./img/edges5_BastianSchweinsteiger6_2.png,0,36,36,0,,,None,None,1,1.31661385091,None,None,None,None,None,None,5,1.01654433877,Bastian Schweinsteiger,"['lshift', 'b', 'a', 's', 't', 'i', 'a', 'n', 'space', 'lshift', 's', 'c', 'h', 'w', 'e', 'i', 'n', 's', 't', 'i', 'backspace', 'e', 'i', 'g', 'e', 'r', 'return']","[0.38357550311320665, 0.6169662874135611, 0.7332084231911722, 0.8168501023756107, 1.1000913890593438, 1.1666110120449957, 1.366642383929502, 1.4495575056598682, 1.5665451246713928, 1.6330512750682828, 1.7163182879803571, 1.932637377901301, 1.982927343292431, 2.116317197343051, 2.1996085892242263, 2.2495075287715736, 2.3331662090804457, 2.5661874595225527, 3.29916460327604, 3.3991777230112348, 4.165359344411627, 4.348727369660082, 4.46542725267318, 4.665176341749429, 4.764971333860558, 4.864939865742599, 5.214850577765901]",2017_Feb_20_1110,60.0000577398,famFaceFilter,001,19,
7,./img/edges5_AngelaMerkel3_1.png,0,37,37,6,,,None,None,1,1.13335841801,None,None,None,None,None,None,4,0.899902516198,Angela Merkel,"['lshift', 'a', 'n', 'g', 'e', 'l', 'a', 'space', 'lshift', 'm', 'e', 'r', 'k', 'e', 'l', 'return']","[0.3502654901885762, 0.6167523298754531, 0.9833748256978652, 1.1332692423047774, 1.2333307992030313, 1.3995527100587424, 1.5665371052728005, 1.6998057060254723, 1.81604303016411, 1.9161459671568082, 2.0662700593202317, 2.1827806845421946, 2.7325841932533876, 2.832682318606203, 2.8991984130570927, 3.332389289805178]",2017_Feb_20_1110,60.0000577398,famFaceFilter,001,19,
60,./img/edges5_TomCruise1_1.png,0,38,38,59,,,None,None,1,4.08235633008,None,None,None,None,None,None,1,0.500184606541,Tom Hanks,"['lshift', 't', 'o', 'm', 'space', 'lshift', 'h', 'a', 'n', 'k', 's', 'return']","[0.5001733793842504, 0.8503265980016295, 1.0331826648844071, 1.1666456558441496, 1.3334269999013486, 1.4997538044826797, 1.6832097223332312, 1.7665777796601105, 1.8331618786050967, 1.9163262432230113, 2.033049863654014, 2.3328130347936167]",2017_Feb_20_1110,60.0000577398,famFaceFilter,001,19,
26,./img/edges5_NicoleKidman7_1.png,0,39,39,25,,,None,None,2,18.0595174055,None,None,None,None,None,None,1,0.716483487578,,['return'],[0.6334371684979487],2017_Feb_20_1110,60.0000577398,famFaceFilter,001,19,
69,./img/edges5_GuentherJauch2_1.png,0,40,40,68,,,None,None,1,1.14983699772,None,None,None,None,None,None,3,0.833381610109,Günther Jauch,"['lshift', 'g', u'\xfc', 'n', 't', 'h', 'e', 'r', 'space', 'lshift', 'k', 'backspace', 'lshift', 'j', 'a', 'u', 'c', 'h', 'return']","[0.6000780768581535, 0.716812924446458, 1.0999233024776913, 1.4165304170956006, 1.5496546686854344, 1.6330897681782517, 1.6996283169437447, 1.7996295679695322, 1.9164070787546734, 2.0994241751486697, 2.29934231313473, 2.6659837347360735, 2.8991749964152405, 3.1825285546701707, 3.2658199465522557, 3.3489349116789526, 3.4822054370879414, 3.565586967002673, 3.9487169123649437]",2017_Feb_20_1110,60.0000577398,famFaceFilter,001,19,
51,./img/edges5_Ice-T(OdafinFinTutuola)6_1.png,0,41,41,50,,,None,None,2,3.16582928113,None,None,None,None,None,None,2,1.58299162679,,['return'],[0.7167423537448485],2017_Feb_20_1110,60.0000577398,famFaceFilter,001,19,
41,./img/edges5_OmarEpps(DrEricForeman)3_1.png,0,42,42,40,,,None,None,1,2.96543318703,None,None,None,None,None,None,1,1.26641787286,Will Smith,"['lshift', 'w', 'i', 'l', 'l', 'space', 'lshift', 's', 'm', 'i', 't', 'h', 'return']","[0.4168595331875622, 0.650115912378169, 0.8501411895204001, 1.0333055220617098, 1.1165946685123345, 1.3332489692666059, 1.4331026633708461, 1.4999360052042903, 1.6497877586134564, 1.7831756880086687, 1.9160532629166482, 1.9996192389853604, 2.365984793296775]",2017_Feb_20_1110,60.0000577398,famFaceFilter,001,19,
34,./img/edges5_KatjaBurkard1_1.png,0,43,43,33,,,None,None,1,1.81636540996,None,None,None,None,None,None,3,0.849705575823,Arbeitet bei rtl,"['lshift', 'a', 'r', 'b', 'e', 'i', 't', 'e', 't', 'space', 'b', 'e', 'i', 'space', 'r', 't', 'l', 'return']","[0.8665899370671468, 1.8163419933207479, 2.366065628828437, 2.582615356634051, 2.732716032155622, 2.849215430219374, 3.3490000291903925, 3.4657637466116284, 3.5323516948674296, 3.7321973374955633, 3.898842993339713, 3.9821667835894914, 4.132063766403007, 4.43206655715403, 4.831472351842422, 4.981608954267358, 5.098377804102711, 6.431202707604825]",2017_Feb_20_1110,60.0000577398,famFaceFilter,001,19,
61,./img/edges5_NeilPatrickHarris(Barney)2_2.png,0,44,44,60,,,None,None,1,1.41674982782,None,None,None,None,None,None,1,0.683436190132,Barney Stinson,"['lshift', 'b', 'a', 'r', 'n', 'e', 'y', 'space', 'lshift', 's', 't', 'i', 'n', 's', 'o', 'n', 'return']","[0.3835540111258524, 0.666786636859797, 0.8166775249310376, 0.9334723576166652, 0.9999496381806239, 1.1500378034415917, 1.516401753874561, 1.7165120366353221, 1.8661023576705702, 1.9994424914539195, 2.2994199409067733, 2.4660777862354735, 2.6160222438847995, 2.749262937133608, 2.8326868094691235, 2.965737603373782, 3.282353699716623]",2017_Feb_20_1110,60.0000577398,famFaceFilter,001,19,
46,./img/edges5_TomCruise5_1.png,0,45,45,45,,,None,None,1,1.64959400996,None,None,None,None,None,None,1,0.616810711093,Tom Hanks,"['lshift', 't', 'o', 'm', 'space', 'lshift', 'h', 'a', 'n', 'k', 's', 'return']","[0.43385199591557466, 0.716864569369136, 0.850319861706339, 0.9833459558649338, 1.1502556102905146, 1.233430560513625, 1.3669852933862785, 1.450087748252372, 1.5166355995188496, 1.6000546602163013, 1.6665867934625567, 1.933239795074769]",2017_Feb_20_1110,60.0000577398,famFaceFilter,001,19,
39,./img/edges5_AlysonHannigan(Lily)8_3.png,0,46,46,38,,,None,None,2,1.48305934258,None,None,None,None,None,None,1,1.03328691706,,['return'],[0.4836094732827405],2017_Feb_20_1110,60.0000577398,famFaceFilter,001,19,
24,./img/edges5_JasonSegel(Marshall)7_1.png,0,47,47,23,,,None,None,2,2.91578926434,None,None,None,None,None,None,2,0.666721840124,,['return'],[0.5501874774854514],2017_Feb_20_1110,60.0000577398,famFaceFilter,001,19,
53,./img/edges5_KatjaBurkard4_1.png,0,48,48,52,,,None,None,1,1.01669927354,None,None,None,None,None,None,3,0.733378434427,Arbeitet bei rtl,"['lshift', 'a', 'r', 'b', 'e', 'i', 't', 'e', 't', 'space', 'b', 'e', 'i', 'space', 'lshift', 'r', 't', 'l', 'backspace', 'backspace', 'backspace', 'r', 't', 'l', 'return']","[1.0830819252068977, 1.2500496400734846, 1.4831504429430424, 1.6330888058510027, 1.7332770692373742, 1.882966189255967, 2.1828188568761107, 2.2829432858552536, 2.3826975394240435, 2.5160428056215096, 2.6493367476723506, 2.7327003141354, 2.7991397431414953, 2.9992625361637693, 3.1154681034859095, 3.2822895445333415, 3.5316774238872313, 3.782057783932032, 4.315329143358213, 4.431959738773003, 4.5652665118605, 5.048377820141468, 5.131718611514771, 5.648137366512856, 5.898068640272868]",2017_Feb_20_1110,60.0000577398,famFaceFilter,001,19,
19,./img/edges5_HughLaurie(DrHouse)2_1.png,0,49,49,18,,,None,None,1,1.08334143293,None,None,None,None,None,None,1,0.49993247667,Dr House,"['lshift', 'd', 'r', 'space', 'lshift', 'h', 'o', 'u', 's', 'e', 'return']","[0.6335224948925315, 0.7834894068564608, 0.9834197343270716, 1.083165326946073, 1.2331357674447645, 1.2665776192716294, 1.4665541384747485, 1.6329399658243346, 1.7498647127558797, 1.8160401431814535, 2.149529694386729]",2017_Feb_20_1110,60.0000577398,famFaceFilter,001,19,
58,./img/edges5_HughLaurie(DrHouse)5_3.png,0,50,50,57,,,None,None,1,1.19997555687,None,None,None,None,None,None,1,0.866734607006,Dr House,"['lshift', 'd', 'r', 'period', 'space', 'lshift', 'h', 'o', 'u', 's', 'e', 'return']","[0.40029755174236925, 0.6666737237364941, 0.8499654043171176, 1.0500974998403763, 1.2166084297987254, 1.682767051565861, 1.8164090354875952, 2.132666504354347, 2.299516815233801, 2.4161836583270997, 2.4993451359623577, 2.766004232317755]",2017_Feb_20_1110,60.0000577398,famFaceFilter,001,19,
6,./img/edges5_GuentherJauch3_1.png,0,51,51,5,,,None,None,1,1.04992716783,None,None,None,None,None,None,3,0.966417648321,Günther Jauch,"['lshift', 'g', u'\xfc', 'n', 't', 'h', 'e', 'r', 'space', 'lshift', 'j', 'a', 'u', 'c', 'h', 'return']","[0.5167879680802798, 0.6498345918980704, 1.0166922164689822, 1.2664685554591415, 1.3828967412700877, 1.4665669695114047, 1.566397888524989, 1.6327333861336228, 1.749715231178925, 1.9494980017261696, 2.182861199297804, 2.249492131527404, 2.3658025925751645, 2.4826756945840316, 2.582669567764242, 2.999167586492149]",2017_Feb_20_1110,60.0000577398,famFaceFilter,001,19,
50,./img/edges5_WillSmith5_1.png,0,52,52,49,,,None,None,1,1.2831437708,None,None,None,None,None,None,1,0.816478323086,Will Smith,"['lshift', 'w', 'i', 'l', 'l', 'space', 'lshift', 's', 'm', 'i', 't', 'h', 'return']","[0.4667491702330153, 0.6668203183317019, 0.8333726283826763, 1.0167602209630786, 1.116669088524759, 1.2998972554732973, 1.4164916032086694, 1.5165368005355049, 1.6664568792157297, 1.7829280489986559, 1.899704918232601, 1.9995239685367778, 2.3161025340978085]",2017_Feb_20_1110,60.0000577398,famFaceFilter,001,19,
48,./img/edges5_GeorgeClooney3_1.png,0,53,53,47,,,None,None,1,1.59974350758,None,None,None,None,None,None,1,0.450319669241,George Clooney,"['lshift', 'lshift', 'g', 'e', 'o', 'r', 'g', 'e', 'space', 'lshift', 'c', 'l', 'o', 'o', 'n', 'e', 'y', 'return']","[0.8165107214535965, 1.9662514863957767, 2.182830725585518, 2.3160184908065276, 2.9492038502094147, 3.1157481408627064, 3.282322263677088, 3.3990676968705884, 3.549050647630793, 3.7988584226613966, 4.131981647768043, 4.381895920403622, 4.648459746311346, 4.781832278461479, 4.9816522590163, 5.081722156089199, 5.331548536122682, 5.71461753406038]",2017_Feb_20_1110,60.0000577398,famFaceFilter,001,19,
64,./img/edges5_EmilyDeschanel3_1.png,0,54,54,63,,,None,None,1,7.8968827317,None,None,None,None,None,None,2,1.49944329339,Adele,"['lshift', 'a', 'd', 'e', 'l', 'e', 'return']","[0.38350942327360826, 0.5000960723873504, 0.7834589331441748, 0.8501578698678713, 0.9330091571900994, 1.0501145009639004, 1.3165984536672113]",2017_Feb_20_1110,60.0000577398,famFaceFilter,001,19,
42,./img/edges5_JoachimLoew4_1.png,0,55,55,41,,,None,None,1,1.04985884256,None,None,None,None,None,None,5,2.51599051915,Jogi Löw,"['lshift', 'j', 'o', 'g', 'i', 'space', 'lshift', 'l', u'\xf6', 'w', 'return']","[0.6000800015144705, 0.8499788769058796, 1.3164492928654, 1.5496585179962494, 1.6998486899992713, 2.0828702131011596, 2.3827171067550807, 2.632621756113622, 2.7825569112619633, 2.8992356230637597, 3.2989913842793612]",2017_Feb_20_1110,60.0000577398,famFaceFilter,001,19,
14,./img/edges5_AngelaMerkel4_1.png,0,56,56,13,,,None,None,1,1.09995185153,None,None,None,None,None,None,4,1.06650935816,Angela Merkel,"['lshift', 'a', 'n', 'g', 'e', 'l', 'a', 'space', 'lshift', 'e', 'backspace', 'lshift', 'm', 'e', 'r', 'k', 'e', 'l', 'return']","[0.333300293413231, 0.4335283330137827, 0.6167064589189977, 0.7667814723681659, 0.8667054163970533, 1.0166687998262205, 1.1495508655980302, 1.2832537969443365, 1.3829528770547768, 1.632982308246028, 1.9996766578742609, 2.21613977618199, 2.33275818211132, 2.482732151145683, 2.5664896304369904, 2.6326432481000666, 2.7493614153399903, 2.8156619483734175, 3.2156913314474878]",2017_Feb_20_1110,60.0000577398,famFaceFilter,001,19,
16,./img/edges5_BritneySpears7_1.png,0,57,57,15,,,None,None,1,1.41656474012,None,None,None,None,None,None,2,1.04984504919,Britney Spears,"['lshift', 'b', 'r', 'i', 't', 'n', 'e', 'y', 'space', 'lshift', 's', 'p', 'e', 'a', 'r', 's', 'return']","[0.3836784721834192, 0.566854031881121, 0.7668504391904207, 0.9002085364245431, 1.016733596562517, 1.499773371813717, 1.583104860686035, 1.8330701366921858, 2.166111884715974, 2.31613140393074, 2.4326038568178774, 2.7325835517021915, 2.7825418347938466, 2.9658357608059305, 3.0993638692762033, 3.26569901403127, 3.5489675666676703]",2017_Feb_20_1110,60.0000577398,famFaceFilter,001,19,
37,./img/edges5_JasonSegel(Marshall)9_1.png,0,58,58,36,,,None,None,2,1.31656252676,None,None,None,None,None,None,1,1.64927098861,,['return'],[0.6335574594677382],2017_Feb_20_1110,60.0000577398,famFaceFilter,001,19,
9,./img/edges5_RobertSeanLeonard(Wilson)8_1.png,0,59,59,8,,,None,None,1,3.86543738919,None,None,None,None,None,None,1,0.716511395083,Sherlock,"['lshift', 's', 'h', 'e', 'r', 'l', 'o', 'c', 'k', 'return']","[0.6336876944897085, 0.7835660723003457, 1.1001504118275989, 1.2168024992288338, 1.3001035143888657, 1.9498505344599835, 2.0831524959085073, 2.166478210814603, 2.2663569254391405, 2.7161678440743344]",2017_Feb_20_1110,60.0000577398,famFaceFilter,001,19,
66,./img/edges5_BritneySpears1_1.png,0,60,60,65,,,None,None,2,1.76635002876,None,None,None,None,None,None,3,1.26664594454,,['return'],[0.566674718142167],2017_Feb_20_1110,60.0000577398,famFaceFilter,001,19,
31,./img/edges5_GeorgeClooney4_2.png,0,61,61,30,,,None,None,1,1.43311132432,None,None,None,None,None,None,1,0.883346950271,George Clooney,"['lshift', 'g', 'e', 'o', 'r', 'g', 'e', 'space', 'lshift', 'c', 'l', 'o', 'o', 'n', 'e', 'y', 'return']","[0.48351965602523705, 0.7001790891954442, 0.883566681774937, 1.383332354967024, 1.6831381893034632, 2.016246979494099, 2.16637299631293, 2.299649295688141, 2.482741453647577, 2.6993033709377414, 2.865910854447975, 3.049267331763076, 3.165175539809752, 3.332519204052005, 3.4324033718685314, 3.6155744407033126, 3.8987320048718175]",2017_Feb_20_1110,60.0000577398,famFaceFilter,001,19,
30,./img/edges5_MariskaHargitay(Liv)8_8.png,0,62,62,29,,,None,None,2,1.34994118573,None,None,None,None,None,None,2,2.23234986645,,['return'],[0.8167968535735781],2017_Feb_20_1110,60.0000577398,famFaceFilter,001,19,
56,./img/edges5_NeilPatrickHarris(Barney)1_1.png,0,63,63,55,,,None,None,1,0.83326837621,None,None,None,None,None,None,1,0.783380022268,Barney Stinson,"['lshift', 'b', 'a', 'r', 'n', 'e', 'y', 'space', 'lshift', 's', 't', 'i', 'n', 's', 'o', 'n', 'return']","[0.7334050588287937, 1.18330675704874, 1.3331668506316419, 1.58302370437832, 1.6830737133432194, 1.7831275716198434, 1.999530384055106, 2.166229288701288, 2.2827668590998655, 2.4328008132306422, 2.699393508970388, 2.882643488681424, 3.0324458425993726, 3.1657635220681186, 3.2490324596356004, 3.3990500541949586, 3.7489848244122186]",2017_Feb_20_1110,60.0000577398,famFaceFilter,001,19,
15,./img/edges5_LisaEdelstein(DrLisaCuddy)6_3.png,0,64,64,14,,,None,None,2,2.63281165546,None,None,None,None,None,None,3,0.866690981481,,['return'],[0.46691886069402244],2017_Feb_20_1110,60.0000577398,famFaceFilter,001,19,
21,./img/edges5_JoshRadnor(Ted)3_1.png,0,65,65,20,,,None,None,2,2.3327103865,None,None,None,None,None,None,1,0.433282939437,,['return'],[0.41657853348260687],2017_Feb_20_1110,60.0000577398,famFaceFilter,001,19,
35,./img/edges5_WillSmith1_1.png,0,66,66,34,,,None,None,1,1.14958967948,None,None,None,None,None,None,1,2.84906209933,Will Smith,"['lshift', 'w', 'i', 'l', 'l', 'space', 'lshift', 's', 'm', 'i', 't', 'h', 'return']","[0.3836069391527417, 0.616916887921434, 0.7502050560060525, 0.9336314624715669, 1.05010455691081, 1.1999357806607804, 1.2999508250513827, 1.3833105422045264, 1.4664938326013726, 1.599894913809294, 1.733100963258039, 1.8331249893744825, 2.1830671374373196]",2017_Feb_20_1110,60.0000577398,famFaceFilter,001,19,
33,./img/edges5_BarackObama2_1.png,0,67,67,32,,,None,None,1,1.18386073706,None,None,None,None,None,None,4,0.800094051499,Barack Obama,"['lshift', 'b', 'a', 'r', 'a', 'c', 'k', 'space', 'lshift', 'o', 'b', 'a', 'm', 'a', 'return']","[0.40003387393699086, 0.6500764569400417, 0.8664911380847116, 0.8997857537642631, 1.0667566763895593, 1.2333057786818244, 1.3000861924892888, 1.4831289509575072, 1.732895666670629, 1.8661376430218297, 2.065973662372926, 2.2495633437811193, 2.382838680828172, 2.465834638089291, 2.782766698712294]",2017_Feb_20_1110,60.0000577398,famFaceFilter,001,19,
57,./img/edges5_BritneySpears5_1.png,0,68,68,56,,,None,None,1,1.36646820261,None,None,None,None,None,None,2,1.46618235919,Britney Spears,"['lshift', 'b', 'r', 'i', 't', 'n', 'e', 'y', 'space', 'lshift', 's', 'p', 'e', 'a', 't', 'r', 'backspace', 'backspace', 'r', 's', 'return']","[0.4335225590475602, 0.683544291616272, 1.0331980621285766, 1.2998039096810317, 1.4832303161474556, 1.5997589048192822, 1.666386629290173, 2.3328268281584315, 2.6828000914856602, 2.8825559168562904, 2.9826097751329144, 3.3325269026745445, 3.399175156802812, 3.582304524768915, 3.782207586285949, 3.810169943873916, 4.26550911468712, 4.415346433180275, 4.531930516086504, 4.715217705804207, 4.998394837303749]",2017_Feb_20_1110,60.0000577398,famFaceFilter,001,19,
18,./img/edges5_JoshRadnor(Ted)6_2.png,0,69,69,17,,,None,None,2,2.71546887335,None,None,None,None,None,None,1,0.866674942686,,['return'],[0.6000331682298565],2017_Feb_20_1110,60.0000577398,famFaceFilter,001,19,
32,./img/edges5_Ice-T(OdafinFinTutuola)7_1.png,0,70,70,31,,,None,None,2,1.1831595209,None,None,None,None,None,None,1,0.850071901922,,['return'],[0.5169939062197955],2017_Feb_20_1110,60.0000577398,famFaceFilter,001,19,
47,./img/edges5_UrsulavonderLeyen5_1.png,0,71,71,46,,,None,None,1,1.2832223609,None,None,None,None,None,None,4,0.816618822939,Von der Leyen,"['lshift', 'v', 'o', 'n', 'space', 'd', 'e', 'r', 'space', 'lshift', 'l', 'e', 'y', 'e', 'n', 'return']","[1.366423935529383, 1.6163792674824435, 1.7498108224017415, 1.9325562215926766, 2.0995001990413584, 2.1995027331713572, 2.315754171449953, 2.416135221163131, 2.6160293009552333, 3.082413107416869, 3.1491498956993382, 3.3991090769641232, 3.632257354669491, 3.7821719801595464, 3.965461736083853, 4.714978727744892]",2017_Feb_20_1110,60.0000577398,famFaceFilter,001,19,
1,./img/gray_JoachimLoew8_1.png,0,0,0,0,,,None,None,1,2.01550085471,None,None,None,None,None,None,5,1.65029458457,Jogi Löw,"['lshift', 'k', 'backspace', 'lshift', 'j', 'o', 'g', 'i', 'space', 'lshift', 'l', u'\xf6', 'w', 'return']","[0.6832305727675703, 0.9667377826872325, 1.5831366175007133, 1.7163914248894798, 2.2162498023217267, 2.4327895860733406, 2.616000110346249, 2.699093262711358, 2.9325998471176717, 3.1990311925710557, 3.39917162826805, 3.515681291160945, 3.598946058641559, 4.181981310953233]",2017_Feb_20_1110,60.0000577398,famFaceFilter,001,19,
55,./img/gray_Ice-T(OdafinFinTutuola)6_1.png,0,1,1,54,,,None,None,2,2.84927477376,None,None,None,None,None,None,1,1.06660110007,,['return'],[0.55023591464942],2017_Feb_20_1110,60.0000577398,famFaceFilter,001,19,
3,./img/gray_KatjaBurkard1_1.png,0,2,2,2,,,None,None,1,1.61604309432,None,None,None,None,None,None,3,1.08334207448,Arbeitet bei rtl,"['lshift', 'a', 'r', 'b', 'e', 'i', 't', 'e', 't', 'space', 'b', 'e', 'i', 'space', 'r', 't', 'l', 'return']","[0.9667958431282386, 1.683235063630491, 1.9164250422054465, 2.032710161955947, 2.183046287002071, 2.266191084289858, 2.499443934944793, 2.6160434150951914, 2.6826608747360297, 2.8659618578185473, 3.4991282914415933, 3.5987532723147524, 3.715596862939492, 3.9155567017942303, 4.0987611313248635, 4.215498224344628, 4.398392463562232, 4.748506547517536]",2017_Feb_20_1110,60.0000577398,famFaceFilter,001,19,
5,./img/gray_OmarEpps(DrEricForeman)2_2.png,0,3,3,4,,,None,None,1,6.54766104635,None,None,None,None,None,None,2,0.599829154746,Tu Pac,"['lshift', 't', 'u', 'space', 'lshift', 'p', 'a', 'c', 'return']","[0.7498730529305249, 1.0499598869719193, 1.2332810789366704, 1.4166657845335067, 1.6996328078066654, 1.8665216117969976, 1.9663374543415557, 2.0827948307605766, 2.382838039276976]",2017_Feb_20_1110,60.0000577398,famFaceFilter,001,19,
21,./img/gray_HughLaurie(DrHouse)4_1.png,0,4,4,20,,,None,None,1,1.16666073231,None,None,None,None,None,None,1,0.600108229795,Dr House,"['lshift', 'd', 'r', 'space', 'lshift', 'o', 'u', 's', 'backspace', 'backspace', 'backspace', 'lshift', 'h', 'o', 'u', 's', 'e', 'return']","[1.0333273348232979, 1.2664557244224852, 1.4497140443072567, 1.5498448888047278, 1.7496504344426285, 2.2161753823083927, 2.3661390865136127, 2.5327924409793923, 2.799358191542524, 2.949159262356261, 3.0657818383733684, 3.432292704176689, 3.615587271739969, 3.832162982394948, 3.9821722367805705, 4.082157449010083, 4.182021407943466, 4.465267827041316]",2017_Feb_20_1110,60.0000577398,famFaceFilter,001,19,
71,./img/gray_BritneySpears7_1.png,0,5,5,70,,,None,None,1,1.14939432695,None,None,None,None,None,None,2,0.750018364422,Britney Spears,"['lshift', 'b', 'r', 'i', 't', 'n', 'e', 'y', 'space', 'lshift', 's', 'p', 'e', 'a', 'r', 's', 'return']","[0.48428791434980667, 0.6675991622614674, 0.9837831734421343, 1.11738890968536, 1.300317792702117, 1.4503895983916664, 1.5337817139115941, 1.7831067211855043, 1.9336654647186151, 2.0668561169241, 2.183632665381083, 2.56675779910438, 2.6167141575406276, 2.7500257422670984, 2.883359781307263, 3.0331371147040045, 3.34982987649164]",2017_Feb_20_1110,60.0000577398,famFaceFilter,001,19,
40,./img/gray_BritneySpears1_1.png,0,6,6,39,,,None,None,1,1.18320314643,None,None,None,None,None,None,2,1.41642295716,Britney Spears,"['lshift', 'b', 'r', 'i', 't', 'n', 'e', 'y', 'space', 'lshift', 's', 'p', 'e', 'a', 'r', 's', 'return']","[0.5834403922963247, 0.7001707490217086, 1.4162689847216825, 1.6497726821453398, 1.7997517835947292, 1.9496538988232714, 2.01638619624282, 2.2827931627252838, 2.615780699618881, 2.7494156264701815, 2.899276361605189, 3.132476605010197, 3.1992018453602213, 3.3815664835356074, 3.5989120563954202, 3.748864854218482, 4.015416169864693]",2017_Feb_20_1110,60.0000577398,famFaceFilter,001,19,
26,./img/gray_BarackObama1_3.png,0,7,7,25,,,None,None,1,1.0834376657,None,None,None,None,None,None,4,0.916588317149,Barack Obama,"['lshift', 'b', 'a', 'r', 'a', 'c', 'k', 'lshift', 'lshift', 'o', 'backspace', 'space', 'lshift', 'o', 'b', 'a', 'm', 'a', 'return']","[0.5003257479447711, 0.7169608021449676, 0.9001074920106475, 1.0002062589155685, 1.1333439830941643, 1.3000932495597226, 1.9163426027953392, 2.166182134641531, 3.3824069164420507, 3.482562460684676, 4.098894253331309, 4.365245084029084, 4.515358911363364, 4.5484145489845105, 4.732013853670651, 4.798521287170843, 4.915198715869337, 4.964970628152514, 5.264812389392318]",2017_Feb_20_1110,60.0000577398,famFaceFilter,001,19,
23,./img/gray_TomCruise4_1.png,0,8,8,22,,,None,None,1,1.21658982479,None,None,None,None,None,None,1,0.483527675424,Tom Hanks,"['lshift', 't', 'o', 'm', 'space', 'lshift', 'h', 'a', 'n', 'k', 's', 'return']","[0.4502045106864898, 0.7167112384804568, 0.9500025822462703, 1.0998408630666745, 1.2500467530899186, 1.3332678950455374, 1.4664640004411922, 1.6330419725663887, 1.7163891794580195, 1.8330255488399416, 1.9160529421405954, 2.19955822740485]",2017_Feb_20_1110,60.0000577398,famFaceFilter,001,19,
36,./img/gray_TomCruise5_1.png,0,9,9,35,,,None,None,1,1.00003496458,None,None,None,None,None,None,1,0.983208984549,Tom Hanks,"['lshift', 't', 'o', 'm', 'space', 'lshift', 'h', 'a', 'n', 'k', 's', 'return']","[0.36705586408788804, 0.7333684903733229, 0.8667846480493608, 1.0334604568297436, 1.1835277716563724, 1.2162619918062774, 1.3834953091327407, 1.4664530940599434, 1.5499703121886341, 1.6164681224117885, 1.6666217580377634, 2.732723089226056]",2017_Feb_20_1110,60.0000577398,famFaceFilter,001,19,
56,./img/gray_GuentherJauch2_1.png,0,10,10,55,,,None,None,1,1.01668900871,None,None,None,None,None,None,3,1.91630218503,Günther Jauch,"['lshift', 'g', u'\xfc', 'n', 't', 'h', 'e', 'r', 'space', 'lshift', 'j', 'a', 'u', 'c', 'h', 'return']","[0.5336992745014868, 0.6669290613681369, 1.1000015718018403, 1.4496870991306423, 1.5331687111320207, 1.633264911830338, 1.7331522874055736, 1.8162316464049582, 1.8994720349155614, 2.1496086052629835, 2.34947445677426, 2.399548539972784, 2.516262857901893, 2.6327202343209137, 2.682736898629628, 3.0491893832158894]",2017_Feb_20_1110,60.0000577398,famFaceFilter,001,19,
53,./img/gray_Ice-T(OdafinFinTutuola)5_1.png,0,11,11,52,,,None,None,2,1.43318670666,None,None,None,None,None,None,1,0.816742321667,,['return'],[0.5497576377547375],2017_Feb_20_1110,60.0000577398,famFaceFilter,001,19,
4,./img/gray_AngelaMerkel1_1.png,0,12,12,3,,,None,None,1,0.933466262874,None,None,None,None,None,None,4,0.916785273562,Angela Merkel,"['lshift', 'a', 'n', 'h', 'backspace', 'g', 'e', 'l', 'a', 'space', 'lshift', 'm', 'e', 'r', 'k', 'e', 'l', 'return']","[0.7503093081795669, 0.8670897059482741, 1.0337911768019694, 1.2333070617851263, 1.7332472370771939, 1.9159801260075255, 2.0329420829457376, 2.5830814440432732, 2.6663648165276754, 2.78260727308043, 2.8660782994766123, 2.966119647492633, 3.1659280801140994, 3.265981296839527, 3.4492649580215584, 3.549291550345515, 3.6325515061871556, 4.31560372754484]",2017_Feb_20_1110,60.0000577398,famFaceFilter,001,19,
37,./img/gray_TomCruise1_1.png,0,13,13,36,,,None,None,1,1.94948645379,None,None,None,None,None,None,1,0.600242955681,Tom Hanks,"['lshift', 't', 'o', 'm', 'space', 'lshift', 'h', 'a', 'n', 'k', 's', 'return']","[0.5001993622327063, 0.7502063391093543, 0.9500956072624831, 1.0998700536747492, 1.250042262226998, 1.3665740586584434, 1.483031755853517, 1.583106785340533, 1.6664344249011265, 1.7663304614261506, 1.8326364476497474, 2.232558050015541]",2017_Feb_20_1110,60.0000577398,famFaceFilter,001,19,
38,./img/gray_MariskaHargitay(Liv)4_4.png,0,14,14,37,,,None,None,1,2.38264493217,None,None,None,None,None,None,1,1.59967839006,Sharon Osborne,"['lshift', 's', 'h', 'a', 'r', 'o', 'n', 'space', 'lshift', 'o', 's', 'b', 'o', 'r', 'n', 'e', 'return']","[0.7999920447573459, 1.0166922164689822, 1.5165541224359913, 1.6162875255695326, 1.7330541299743345, 1.8996147801999541, 2.0828968375026307, 2.2328011981626332, 2.3827748464209435, 2.5993463869881452, 2.7825540242783973, 3.3321888048567416, 3.8488478210174435, 4.098780057104705, 4.232162854084891, 4.348636269299277, 5.648064229603733]",2017_Feb_20_1110,60.0000577398,famFaceFilter,001,19,
8,./img/gray_BastianSchweinsteiger6_2.png,0,15,15,7,,,None,None,1,1.13315247987,None,None,None,None,None,None,5,2.21608139496,Bastian Schweinsteiger,"['lshift', 'b', 'a', 's', 't', 'i', 'a', 'n', 'space', 'lshift', 's', 'c', 'h', 'w', 'e', 'i', 'n', 's', 't', 'e', 'i', 'g', 'e', 'r', 'return']","[0.5168681620598363, 0.7002239978237412, 0.8333171341491834, 0.9333376317308648, 0.9999935844816719, 1.2332316794445433, 1.4164576009616212, 1.5495722292735081, 1.7330146745362072, 1.8328847282109564, 1.9330110818455069, 2.099382795055135, 2.166020142803063, 2.2993269158905605, 2.382613816909725, 2.466071691493198, 2.5658477578244856, 2.949040254490683, 3.149122950522724, 3.2654972459786222, 3.348991368240604, 3.532183287510634, 3.7320780088539323, 3.8321001103149683, 4.181922288184069]",2017_Feb_20_1110,60.0000577398,famFaceFilter,001,19,
32,./img/gray_MariskaHargitay(Liv)6_5.png,0,16,16,31,,,None,None,2,4.3984678459,None,None,None,None,None,None,1,1.4165223977,,['return'],[0.48333200211345684],2017_Feb_20_1110,60.0000577398,famFaceFilter,001,19,
60,./img/gray_EmilyDeschanel3_1.png,0,17,17,59,,,None,None,2,2.7327914145,None,None,None,None,None,None,1,1.16655391393,,['return'],[0.5669326219804134],2017_Feb_20_1110,60.0000577398,famFaceFilter,001,19,
67,./img/gray_AngelaMerkel4_1.png,0,18,18,66,,,None,None,1,0.916711174325,None,None,None,None,None,None,4,0.750038252529,Angela Merkel,"['lshift', 'a', 'n', 'g', 'e', 'l', 'a', 'space', 'lshift', 'm', 'e', 'r', 'k', 'e', 'l', 'return']","[0.36710815056267165, 0.48361973811188363, 0.7003070787868637, 0.8670457596472261, 0.9501376289072141, 1.1335483173534158, 1.2497622248502012, 1.3667434283433977, 1.466410110087054, 1.5833791240956998, 1.7164058598064003, 1.8332305246512988, 2.0494976488726024, 2.149630097249428, 2.2162440283555043, 2.799533014417648]",2017_Feb_20_1110,60.0000577398,famFaceFilter,001,19,
10,./img/gray_HughLaurie(DrHouse)2_1.png,0,19,19,9,,,None,None,1,1.01689141831,None,None,None,None,None,None,1,1.11659755549,Dr House,"['lshift', 'd', 'r', 'space', 'lshift', 'h', 'o', 'u', 's', 'e', 'return']","[0.4670208674360765, 0.7334669685806148, 0.9167384402780954, 1.099862675829172, 1.4832036917459845, 1.6663651373037283, 1.949639463906351, 2.132905161637609, 2.249229736826237, 2.3494616257376038, 2.6159985064668945]",2017_Feb_20_1110,60.0000577398,famFaceFilter,001,19,
13,./img/gray_NeilPatrickHarris(Barney)2_2.png,0,20,20,12,,,None,None,1,1.13340428897,None,None,None,None,None,None,1,0.700071950038,Barney Stinson,"['lshift', 'b', 'a', 'n', 'r', 'e', 'y', 'backspace', 'backspace', 'backspace', 'backspace', 'r', 'n', 'e', 'y', 'space', 'lshift', 's', 't', 'i', 'n', 's', 'o', 'n', 'return']","[0.5001438679992134, 0.6668408479899881, 0.7667763399531395, 0.8833389308729238, 0.9831830016992171, 1.1167085439628863, 1.3831543243313718, 1.7330826790303036, 1.8829180728680512, 2.0163727236531486, 2.1327848706678196, 2.2828794514471156, 2.4827754558946253, 2.5826233760317336, 2.815929154713558, 3.0992246525274822, 3.2157641475805576, 3.3156803929887246, 3.615438110937248, 3.798744867985988, 3.9487502730598862, 4.066825963987867, 4.1487293584705185, 4.2654805656302415, 4.681784514927131]",2017_Feb_20_1110,60.0000577398,famFaceFilter,001,19,
9,./img/gray_RobertSeanLeonard(Wilson)8_1.png,0,21,21,8,,,None,None,1,2.6825694536,None,None,None,None,None,None,1,0.833180483608,Sherlock,"['lshift', 's', 'h', 'e', 'r', u'\xf6', 'p', 'o', 'c', 'backspace', 'backspace', 'backspace', 'backspace', 'l', 'o', 'c', 'k', 'return']","[0.3335309312988102, 0.45002936703531304, 0.6167972385037501, 0.7333944732235977, 0.8167958912454196, 1.1998709839253934, 1.3501477654262999, 1.5997223363647208, 1.8830011538311737, 2.0329231571658966, 2.1995495664550617, 2.282790275741718, 2.9158444377935666, 3.049175269075022, 3.132223512810924, 3.199122292931861, 3.58212841878958]",2017_Feb_20_1110,60.0000577398,famFaceFilter,001,19,
62,./img/gray_LisaEdelstein(DrLisaCuddy)1_1.png,0,22,22,61,,,None,None,2,4.96520607768,None,None,None,None,None,None,4,0.88300756935,,['return'],[0.46672414971089893],2017_Feb_20_1110,60.0000577398,famFaceFilter,001,19,
59,./img/gray_AlysonHannigan(Lily)5_4.png,0,23,23,58,,,None,None,2,1.5164293406,None,None,None,None,None,None,1,0.799894528878,,['return'],[0.7334265508152384],2017_Feb_20_1110,60.0000577398,famFaceFilter,001,19,
70,./img/gray_WillSmith5_1.png,0,24,24,69,,,None,None,1,1.73305573385,None,None,None,None,None,None,1,0.833363967434,Will Smith,"['lshift', 'w', 'i', 'l', 'l', 'space', 'lshift', 's', 'm', 'i', 't', 'h', 'return']","[0.6336421443102154, 0.7836190003281445, 0.9499031417117294, 1.2500246195522777, 1.4332745992633136, 1.7662922890922346, 1.8665257818838654, 1.9164866311830338, 2.0164134621954872, 2.149665061824635, 2.2662895624971497, 2.3496768663790135, 3.349060976615874]",2017_Feb_20_1110,60.0000577398,famFaceFilter,001,19,
34,./img/gray_RobertSeanLeonard(Wilson)2_6.png,0,25,25,33,,,None,None,1,1.89967219909,None,None,None,None,None,None,1,0.583447128591,Sherlock,"['lshift', 's', 'h', 'e', 'r', 'l', 'o', 'c', 'k', 'return']","[0.31699717813444295, 0.4835501297375231, 0.6334249790133981, 0.7668469106547491, 0.8668581057345364, 1.1831973724601994, 1.3166898748040694, 1.4160816515850456, 1.5164979866494832, 1.9329350579528182]",2017_Feb_20_1110,60.0000577398,famFaceFilter,001,19,
44,./img/gray_BritneySpears5_1.png,0,26,26,43,,,None,None,1,1.09972345908,None,None,None,None,None,None,2,1.71632983591,Britney Spears,"['lshift', 'b', 'r', 'i', 'n', 'backspace', 't', 'n', 'e', 'y', 'space', 'lshift', 's', 'p', 'e', 'a', 'r', 's', 'return']","[0.5168194041198149, 0.6333550498629847, 0.8501427933997547, 0.9832141169636088, 1.183079006146727, 1.6662961704805639, 1.7663667091055686, 1.9328692988892726, 1.9995855575134556, 2.2494501098817636, 2.51616983288568, 2.6658512542817334, 2.782774076557871, 3.03253277287331, 3.1158995470968875, 3.299237098633057, 3.4152386524719986, 3.549139181784085, 3.8322749331900923]",2017_Feb_20_1110,60.0000577398,famFaceFilter,001,19,
65,./img/gray_KatjaBurkard5_3.png,0,27,27,64,,,None,None,1,1.08334816922,None,None,None,None,None,None,3,0.832979036331,Arbeitet bei rtl,"['lshift', 'a', 'r', 'e', 'backspace', 'b', 'e', 'i', 't', 'e', 't', 'space', 'b', 'e', 'i', 'space', 'r', 't', 'l', 'return']","[0.7001059522863216, 1.0667791307041625, 1.2832457775466537, 1.4998195635462253, 1.99968211106534, 2.2495299830852673, 2.31622635360236, 2.8991698640011236, 3.382623440187672, 3.4658166746385177, 3.532392754185821, 3.73230960906767, 3.882099131948962, 3.9818854631093927, 4.065367395886824, 4.265514567878199, 4.665261026591907, 4.748603742621526, 4.8984750633617296, 5.248190102074659]",2017_Feb_20_1110,60.0000577398,famFaceFilter,001,19,
54,./img/gray_LeonardoDiCaprio3_1.png,0,28,28,53,,,None,None,1,1.11637622011,None,None,None,None,None,None,1,0.933336990179,Leonardo Di Caprio,"['lshift', 'l', 'e', 'o', 'n', 'a', 'r', 'd', 'o', 'space', 'lshift', 'd', 'i', 'space', 'lshift', 'c', 'a', 'p', 'r', 'i', 'o', 'return']","[0.3999017142587036, 0.6334958704910605, 0.7167914324600133, 0.7835044833245774, 0.9834008085472306, 1.3831389270872023, 1.5332116951049102, 1.766469036622766, 1.8160609936157925, 1.9996917343423775, 2.2826991753809125, 2.3994118894306666, 2.5161836262495854, 2.715916676530469, 2.8324000357979457, 3.0322299604067666, 3.1157516693974685, 3.432502812402163, 3.548993228740983, 3.6990897341756863, 3.932159101005709, 4.315279102314889]",2017_Feb_20_1110,60.0000577398,famFaceFilter,001,19,
57,./img/gray_UrsulavonderLeyen5_1.png,0,29,29,56,,,None,None,1,1.21703281634,None,None,None,None,None,None,4,0.999723170383,Von der Leyen,"['lshift', 'v', 'o', 'n', 'space', 'd', 'e', 'r', 'space', 'lshift', 'l', 'e', 'y', 'e', 'n', 'return']","[0.3001885200073957, 0.7000892719379408, 0.8003352749901751, 1.0167105006958082, 1.1999139678991924, 1.3497852886393957, 1.483236090113678, 1.799644323661596, 1.9997437000411082, 2.2329240553390264, 2.5493800844988073, 2.7659375109269604, 3.015862048391682, 3.11586009165876, 3.3323395695379077, 3.932188612390746]",2017_Feb_20_1110,60.0000577398,famFaceFilter,001,19,
68,./img/gray_Ice-T(OdafinFinTutuola)7_1.png,0,30,30,67,,,None,None,2,1.58298200351,None,None,None,None,None,None,1,0.949888706795,,['return'],[1.3165827356478985],2017_Feb_20_1110,60.0000577398,famFaceFilter,001,19,
66,./img/gray_NeilPatrickHarris(Barney)3_7.png,0,31,31,65,,,None,None,1,1.08341970225,None,None,None,None,None,None,1,1.0997218552,Barney Stinson,"['lshift', 'b', 'a', 'r', 'n', 'e', 'y', 'space', 'lshift', 's', 't', 'i', 'n', 's', 'o', 'n', 'return']","[0.900231632291252, 1.1667361146528492, 1.2834802647430479, 1.4499995348751327, 1.5665284443239216, 1.6832799722596974, 1.9162014613912106, 2.182938185518651, 2.3495985970548645, 2.4328726670373726, 2.7160831592327668, 2.866091451290231, 3.049360998332304, 3.13258181951187, 3.2158459454403783, 3.3492884067418345, 3.6989216475949434]",2017_Feb_20_1110,60.0000577398,famFaceFilter,001,19,
15,./img/gray_GeorgeClooney11_1.png,0,32,32,14,,,None,None,1,1.13329875369,None,None,None,None,None,None,1,0.816645126564,George Clooney,"['lshift', 'g', 'e', 'o', 'r', 'g', 'e', 'space', 'lshift', 'c', 'l', 'o', 'o', 'n', 'e', 'y', 'return']","[0.4335187097367452, 0.6500940996156714, 0.8665998811211466, 1.083172063240454, 1.2166773966218898, 1.3497448708740194, 1.4497849357858286, 1.5497829790529067, 1.7661719981233546, 1.9995114582761744, 2.199386612289345, 2.349337806233052, 2.482751076925524, 2.6325511854120123, 2.7161726557142174, 2.89913522020197, 3.2990314812695942]",2017_Feb_20_1110,60.0000577398,famFaceFilter,001,19,
20,./img/gray_WillSmith1_1.png,0,33,33,19,,,None,None,1,1.1162924976,None,None,None,None,None,None,1,1.84962506107,Will Smith,"['lshift', 'w', 'i', 'l', 'l', 'space', 'lshift', 's', 'm', 'i', 't', 'h', 'return']","[0.45022183258697623, 0.6669223250737559, 0.8334226694269091, 1.0163836300353069, 1.1165760635085462, 1.2998584415872756, 1.4163940873304455, 1.4664466785425248, 1.516217628497543, 1.6497839093026414, 1.7828943675276605, 1.8827377968018482, 2.2325352749257945]",2017_Feb_20_1110,60.0000577398,famFaceFilter,001,19,
50,./img/gray_BastianSchweinsteiger3_1.png,0,34,34,49,,,None,None,1,1.14965960863,None,None,None,None,None,None,5,0.900112945201,Bastian Schweinsteiger,"['lshift', 'b', 'a', 's', 't', 'i', 'a', 'n', 'space', 'lshift', 's', 'c', 'h', 'w', 'e', 'i', 'n', 's', 't', 'e', 'i', 'g', 'e', 'r', 'return']","[0.3668848905235791, 0.5170513251086959, 0.6335648373133154, 0.6835686705853732, 0.9502136527999028, 1.0498995810985434, 1.2166151660931064, 1.2997856254532962, 1.4498811685607507, 1.4747708136255824, 1.566372226450767, 1.7497117026432534, 1.8163147273671711, 1.9329007349297171, 2.049581371386921, 2.1162649108673577, 2.199565605251337, 2.3660884039181838, 2.616051113717731, 3.149027359298998, 3.2324050399029147, 3.432317403921843, 3.5156588368472512, 3.6323814949500957, 3.898903940764285]",2017_Feb_20_1110,60.0000577398,famFaceFilter,001,19,
11,./img/gray_EmilyDeschanel6_12.png,0,35,35,10,,,None,None,2,1.33319219193,None,None,None,None,None,None,1,0.816792041935,,['return'],[0.5668184257538087],2017_Feb_20_1110,60.0000577398,famFaceFilter,001,19,
18,./img/gray_JasonSegel(Marshall)7_1.png,0,36,36,17,,,None,None,2,1.89934212067,None,None,None,None,None,None,2,0.783135270242,,['return'],[0.7831359117944885],2017_Feb_20_1110,60.0000577398,famFaceFilter,001,19,
64,./img/gray_LisaEdelstein(DrLisaCuddy)2_2.png,0,37,37,63,,,None,None,2,1.89968952099,None,None,None,None,None,None,5,1.0169581397,,['return'],[0.3835408593140528],2017_Feb_20_1110,60.0000577398,famFaceFilter,001,19,
7,./img/gray_OmarEpps(DrEricForeman)1_5.png,0,38,38,6,,,None,None,2,2.58242481574,None,None,None,None,None,None,2,1.64971269705,,['return'],[0.4836126810423593],2017_Feb_20_1110,60.0000577398,famFaceFilter,001,19,
12,./img/gray_BarackObama2_1.png,0,39,39,11,,,None,None,1,0.933421675021,None,None,None,None,None,None,4,1.5993755776,Barack Obama,"['lshift', 'b', 'a', 'r', 'a', 'c', 'k', 'space', 'lshift', 'o', 'b', 'a', 'm', 'a', 'return']","[0.517035927865436, 0.7335978451565097, 0.8999669921586246, 1.0001411414041286, 1.1332920173954335, 1.5832748719221854, 1.683196891296575, 1.833139424291403, 1.9496506910636526, 2.016147859735611, 2.166336427859278, 2.515999180097424, 2.682694235432791, 2.766020591890083, 3.249171676385231]",2017_Feb_20_1110,60.0000577398,famFaceFilter,001,19,
29,./img/gray_UrsulavonderLeyen4_1.png,0,40,40,28,,,None,None,1,1.09982001263,None,None,None,None,None,None,4,0.816667260103,Von der Leyen,"['lshift', 'v', 'o', 'n', 'space', 'd', 'e', 'r', 'space', 'lshift', 'l', 'e', 'y', 'e', 'n', 'return']","[0.4669002556902342, 0.700146049275645, 0.883542944357032, 1.549817622851151, 1.699799611283197, 1.76637344539904, 1.8663362033148587, 1.9829533261417964, 2.0997045333015194, 2.299540552651706, 2.532827726330652, 2.7159596605033585, 2.9825270149458447, 3.132545251056399, 3.6654945514601422, 3.9654825865191015]",2017_Feb_20_1110,60.0000577398,famFaceFilter,001,19,
25,./img/gray_MariskaHargitay(Liv)8_8.png,0,41,41,24,,,None,None,2,4.03234896827,None,None,None,None,None,None,1,0.666964346718,,['return'],[0.7664664704161623],2017_Feb_20_1110,60.0000577398,famFaceFilter,001,19,
28,./img/gray_GeorgeClooney4_2.png,0,42,42,27,,,None,None,1,1.23296800164,None,None,None,None,None,None,1,1.24973944976,George Clooney,"['lshift', 'g', 'e', 'r', 'o', 'g', 'e', 'space', 'lshift', 'backspace', 'backspace', 'backspace', 'backspace', 'backspace', 'o', 'r', 'g', 'e', 'space', 'backspace', 'backspace', 'backspace', 'backspace', 'backspace', 'o', 'r', 'g', 'e', 'space', 'lshift', 'c', 'l', 'o', 'o', 'n', 'e', 'y', 'return']","[0.5002535733638069, 0.7501030492639984, 0.9166640202656708, 1.1162546460382146, 1.2163999254516966, 1.4331764418320745, 1.5661364561510709, 1.6997867802474502, 2.016160690772267, 3.315721773083169, 3.4491036077351964, 3.598828333880192, 3.7322364721576378, 4.215433427609241, 4.781728026288874, 4.931766471282572, 5.065159853867954, 5.1480772210288706, 5.264953530796447, 5.614759028318986, 5.764706052175825, 5.914652755256611, 6.047898901695589, 6.197870304522439, 6.7809450122713315, 6.880896863805901, 7.064274833108357, 7.164175360496301, 7.2640925682317175, 7.597354047758927, 7.880595013666607, 8.113838241044505, 8.313638654268289, 8.413620658739092, 8.596966229673853, 8.680154973261779, 8.880086904611744, 9.246519821866968]",2017_Feb_20_1110,60.0000577398,famFaceFilter,001,19,
14,./img/gray_JoshRadnor(Ted)6_2.png,0,43,43,13,,,None,None,2,2.09956403345,None,None,None,None,None,None,1,0.699925676219,,['return'],[0.5335956638791686],2017_Feb_20_1110,60.0000577398,famFaceFilter,001,19,
30,./img/gray_BarackObama4_1.png,0,44,44,29,,,None,None,1,0.816604708798,None,None,None,None,None,None,4,0.783201029306,Barack Obama,"['lshift', 'b', 'a', 'r', 'a', 'c', 'k', 'space', 'lshift', 'o', 'b', 'a', 'm', 'a', 'return']","[0.5335793043077501, 0.7001826177302064, 0.8832818327591667, 0.9065881278911547, 1.0834148906105838, 1.2498584576260328, 1.3496534497362518, 1.516556688642595, 1.8163795241034677, 1.9663749851242756, 2.1661558310161126, 2.2496486701747926, 2.366024569510955, 2.432746281325308, 2.832513911249407]",2017_Feb_20_1110,60.0000577398,famFaceFilter,001,19,
49,./img/gray_NeilPatrickHarris(Barney)1_1.png,0,45,45,48,,,None,None,1,1.18331734265,None,None,None,None,None,None,1,0.633431073756,Barney Stinson,"['lshift', 'b', 'a', 'r', 'n', 'e', 'y', 'space', 'lshift', 's', 't', 'i', 'n', 's', 'o', 'n', 'return']","[0.4004194465915134, 0.6504549725241304, 0.7834521968507033, 0.8836138358356038, 0.9834986452033263, 1.1001500910524555, 1.283315706697067, 1.4333515854832513, 1.583226755535179, 1.683137547752267, 1.9497353759061298, 2.1328997084474395, 2.2495752124905266, 2.3663196833558686, 2.4493557376072204, 2.5494092751077915, 2.8823926419136114]",2017_Feb_20_1110,60.0000577398,famFaceFilter,001,19,
72,./img/gray_WillSmith4_1.png,0,46,46,71,,,None,None,1,1.73297553987,None,None,None,None,None,None,1,1.35045025712,Will Smith,"['lshift', 'w', 'i', 'l', 'l', 'space', 'lshift', 's', 'm', 'i', 't', 'h', 'return']","[0.31691217251591297, 0.5167744954915179, 0.717018221033868, 0.9999663185280951, 1.166736435428902, 1.4499870246136197, 1.549838794061543, 1.6329107752153504, 1.699628958494941, 1.8497440689334326, 1.933025195985465, 2.0492041389070437, 2.4491735368847003]",2017_Feb_20_1110,60.0000577398,famFaceFilter,001,19,
51,./img/gray_AlysonHannigan(Lily)1_1.png,0,47,47,50,,,None,None,1,6.19813879397,None,None,None,None,None,None,1,1.46637578706,Lilly How I Met your mother,"['lshift', 'h', 'o', 'backspace', 'backspace', 'lshift', 'l', 'i', 'l', 'l', 'y', 'space', 'lshift', '8', 'lshift', 'h', 'o', 'w', 'space', 'lshift', 'i', 'space', 'lshift', 'm', 'e', 't', 'space', 'y', 'o', 'u', 'r', 'space', 'm', 'o', 't', 'h', 'e', 'r', 'return']","[1.2666481899741484, 1.533170956563481, 1.733230556728813, 2.349315031142396, 2.59937012440696, 2.9826357579822798, 3.2990513693766843, 3.6322753181220833, 4.115499539526354, 4.281962994648893, 4.348706840000887, 4.615306592811066, 4.881835774919637, 4.9484577254233955, 5.548123284450412, 5.6148347314356215, 6.064587910404953, 6.181394611799078, 6.347839782693882, 6.530975886953456, 6.614424138259892, 7.246753346735204, 7.5473826128545625, 7.880546576503548, 8.047167853377687, 8.230512141208237, 8.44683540121514, 8.96336514468112, 9.130014008284888, 9.346586190404196, 9.546539934516659, 9.713010767485684, 9.91276723440842, 10.34612748084146, 10.562860692471986, 10.712715012088665, 10.829213447825168, 10.962513484618285, 12.911293269063208]",2017_Feb_20_1110,60.0000577398,famFaceFilter,001,19,
47,./img/gray_HughLaurie(DrHouse)5_3.png,0,48,48,46,,,None,None,1,2.49964377834,None,None,None,None,None,None,1,1.78284657192,Dr House,"['lshift', 'd', 'r', 'space', 'lshift', 'h', 'o', 'u', 's', 'e', 'return']","[1.083348810771895, 1.1831816544408866, 1.4000091741918368, 1.4831850867431058, 1.816358032117023, 1.932894319411389, 2.232924696891132, 2.3826378751036827, 2.499435273995914, 2.5827728576105073, 2.7824946807340893]",2017_Feb_20_1110,60.0000577398,famFaceFilter,001,19,
19,./img/gray_JasonSegel(Marshall)9_1.png,0,49,49,18,,,None,None,2,1.18331253101,None,None,None,None,None,None,1,2.13281053274,,['return'],[0.7335452379056733],2017_Feb_20_1110,60.0000577398,famFaceFilter,001,19,
46,./img/gray_GuentherJauch3_1.png,0,50,50,45,,,None,None,1,0.800091164516,None,None,None,None,None,None,3,2.1657991282,Günther Jauch,"['lshift', 'g', u'\xfc', 'n', 't', 'h', 'e', 'r', 'space', 'lshift', 'j', 'a', 'u', 'c', 'h', 'return']","[0.5335141867963102, 0.7334939137581387, 1.199937705316188, 1.4665515722672353, 1.5831225033607552, 1.6830178983336737, 1.7831400818813563, 1.8662945024461806, 1.982842337673901, 2.1994677685961506, 2.432634009753201, 2.51608482726715, 2.6328434122724502, 2.6992526883423125, 2.782535740050662, 3.3321791815787947]",2017_Feb_20_1110,60.0000577398,famFaceFilter,001,19,
27,./img/gray_LeonardoDiCaprio1_1.png,0,51,51,26,,,None,None,1,1.10015361959,None,None,None,None,None,None,1,0.849883606458,Leonardo Di Caprio,"['lshift', 'l', 'e', 'o', 'n', 'a', 'r', 'd', 'o', 'space', 'lshift', 'd', 'i', 'space', 'lshift', 'c', 'a', 'p', 'r', 'i', 'o', 'return']","[1.0164596539279955, 1.266806332501801, 1.4999148339938984, 1.6165043700912065, 1.7997861066178302, 1.9330752370296977, 1.9996064079477947, 2.21594442364767, 2.2660910022032112, 2.5827597057968887, 2.7827022227529596, 2.9159284810848476, 3.0990665099998296, 3.2825647702720744, 3.465608170291489, 3.6153345003158393, 3.6989319124240865, 3.965569516793039, 4.182041296050556, 4.5486560932513385, 4.698423803369224, 5.08154893709343]",2017_Feb_20_1110,60.0000577398,famFaceFilter,001,19,
33,./img/gray_KatjaBurkard4_1.png,0,52,52,32,,,None,None,2,1.08303829968,None,None,None,None,None,None,3,1.01656935929,Arbeitet bei rtl,"['lshift', 'lshift', 'a', 'r', 'b', 'e', 'i', 't', 'e', 't', 'space', 'b', 'e', 'i', 'space', 'r', 't', 'l', 'return']","[0.5001624730030017, 1.3997220797446062, 1.5330673459420723, 1.7660112893881887, 1.83302202030427, 1.9496510118397055, 2.0329873123500874, 2.14952873205948, 2.2327120224572354, 2.3329169661910782, 2.4660848433059073, 2.59941759924277, 2.68268525370695, 2.7326534808516953, 2.8992320945289975, 3.2657522628333027, 3.365780459036614, 3.549141747991598, 3.998858679282421]",2017_Feb_20_1110,60.0000577398,famFaceFilter,001,19,
52,./img/gray_EmilyDeschanel5_1.png,0,53,53,51,,,None,None,1,2.6159475031,None,None,None,None,None,None,2,0.933221190072,Sara Connor,"['lshift', 's', 'a', 'r', 'a', 'j', 'backspace', 'space', 'lshift', 'c', 'o', 'n', 'n', 'o', 'r', 'return']","[0.60011528686573, 0.7335458794568694, 0.8336096817874932, 1.0334553244156268, 1.1500320294753692, 1.283244173667299, 1.899730580306823, 2.1829099572378254, 2.2662212372270005, 2.3828409262596324, 2.5161849093537967, 2.6828331314054594, 2.7993469643852222, 2.949232399266293, 3.0490912257846503, 3.34874918242258]",2017_Feb_20_1110,60.0000577398,famFaceFilter,001,19,
69,./img/gray_OmarEpps(DrEricForeman)3_1.png,0,54,54,68,,,None,None,2,1.81641769644,None,None,None,None,None,None,1,1.04985531402,,['return'],[0.8168895578137381],2017_Feb_20_1110,60.0000577398,famFaceFilter,001,19,
39,./img/gray_UrsulavonderLeyen1_1.png,0,55,55,38,,,None,None,1,1.1832355448,None,None,None,None,None,None,4,0.800046576664,Von der Leyen,"['lshift', 'v', 'o', 'n', 'space', 'd', 'e', 'r', 'space', 'lshift', 'l', 'e', 'y', 'e', 'n', 'return']","[0.3836710943369326, 0.666751351509447, 0.8333543441567599, 0.9832118715321485, 1.1498321860790384, 1.2831684705506632, 1.3662648306744813, 1.499721726891039, 1.6331353183595638, 1.8827458162004405, 2.0829423876830333, 2.2661907635147145, 2.5160142565655406, 2.665913484810517, 2.79936877714772, 3.215728862231117]",2017_Feb_20_1110,60.0000577398,famFaceFilter,001,19,
22,./img/gray_GuentherJauch4_1.png,0,56,56,21,,,None,None,1,1.89973475039,None,None,None,None,None,None,3,1.76603149827,Günther Jauch,"['lshift', 'g', u'\xfc', 'n', 't', 'h', 'e', 'r', 'space', 'lshift', 'j', 'a', 'u', 'c', 'h', 'return']","[0.48341315842026233, 0.6502711679222557, 1.0498768060087968, 1.283067746911911, 1.516330541620846, 1.6665393186267465, 1.7996055097755743, 1.8902170081164513, 1.9835284773635067, 2.1662142122331716, 2.266067264785306, 2.3662346777373386, 2.43261732940573, 2.5659885784525613, 2.6326714763808923, 3.0991730076048043]",2017_Feb_20_1110,60.0000577398,famFaceFilter,001,19,
41,./img/gray_RobertSeanLeonard(Wilson)1_1.png,0,57,57,40,,,None,None,1,2.51603157846,None,None,None,None,None,None,1,0.833723878014,Patrick Swayze,"['lshift', 'p', 'a', 't', 'r', 'i', 'c', 'k', 'space', 'lshift', 's', 'w', 'a', 'y', 'z', 'e', 'return']","[0.43355014577628026, 0.6668155066927284, 0.7500440264948338, 1.0167961478664438, 1.0998443916014367, 1.1998998537583248, 1.333174228477219, 1.4164996226072617, 1.5497534676678697, 1.9160314501541507, 2.3160457567601043, 3.032464126827108, 3.1991649561286977, 3.399061602128313, 3.7155609360370363, 3.7989277102597043, 4.082025289331796]",2017_Feb_20_1110,60.0000577398,famFaceFilter,001,19,
