num,pic,trials.thisRepN,trials.thisTrialN,trials.thisN,trials.thisIndex,key_resp_2.keys,key_resp_2.rt,ratingBekannt.response,ratingBekannt.rt,key_resp_5.keys,ratingK1.response,ratingK1.rt,ratingK2.response,ratingK2.rt,ratingK3.response,ratingK3.rt,key_resp_6.keys,inputText,key_resp_4.keys,key_resp_4.rt,date,frameRate,expName,session,participant,
,,,,,,space,34.566599015,,,,,,,,,,,,,,2017_Jan_24_1324,60.0775289406,famFaceFilter,001,1,
1,./img/smoo15_Ice-T(OdafinFinTutuola)6_1.png,0,0,0,0,,,2.nein,10.973,None,act,2.768,None,None,None,None,None,,['return'],[1.2498821950430283],2017_Jan_24_1324,60.0775289406,famFaceFilter,001,1,
40,./img/smoo15_NeilPatrickHarris(Barney)2_2.png,0,1,1,39,,,2.nein,7.896,None,None,None,host,1.221,None,None,None,,['return'],[0.3835892964780214],2017_Jan_24_1324,60.0775289406,famFaceFilter,001,1,
6,./img/smoo15_AlysonHannigan(Lily)1_1.png,0,2,2,5,,,2.nein,7.325,None,act,1.568,None,None,None,None,None,,['return'],[0.3670321266690735],2017_Jan_24_1324,60.0775289406,famFaceFilter,001,1,
12,./img/smoo15_MariskaHargitay(Liv)8_8.png,0,3,3,11,,,2.nein,3.83,None,dummy,1.724,None,None,None,None,None,,['return'],[0.4835754710366018],2017_Jan_24_1324,60.0775289406,famFaceFilter,001,1,
3,./img/smoo15_JoshRadnor(Ted)3_1.png,0,4,4,2,,,2.nein,2.912,None,None,None,None,None,sport,0.691,None,,['return'],[0.35043902996039833],2017_Jan_24_1324,60.0775289406,famFaceFilter,001,1,
44,./img/smoo15_GuentherJauch2_1.png,0,5,5,43,,,1.ja,1.423,None,None,None,host,1.356,None,None,None,Günther Jauch,"['lshift', 'g', u'\xfc', 'n', 't', 'h', 'e', 'r', 'space', 'lshift', 'j', 'a', 'u', 'c', 'h', 'return']","[1.1165388535009697, 1.233403936112154, 1.6164524043924757, 1.8661389261251315, 2.0829266696619015, 2.23282397325238, 2.349502364279033, 2.4494609521079838, 2.6159808637912647, 2.749181780825893, 2.8657995452031173, 3.048984728178766, 3.199177145614158, 3.3323774210966803, 3.4656360777953523, 4.748414484829482]",2017_Jan_24_1324,60.0775289406,famFaceFilter,001,1,
64,./img/smoo15_JoachimLoew8_1.png,0,6,6,63,,,1.ja,1.305,None,None,None,None,None,sport,0.856,None,Jogi Löw,"['lshift', 'j', 'o', 'g', 'i', 'space', 'lshift', 'l', u'\xf6', 'w', 'return']","[0.800081541237887, 0.9166771720774705, 1.3331431132137368, 1.6329710810878169, 1.7665238893041533, 1.9496301614035474, 2.066172864217151, 2.1828611992968945, 2.3827225599452504, 2.499380100536655, 3.465688043494083]",2017_Jan_24_1324,60.0775289406,famFaceFilter,001,1,
43,./img/smoo15_JoachimLoew1_1.png,0,7,7,42,,,1.ja,1.26,None,None,None,None,None,sport,0.656,None,Jogi Löw,"['lshift', 'j', 'o', 'g', 'i', 'space', 'lshift', 'l', u'\xf6', 'w', 'return']","[0.90007124433032, 0.9833212561188702, 1.29990527487098, 1.6831436424927233, 1.8495679629540973, 2.032837189219208, 2.1494074787606223, 2.2327367222023895, 2.416154467717206, 2.549275190773187, 3.4323032897809753]",2017_Jan_24_1324,60.0775289406,famFaceFilter,001,1,
34,./img/smoo15_EmilyDeschanel5_1.png,0,8,8,33,,,1.ja,2.719,None,act,0.825,None,None,None,None,None,,['return'],[0.46695992001150444],2017_Jan_24_1324,60.0775289406,famFaceFilter,001,1,
29,./img/smoo15_GuentherJauch3_1.png,0,9,9,28,,,1.ja,1.287,None,None,None,host,1.09,None,None,None,Günther Jauch,"['lshift', 'g', u'\xfc', 'n', 't', 'h', 'e', 'r', 'space', 'lshift', 'j', 'a', 'u', 'c', 'h', 'return']","[0.9332612870621233, 1.0998662043657532, 1.449815730273258, 1.666429613263972, 1.8162691771885875, 1.9496025746757368, 2.0662350947459345, 2.1827992895450734, 2.282861808773305, 2.4327206192519952, 2.5495032624512532, 2.699335448529382, 2.815955779115029, 2.9824744076959178, 3.0825035662273876, 3.8154701243747695]",2017_Jan_24_1324,60.0775289406,famFaceFilter,001,1,
13,./img/smoo15_GeorgeClooney3_1.png,0,10,10,12,,,1.ja,2.848,None,act,0.724,None,None,None,None,None,George Cloony,"['lshift', 'g', 'e', 'o', 'r', 'g', 'e', 'space', 'lshift', 'c', 'l', 'o', 'o', 'n', 'y', 'return']","[0.7334018510700844, 0.9666264734441938, 1.2498472304687311, 1.5165554055402026, 1.6997861386953446, 1.8996449331352778, 1.9993250874686055, 2.1494764455856057, 2.3659501494985307, 2.6660087552572804, 2.9992343078829435, 3.232445457668291, 3.365686792469205, 3.5322525751089415, 3.649027840463532, 4.781805974836971]",2017_Jan_24_1324,60.0775289406,famFaceFilter,001,1,
28,./img/smoo15_HughLaurie(DrHouse)5_3.png,0,11,11,27,,,1.ja,2.162,None,dummy,0.656,None,None,None,None,None,,['return'],[0.4002147915543901],2017_Jan_24_1324,60.0775289406,famFaceFilter,001,1,
52,./img/smoo15_BastianSchweinsteiger3_1.png,0,12,12,51,,,1.ja,1.372,None,None,None,None,None,sport,0.591,None,Schweinsteiger,"['lshift', 's', 'c', 'h', 'w', 'e', 'i', 'n', 's', 't', 'e', 'i', 'g', 'e', 'r', 'return']","[1.1334135914676153, 1.283292931606411, 1.6830522213567747, 1.7831557999015786, 1.9329988923600467, 2.032851624137038, 2.166312048888358, 2.2995851405048597, 2.3994314567626134, 2.5326981328598777, 2.6492706678327522, 2.78249917159701, 2.882590239880301, 2.9992824242708593, 3.115556316863149, 4.71526774684753]",2017_Jan_24_1324,60.0775289406,famFaceFilter,001,1,
20,./img/smoo15_NicoleKidman5_1.png,0,13,13,19,,,2.nein,3.296,None,dummy,0.857,None,None,None,None,None,,['return'],[0.25037875616544625],2017_Jan_24_1324,60.0775289406,famFaceFilter,001,1,
65,./img/smoo15_UrsulavonderLeyen4_1.png,0,14,14,64,,,1.ja,2.416,None,None,None,None,None,polit,2.024,None,Ursula von der Leyen,"['v', 'o', 'backspace', 'backspace', 'lshift', 'u', 'r', 's', 'u', 'l', 'a', 'space', 'v', 'o', 'n', 'space', 'd', 'e', 'r', 'space', 'lshift', 'l', 'e', 'y', 'e', 'n', 'return']","[1.5664729500895191, 1.7164257479125808, 2.082995636485066, 2.2325327087182814, 2.5825454274836375, 2.6991686450510315, 2.999256762195728, 3.315830516117785, 3.4489890907316294, 3.665564801385699, 3.7988067777387187, 3.8986774729655735, 4.0654341172776185, 4.132037462777589, 4.248790273817576, 4.415228066865893, 4.498703263348943, 4.648210182645926, 4.748446883197175, 4.881712917742334, 5.065062017210948, 5.164926296920385, 5.364826792230815, 5.598033771930204, 5.798073804764499, 5.93125515446809, 7.413995645787509]",2017_Jan_24_1324,60.0775289406,famFaceFilter,001,1,
38,./img/smoo15_AlysonHannigan(Lily)5_4.png,0,15,15,37,,,1.ja,3.441,None,act,0.624,None,None,None,None,None,Nicole Richtie,"['lshift', 'n', 'i', 'c', 'o', 'l', 'e', 'space', 'lshift', 'r', 'i', 'c', 'h', 't', 'i', 'e', 'return']","[0.8167323776142439, 0.9166505476769089, 1.183130330293352, 1.4664460369895096, 1.5829175275484886, 1.7664456199818233, 1.9160744341279496, 2.149549261717766, 2.3327456718507165, 2.466174019011305, 2.799014961308785, 3.015785382947797, 3.132444206643413, 3.3488672279599996, 3.44893840813711, 3.598812295083917, 4.548459457613717]",2017_Jan_24_1324,60.0775289406,famFaceFilter,001,1,
23,./img/smoo15_JoachimLoew4_1.png,0,16,16,22,,,1.ja,1.011,None,None,None,None,None,sport,0.606,None,Jogi Löw,"['lshift', 'j', 'o', 'g', 'i', 'space', 'lshift', 'l', u'\xf6', 'w', 'return']","[0.8167936458139593, 0.8834226533890615, 1.5832052635487344, 1.8830351560791314, 2.049682095026583, 2.1995777947358874, 2.349518082299255, 2.4660267828658107, 2.6327022708701406, 2.7494720830327424, 3.5490795174628147]",2017_Jan_24_1324,60.0775289406,famFaceFilter,001,1,
53,./img/smoo15_GuentherJauch4_1.png,0,17,17,52,,,1.ja,1.172,None,None,None,host,0.59,None,None,None,Günther Jauch,"['lshift', 'g', u'\xfc', 'n', 't', 'h', 'e', 'r', 'space', 'lshift', 'j', 'a', 'u', 'c', 'h', 'return']","[0.8167772862434504, 0.8999458209473232, 1.183228808500644, 1.3833288264322618, 1.5331706357883377, 1.6662920003946056, 1.7831112120493344, 1.8995904012299434, 1.982915153806971, 2.166171228262101, 2.2663556423376576, 2.4327421112393495, 2.56621472547522, 2.715986284905739, 2.849287284027014, 3.8321556045484613]",2017_Jan_24_1324,60.0775289406,famFaceFilter,001,1,
72,./img/smoo15_HughLaurie(DrHouse)2_1.png,0,18,18,71,,,1.ja,2.0,None,act,0.823,None,None,None,None,None,,['return'],[0.7168491721258761],2017_Jan_24_1324,60.0775289406,famFaceFilter,001,1,
22,./img/smoo15_WillSmith1_1.png,0,19,19,21,,,1.ja,1.329,None,None,None,music,0.657,None,None,None,Man in black,"['lshift', 'm', 'a', 'n', 'space', 'i', 'n', 'space', 'b', 'l', 'a', 'c', 'k', 'return']","[4.731957076333856, 4.8982938249682775, 5.165056211168121, 5.248275428468332, 5.414852117490227, 5.581393521160862, 5.664664383384661, 5.864735210707295, 6.030922477762942, 6.264355283708937, 6.364617004781394, 6.464441829051793, 6.54767483971591, 7.697348562491243]",2017_Jan_24_1324,60.0775289406,famFaceFilter,001,1,
11,./img/smoo15_LeonardoDiCaprio3_1.png,0,20,20,10,,,1.ja,1.93,None,dummy,0.707,None,None,None,None,None,Leonardo di Caprio,"['lshift', 'l', 'e', 'o', 'n', 'a', 'r', 'd', 'o', 'space', 'd', 'i', 'space', 'lshift', 'c', 'a', 'p', 'r', 'i', 'o', 'return']","[0.6834653807400173, 0.7834108167553495, 1.0166550064623152, 1.2329657562077045, 1.4831164406950847, 1.5998368533673784, 1.749711381866291, 1.9662909418329946, 2.0830059013132995, 2.266299827326293, 2.3992842206153, 2.4991796155882184, 2.6658964836860832, 2.8323227288019552, 2.9157401856191427, 3.0992586547745304, 3.2657128073951753, 3.4824197154011927, 3.6489976875254797, 3.7990181690674945, 5.264805332320975]",2017_Jan_24_1324,60.0775289406,famFaceFilter,001,1,
36,./img/smoo15_BastianSchweinsteiger6_2.png,0,21,21,35,,,1.ja,1.232,None,None,None,None,None,sport,0.557,None,Schweinsteiger,"['lshift', 's', 'c', 'h', 'w', 'e', 'i', 'n', 's', 't', 'e', 'i', 'g', 'e', 'r', 'return']","[0.766908178855374, 0.8841164916993876, 1.1332666760972643, 1.266771367925685, 1.4166834272091364, 1.533355402716552, 1.5615451904304791, 1.6998868623340968, 1.7830727189375466, 1.8830187965068035, 1.999753644095108, 2.099729553823636, 2.21625236852924, 2.3329111922248558, 2.4162487758385396, 3.2658552319026057]",2017_Jan_24_1324,60.0775289406,famFaceFilter,001,1,
71,./img/smoo15_AngelaMerkel1_1.png,0,22,22,70,,,1.ja,1.114,None,None,None,None,None,polit,0.606,None,Angela Merkel,"['lshift', 'a', 'n', 'g', 'e', 'l', 'a', 'space', 'lshift', 'm', 'e', 'r', 'k', 'e', 'l', 'return']","[1.216704662574557, 1.3501047814552294, 1.6997290405815875, 1.9329818912374321, 2.0497231543449743, 2.14968334605328, 2.299644484050077, 2.399503631344487, 2.566160835121991, 2.666086703806286, 2.8327827214707213, 2.9326380194524972, 3.065752326989241, 3.1658623210514634, 3.2826664562380756, 4.248691154059998]",2017_Jan_24_1324,60.0775289406,famFaceFilter,001,1,
51,./img/smoo15_LeonardoDiCaprio1_1.png,0,23,23,50,,,1.ja,1.803,None,act,0.808,None,None,None,None,None,Leonardo di Caprio,"['lshift', 'l', 'e', 'o', 'n', 'a', 'r', 'd', 'o', 'space', 'd', 'i', 'space', 'lshift', 'c', 'a', 'p', 'r', 'i', 'o', 'return']","[0.7834159491703758, 0.9166624163844972, 1.1499059645393572, 1.3332598756478546, 1.5663911522296985, 1.6996818865209207, 1.79953654295241, 2.01613887800886, 2.1491903134647146, 2.31600437666566, 2.432711637524335, 2.549004455897375, 2.6826278348162305, 2.8492548856575013, 2.948915793433116, 3.132443244314345, 3.282335415489797, 3.482301349085901, 3.682144425507431, 3.79884879938254, 4.915070084725812]",2017_Jan_24_1324,60.0775289406,famFaceFilter,001,1,
57,./img/smoo15_UrsulavonderLeyen5_1.png,0,24,24,56,,,2.nein,3.757,None,None,None,None,None,polit,0.774,None,,['return'],[0.30042557341039355],2017_Jan_24_1324,60.0775289406,famFaceFilter,001,1,
50,./img/smoo15_OmarEpps(DrEricForeman)2_2.png,0,25,25,49,,,1.ja,1.448,None,act,1.091,None,None,None,None,None,,['return'],[1.216707549558123],2017_Jan_24_1324,60.0775289406,famFaceFilter,001,1,
8,./img/smoo15_AngelaMerkel4_1.png,0,26,26,7,,,1.ja,0.927,None,None,None,None,None,polit,0.64,None,Angela Merkel,"['lshift', 'a', 'n', 'g', 'e', 'l', 'a', 'space', 'lshift', 'm', 'e', 'r', 'k', 'e', 'l', 'return']","[0.8001023916731356, 0.9166993056169304, 1.283216586938579, 1.5000781089365773, 1.566167571414553, 1.6831523034434213, 1.8496767059914418, 1.9664009679727315, 2.0828849687932234, 2.199709954415084, 2.3494702866864827, 2.4658910946509423, 2.566097000713853, 2.666106912689429, 2.7824796042659727, 3.7654489692031348]",2017_Jan_24_1324,60.0775289406,famFaceFilter,001,1,
39,./img/smoo15_BarackObama2_1.png,0,27,27,38,,,1.ja,0.987,None,None,None,None,None,polit,0.79,None,Barack Obama,"['lshift', 'b', 'a', 'r', 'a', 'c', 'k', 'space', 'lshift', 'o', 'b', 'a', 'm', 'a', 'return']","[0.7168369826395065, 0.8166951676066674, 1.0332570848968317, 1.23294875508509, 1.3831581736430962, 1.6163969101580733, 1.7329851631511701, 1.8996503863254475, 1.9830036879611725, 2.082735807991412, 2.382736674086118, 2.599272287750864, 2.6994332851845684, 2.8159182483323093, 3.7487753577370313]",2017_Jan_24_1324,60.0775289406,famFaceFilter,001,1,
62,./img/smoo15_RobertSeanLeonard(Wilson)1_1.png,0,28,28,61,,,2.nein,1.545,None,None,None,None,None,sport,0.939,None,,['return'],[0.25052214300194464],2017_Jan_24_1324,60.0775289406,famFaceFilter,001,1,
48,./img/smoo15_JoshRadnor(Ted)6_2.png,0,29,29,47,,,2.nein,1.201,None,dummy,0.707,None,None,None,None,None,,['return'],[0.4338314662581979],2017_Jan_24_1324,60.0775289406,famFaceFilter,001,1,
4,./img/smoo15_UrsulavonderLeyen1_1.png,0,30,30,3,,,2.nein,1.507,None,None,None,None,None,polit,0.858,None,,['return'],[0.2002934458105301],2017_Jan_24_1324,60.0775289406,famFaceFilter,001,1,
46,./img/smoo15_NeilPatrickHarris(Barney)1_1.png,0,31,31,45,,,2.nein,1.376,None,None,None,host,0.841,None,None,None,,['return'],[0.20026297209915356],2017_Jan_24_1324,60.0775289406,famFaceFilter,001,1,
2,./img/smoo15_WillSmith5_1.png,0,32,32,1,,,1.ja,1.084,None,act,4.056,None,None,None,None,None,Man in black,"['lshift', 'm', 'a', 'n', 'space', 'i', 'n', 'space', 'b', 'l', 'a', 'c', 'k', 'return']","[0.7333409036455123, 0.8667503250271693, 1.2832236440081033, 1.4165047550231975, 1.5497015019700484, 1.699694717559396, 1.816410639368769, 1.982960703988283, 2.132956165009091, 2.38268727459581, 2.4827597378753126, 2.615702109518679, 2.6995327257209283, 3.799075908735176]",2017_Jan_24_1324,60.0775289406,famFaceFilter,001,1,
33,./img/smoo15_Ice-T(OdafinFinTutuola)7_1.png,0,33,33,32,,,2.nein,1.808,None,None,None,host,0.989,None,None,None,,['return'],[1.1166591444725782],2017_Jan_24_1324,60.0775289406,famFaceFilter,001,1,
27,./img/smoo15_JasonSegel(Marshall)9_1.png,0,34,34,26,,,2.nein,1.745,None,None,None,host,1.891,None,None,None,,['return'],[0.20038743315308238],2017_Jan_24_1324,60.0775289406,famFaceFilter,001,1,
14,./img/smoo15_BritneySpears7_1.png,0,35,35,13,,,1.ja,2.185,None,None,None,music,0.923,None,None,None,Britney Spears,"['lshift', 'b', 'r', 'i', 'n', 't', 'e', 'backspace', 'backspace', 'backspace', 't', 'n', 'e', 'y', 'space', 'lshift', 's', 'p', 'e', 'a', 'r', 's', 'return']","[0.7834034389106819, 0.9166422075031733, 1.1498790193636523, 1.3330885813084024, 1.4997871651794412, 1.749801199124704, 1.8829398856305488, 2.499464143827936, 2.749219632385575, 2.9159650495403184, 3.831864660791325, 4.131981006215938, 4.232056998031112, 4.481914814106858, 4.63156961110144, 4.814959128336341, 4.915172091468776, 5.247979673071313, 5.997831875567499, 6.147980988253039, 6.2812720433212235, 6.431079850428432, 7.863699104489569]",2017_Jan_24_1324,60.0775289406,famFaceFilter,001,1,
45,./img/smoo15_RobertSeanLeonard(Wilson)2_6.png,0,36,36,44,,,2.nein,2.24,None,None,None,None,None,sport,0.89,None,,['return'],[0.2503469993498584],2017_Jan_24_1324,60.0775289406,famFaceFilter,001,1,
55,./img/smoo15_MariskaHargitay(Liv)4_4.png,0,37,37,54,,,2.nein,1.385,None,None,None,host,0.641,None,None,None,,['return'],[0.21706842246567248],2017_Jan_24_1324,60.0775289406,famFaceFilter,001,1,
70,./img/smoo15_JasonSegel(Marshall)7_1.png,0,38,38,69,,,2.nein,1.549,None,dummy,1.191,None,None,None,None,None,,['return'],[0.2001882313088572],2017_Jan_24_1324,60.0775289406,famFaceFilter,001,1,
35,./img/smoo15_KatjaBurkard1_1.png,0,39,39,34,,,1.ja,3.017,None,None,None,host,0.924,None,None,None,Katja Burkhard,"['lshift', 'k', 'a', 't', 'j', 'a', 'space', 'lshift', 'b', 'u', 'r', 'k', 'h', 'a', 'r', 'd', 'return']","[0.9499676176710636, 1.0501783353720384, 1.283221398576643, 1.4831421027683973, 1.7497405724752753, 1.899607402352558, 2.0328480956013664, 2.1828188568761107, 2.2496688790579356, 2.4494115526158566, 2.5993614634571713, 2.9326219806553127, 3.1822671222962526, 3.2823437556635326, 3.3824223136853107, 3.6321999357805907, 4.715109604319878]",2017_Jan_24_1324,60.0775289406,famFaceFilter,001,1,
31,./img/smoo15_BritneySpears1_1.png,0,40,40,30,,,1.ja,1.191,None,None,None,music,0.657,None,None,None,Britney Spears,"['lshift', 'b', 'r', 'i', 't', 'n', 'e', 'y', 'space', 'lshift', 's', 'p', 'e', 'a', 'r', 's', 'return']","[0.9165892794771935, 1.0164862783294666, 1.2166543007551809, 1.4164976979518542, 1.7829825809058093, 2.0328359061168157, 2.1662061928363983, 2.4329326521328767, 2.582703249236147, 2.7658294094417215, 2.8826120526427985, 3.182465361815048, 3.3156637126412534, 3.4322173218351963, 3.5655523232035193, 3.7320231561716355, 4.798456169659403]",2017_Jan_24_1324,60.0775289406,famFaceFilter,001,1,
37,./img/smoo15_Ice-T(OdafinFinTutuola)5_1.png,0,41,41,36,,,2.nein,1.472,None,act,2.322,None,None,None,None,None,,['return'],[0.29984496899851365],2017_Jan_24_1324,60.0775289406,famFaceFilter,001,1,
56,./img/smoo15_MariskaHargitay(Liv)6_5.png,0,42,42,55,,,2.nein,2.218,None,None,None,host,0.59,None,None,None,,['return'],[0.2170555914290162],2017_Jan_24_1324,60.0775289406,famFaceFilter,001,1,
7,./img/smoo15_LisaEdelstein(DrLisaCuddy)2_2.png,0,43,43,6,,,2.nein,1.353,None,None,None,host,0.99,None,None,None,,['return'],[0.21705494987691054],2017_Jan_24_1324,60.0775289406,famFaceFilter,001,1,
58,./img/smoo15_EmilyDeschanel3_1.png,0,44,44,57,,,1.ja,1.686,None,act,0.624,None,None,None,None,None,,['return'],[0.31725187421398005],2017_Jan_24_1324,60.0775289406,famFaceFilter,001,1,
41,./img/smoo15_AngelaMerkel3_1.png,0,45,45,40,,,1.ja,1.101,None,None,None,None,None,polit,0.657,None,Angela Merkel,"['lshift', 'a', 'n', 'g', 'e', 'l', 'a', 'space', 'lshift', 'm', 'e', 'r', 'k', 'e', 'l', 'return']","[0.9164292122932238, 1.0333427320674673, 1.4161900738454278, 1.666374439804713, 1.7496837951384805, 1.883048307890931, 2.032636062718666, 2.149445009545161, 2.2996002169729763, 2.3991892709436797, 2.549464448566141, 2.682690065345014, 2.81586211254762, 2.915811077098624, 3.032582813917543, 4.481955873423431]",2017_Jan_24_1324,60.0775289406,famFaceFilter,001,1,
16,./img/smoo15_WillSmith4_1.png,0,46,46,15,,,1.ja,2.0,None,act,3.89,None,None,None,None,None,Smith Man in black,"['lshift', 's', 'm', 'i', 't', 'h', 'space', 'lshift', '8', 'lshift', 'm', 'a', 'n', 'space', 'i', 'n', 'space', 'b', 'l', 'a', 'c', 'k', 'lshift', '9', 'return']","[1.0166841970712994, 1.150091373021496, 1.599838457248552, 1.7830987017878215, 1.9496115564015781, 2.116178942922488, 2.915803057700032, 3.5489983611569187, 3.6322576754464535, 3.9321437037615397, 4.032514167871341, 4.232060847341927, 4.332062098368624, 4.448559571777878, 4.581947821947324, 4.698451390098853, 4.848225194959014, 4.998471823524596, 5.231708956160219, 5.431560372755484, 5.5814130884918995, 5.664599586649274, 5.947901499979707, 6.031051750458573, 7.897277606858552]",2017_Jan_24_1324,60.0775289406,famFaceFilter,001,1,
32,./img/smoo15_TomCruise1_1.png,0,47,47,31,,,1.ja,3.684,None,act,0.723,None,None,None,None,None,Hugh Grant,"['lshift', 'h', 'u', 'g', 'h', 'space', 'lshift', 'g', 'r', 'a', 'n', 't', 'return']","[0.7498759399150003, 0.8669395828183042, 1.0999919485257124, 1.2332374534125847, 1.3498186493361573, 1.4828931806569017, 1.5330320605917223, 1.6827997707096074, 1.799692119273459, 1.9498049842804903, 2.066288664325839, 2.183098573477764, 3.2991232231834147]",2017_Jan_24_1324,60.0775289406,famFaceFilter,001,1,
61,./img/smoo15_OmarEpps(DrEricForeman)3_1.png,0,48,48,60,,,2.nein,2.146,None,None,None,music,1.24,None,None,None,,['return'],[0.33359701113840856],2017_Jan_24_1324,60.0775289406,famFaceFilter,001,1,
17,./img/smoo15_GeorgeClooney11_1.png,0,49,49,16,,,1.ja,1.93,None,dummy,0.508,None,None,None,None,None,Greorge Cloony,"['lshift', 'g', 'r', 'e', 'o', 'r', 'g', 'e', 'space', 'lshift', 'c', 'l', 'o', 'o', 'n', 'y', 'return']","[0.8333540233797976, 0.9666527770696121, 1.2663784174274042, 1.466490945618716, 1.7997081580688246, 1.9496766739139275, 2.0828689299978578, 3.2324534770668834, 3.465696704444781, 3.6488748303490866, 3.948730064177653, 4.165300642418515, 4.31532336939199, 4.481625153452114, 4.615174753909741, 5.6981585216854]",2017_Jan_24_1324,60.0775289406,famFaceFilter,001,1,
67,./img/smoo15_GeorgeClooney4_2.png,0,50,50,66,,,1.ja,3.486,None,dummy,0.591,None,None,None,None,None,George Cloony,"['lshift', 'g', 'e', 'o', 'r', 'g', 'e', 'space', 'lshift', 'c', 'l', 'o', 'o', 'n', 'y', 'return']","[0.9998187616056384, 1.0831152859027497, 1.3332906701361935, 1.4664402630223776, 1.5831183332738874, 1.7663965412648395, 1.8496147962378018, 1.9828445831044519, 2.1329240874165407, 2.266147458763953, 2.5494099166589876, 2.782579365575657, 2.915804340804243, 3.049172061315403, 3.198910580826123, 4.048498752663363]",2017_Jan_24_1324,60.0775289406,famFaceFilter,001,1,
15,./img/smoo15_LisaEdelstein(DrLisaCuddy)1_1.png,0,51,51,14,,,2.nein,1.189,None,None,None,host,0.59,None,None,None,,['return'],[0.28358708312407543],2017_Jan_24_1324,60.0775289406,famFaceFilter,001,1,
49,./img/smoo15_TomCruise5_1.png,0,52,52,48,,,1.ja,1.47,None,act,0.958,None,None,None,None,None,Hugh Grant,"['lshift', 'h', 'u', 'g', 'h', 'space', 'lshift', 'g', 'r', 'a', 'n', 't', 'return']","[0.7500857273644215, 0.8834261819229141, 1.1163422178633482, 1.2499084986684466, 1.3499084665909322, 1.4998426594120247, 1.5664793656069378, 1.6832135716449557, 1.8329569027937396, 1.9663056975259678, 2.0828801571551594, 2.2494831498006533, 4.34863113688516]",2017_Jan_24_1324,60.0775289406,famFaceFilter,001,1,
68,./img/smoo15_AlysonHannigan(Lily)8_3.png,0,53,53,67,,,1.ja,3.664,None,act,0.741,None,None,None,None,None,Nicole Richtie,"['lshift', 'n', 'i', 'c', 'o', 'l', 'e', 'space', 'lshift', 'r', 'i', 'c', 'h', 't', 'i', 'e', 'return']","[1.1335181644171826, 1.233310269544745, 1.4831927853647358, 1.7166506118319376, 1.8497363703118026, 2.0163781768442277, 2.1498151849536953, 2.5829011679779796, 2.832730114218066, 2.965976581434006, 3.2659508231263317, 3.565810868592962, 3.6657704187509808, 3.8157604265798, 3.915594553353003, 4.048981520420057, 4.682012265830053]",2017_Jan_24_1324,60.0775289406,famFaceFilter,001,1,
10,./img/smoo15_KatjaBurkard5_3.png,0,54,54,9,,,1.ja,0.955,None,None,None,host,0.773,None,None,None,Katja Burkhard,"['lshift', 'k', 'a', 't', 'j', 'a', 'space', 'lshift', 'b', 'u', 'r', 'k', 'h', 'a', 'r', 'd', 'return']","[0.6502406942090602, 0.8168161001285625, 1.0166437793050136, 1.25011860689483, 1.4166234421118133, 1.5164925334593136, 1.6332180785448145, 1.783273203885983, 1.8498293953271059, 2.0662177728463575, 2.166329691563078, 2.9161427593971894, 3.232574730363922, 3.3658946552623092, 3.5323542610749428, 3.7655782418969466, 4.931838325086574]",2017_Jan_24_1324,60.0775289406,famFaceFilter,001,1,
26,./img/smoo15_TomCruise4_1.png,0,55,55,25,,,2.nein,2.366,None,dummy,0.407,None,None,None,None,None,,['return'],[0.3339492230970791],2017_Jan_24_1324,60.0775289406,famFaceFilter,001,1,
63,./img/smoo15_RobertSeanLeonard(Wilson)8_1.png,0,56,56,62,,,2.nein,1.1,None,None,None,None,None,sport,1.24,None,,['return'],[0.41694550113425066],2017_Jan_24_1324,60.0775289406,famFaceFilter,001,1,
30,./img/smoo15_KatjaBurkard4_1.png,0,57,57,29,,,1.ja,1.257,None,None,None,host,0.574,None,None,None,Katja Burkhard,"['lshift', 'k', 'a', 't', 'h', 'a', 'backspace', 'backspace', 'j', 'a', 'space', 'lshift', 'b', 'u', 'r', 'k', 'h', 'a', 'r', 'd', 'return']","[0.8833617059626704, 0.9833190106892289, 1.1832310539321043, 1.4498638466611737, 1.666483824392344, 1.8163901097086637, 2.199506903258225, 2.332668044078673, 2.9991656618367415, 3.149138347765984, 3.299008706178938, 3.4822583651148307, 3.5322978045132913, 3.7323150622578396, 3.848923203358936, 4.098762735204218, 4.365309559989328, 4.498509835470031, 4.631882688398036, 4.815083268616945, 5.814754473300127]",2017_Jan_24_1324,60.0775289406,famFaceFilter,001,1,
18,./img/smoo15_HughLaurie(DrHouse)4_1.png,0,58,58,17,,,1.ja,2.491,None,act,0.675,None,None,None,None,None,,['return'],[0.3169375138131727],2017_Jan_24_1324,60.0775289406,famFaceFilter,001,1,
25,./img/smoo15_JasonSegel(Marshall)6_1.png,0,59,59,24,,,2.nein,1.369,None,dummy,0.508,None,None,None,None,None,,['return'],[0.30066230603915756],2017_Jan_24_1324,60.0775289406,famFaceFilter,001,1,
59,./img/smoo15_JoshRadnor(Ted)1_2.png,0,60,60,58,,,2.nein,1.184,None,None,None,None,None,sport,0.724,None,,['return'],[0.250282844166577],2017_Jan_24_1324,60.0775289406,famFaceFilter,001,1,
69,./img/smoo15_BritneySpears5_1.png,0,61,61,68,,,1.ja,1.125,None,None,None,music,0.674,None,None,None,Britney Spears,"['lshift', 'b', 'r', 'i', 't', 'n', 'e', 'y', 'space', 'lshift', 's', 'p', 'e', 'a', 'r', 's', 'return']","[0.7334781957379164, 0.8334505769325915, 1.0500227590528084, 1.199895362895404, 1.4331235138051852, 1.649481096836098, 1.7497024001422687, 2.0162678299293475, 2.1327540761794808, 2.332843829282865, 2.4325807609511685, 2.7826685412819643, 2.949103126571572, 3.099244540635482, 3.2326084118358267, 3.3489997084143397, 4.631818533214755]",2017_Jan_24_1324,60.0775289406,famFaceFilter,001,1,
5,./img/smoo15_BarackObama1_3.png,0,62,62,4,,,1.ja,1.175,None,None,None,None,None,polit,0.574,None,Barack Obama,"['lshift', 'b', 'a', 'r', 'a', 'c', 'k', 'space', 'lshift', 'o', 'b', 'a', 'm', 'a', 'return']","[0.6668264130730677, 0.7672558999511239, 0.9333629730281245, 1.1166905805112037, 1.283137355285362, 1.516380903438403, 1.6498663487127487, 1.7996372665911622, 1.8996154217511503, 1.9994315850726707, 2.133001715188584, 2.282723875126976, 2.3827312208941294, 2.482456604631807, 3.6988853999155253]",2017_Jan_24_1324,60.0775289406,famFaceFilter,001,1,
60,./img/smoo15_LeonardoDiCaprio2_1.png,0,63,63,59,,,1.ja,1.761,None,act,0.891,None,None,None,None,None,Leonardo di Caprio,"['lshift', 'l', 'e', 'o', 'n', 'a', 'r', 'd', 'o', 'space', 'd', 'i', 'space', 'lshift', 'c', 'a', 'p', 'r', 'i', 'o', 'return']","[0.6502050880844763, 0.7668026435785578, 0.9666530978465744, 1.1165786297169689, 1.4331055503535026, 1.5994416574376373, 1.7496324709918554, 1.9662280697539245, 2.099458177395718, 2.2827511410814623, 2.398977879613085, 2.482565026892189, 2.6324751615193236, 2.7825508165187784, 2.882374999238891, 3.065795952514236, 3.3326295509687043, 3.598849825866637, 3.748954671476895, 3.9154165227191697, 5.61445814050785]",2017_Jan_24_1324,60.0775289406,famFaceFilter,001,1,
66,./img/smoo15_NicoleKidman3_1.png,0,64,64,65,,,1.ja,1.485,None,act,0.507,None,None,None,None,None,,['return'],[0.28357136510385317],2017_Jan_24_1324,60.0775289406,famFaceFilter,001,1,
47,./img/smoo15_BarackObama4_1.png,0,65,65,46,,,1.ja,0.957,None,None,None,None,None,polit,0.758,None,Barack Obama,"['lshift', 'b', 'a', 'r', 'a', 'c', 'k', 'space', 'lshift', 'o', 'b', 'a', 'm', 'a', 'return']","[0.6501563301444548, 0.7502676073108887, 0.9668051456301328, 1.1166700508529175, 1.3001740850904753, 1.4666622399599873, 1.616611188472234, 1.7832125772383733, 1.8663195229673875, 1.9330335361610196, 2.0664291641769523, 2.2162655203428585, 2.266274806805086, 2.382844775571357, 3.4655674317491503]",2017_Jan_24_1324,60.0775289406,famFaceFilter,001,1,
24,./img/smoo15_BastianSchweinsteiger1_1.png,0,66,66,23,,,1.ja,1.098,None,None,None,None,None,sport,0.574,None,Schweinsteiger,"['lshift', 's', 'c', 'h', 'w', 'e', 'i', 'n', 's', 't', 'e', 'i', 'g', 'e', 'r', 'return']","[0.6668600945449725, 0.7668257394452667, 1.0332115347173385, 1.1499823092090082, 1.3332900285840878, 1.432926236615458, 1.459269317367216, 1.566430286893592, 1.6665322615572222, 1.7497197220418457, 1.8497110290136334, 1.982975138904294, 2.066322666572887, 2.1828185361009673, 2.2660865113412, 3.1991248591402837]",2017_Jan_24_1324,60.0775289406,famFaceFilter,001,1,
21,./img/smoo15_NeilPatrickHarris(Barney)3_7.png,0,67,67,20,,,2.nein,1.182,None,None,None,host,0.623,None,None,None,,['return'],[0.3503806487442489],2017_Jan_24_1324,60.0775289406,famFaceFilter,001,1,
42,./img/smoo15_OmarEpps(DrEricForeman)1_5.png,0,68,68,41,,,1.ja,2.463,None,None,None,music,0.457,None,None,None,,['return'],[0.283853327136967],2017_Jan_24_1324,60.0775289406,famFaceFilter,001,1,
54,./img/smoo15_LisaEdelstein(DrLisaCuddy)6_3.png,0,69,69,53,,,2.nein,1.912,None,None,None,host,0.507,None,None,None,,['return'],[0.21715759817197977],2017_Jan_24_1324,60.0775289406,famFaceFilter,001,1,
19,./img/smoo15_NicoleKidman7_1.png,0,70,70,18,,,1.ja,1.196,None,act,0.475,None,None,None,None,None,,['return'],[0.28379302126450057],2017_Jan_24_1324,60.0775289406,famFaceFilter,001,1,
9,./img/smoo15_EmilyDeschanel6_12.png,0,71,71,8,,,1.ja,1.745,None,act,0.425,None,None,None,None,None,,['return'],[0.21729392793713487],2017_Jan_24_1324,60.0775289406,famFaceFilter,001,1,
19,./img/edges5_HughLaurie(DrHouse)2_1.png,0,0,0,18,,,1.ja,2.767,None,act,3.737,None,None,None,None,None,,['return'],[0.6169159255932755],2017_Jan_24_1324,60.0775289406,famFaceFilter,001,1,
63,./img/edges5_LisaEdelstein(DrLisaCuddy)2_2.png,0,1,1,62,,,2.nein,1.664,None,None,None,None,None,sport,1.104,None,,['return'],[2.082954256391531],2017_Jan_24_1324,60.0775289406,famFaceFilter,001,1,
45,./img/edges5_WillSmith4_1.png,0,2,2,44,,,1.ja,1.611,None,act,3.771,None,None,None,None,None,Smith Man in black,"['lshift', 's', 'm', 'i', 't', 'h', 'space', 'lshift', 'm', 'a', 'n', 'space', 'i', 'n', 'space', 'b', 'l', 'a', 'c', 'k', 'return']","[1.2831861132253835, 1.3998808638243645, 1.8496751021120872, 2.016186994396776, 2.18296898000699, 2.316293395770117, 2.4993460982914257, 2.6326509467216965, 2.699395433626705, 2.8826470172170957, 2.982616832203348, 3.098892970228917, 3.215608892036471, 3.3323912144605856, 3.4987369448208483, 3.715402793510293, 3.948630623643112, 4.082095539259171, 4.231978728706963, 4.298658418876585, 5.314985913126293]",2017_Jan_24_1324,60.0775289406,famFaceFilter,001,1,
2,./img/edges5_OmarEpps(DrEricForeman)1_5.png,0,3,3,1,,,2.nein,3.001,None,None,None,music,0.655,None,None,None,,['return'],[0.31661513401559205],2017_Jan_24_1324,60.0775289406,famFaceFilter,001,1,
23,./img/edges5_UrsulavonderLeyen1_1.png,0,4,4,22,,,1.ja,1.355,None,None,None,None,None,polit,1.522,None,Ursula von der Leyen,"['lshift', 'u', 'r', 's', 'u', 'l', 'a', 'space', 'v', 'o', 'n', 'space', 'd', 'e', 'r', 'space', 'lshift', 'l', 'e', 'y', 'e', 'n', 'return']","[0.8332959629387915, 1.0001180455365102, 1.2498504382274405, 1.4831539714778046, 1.5996594642838318, 1.7997155359153112, 1.9328895077724155, 2.0327168982494186, 2.182679960902533, 2.266100946255392, 2.3493249751954863, 2.4993903653667076, 3.282320018244718, 3.465761180403206, 3.5822323501870414, 3.78217454636615, 3.9319300669994846, 4.048561624742433, 4.481808637276117, 4.748520020106298, 4.931725732740233, 5.08159737425558, 6.497630267902423]",2017_Jan_24_1324,60.0775289406,famFaceFilter,001,1,
59,./img/edges5_BastianSchweinsteiger3_1.png,0,5,5,58,,,1.ja,1.024,None,None,None,None,None,sport,0.572,None,Schweinsteiger,"['lshift', 's', 'c', 'h', 'w', 'e', 'i', 'n', 's', 't', 'e', 'i', 'g', 'e', 'r', 'return']","[0.7500161189891514, 0.8502213834999566, 1.133328265073942, 1.249966879886415, 1.3998734859778779, 1.4664716990628222, 1.4926447685775202, 1.6164414980103174, 1.6832029860379407, 1.766408730751209, 1.8664776654950401, 1.9494511684424651, 2.0328686252596526, 2.149514617918612, 2.2495072079946112, 3.18237169524582]",2017_Jan_24_1324,60.0775289406,famFaceFilter,001,1,
64,./img/edges5_EmilyDeschanel3_1.png,0,6,6,63,,,1.ja,1.384,None,act,0.506,None,None,None,None,None,,['return'],[0.35038610193259956],2017_Jan_24_1324,60.0775289406,famFaceFilter,001,1,
38,./img/edges5_GeorgeClooney11_1.png,0,7,7,37,,,1.ja,1.031,None,act,0.707,None,None,None,None,None,George Cloony,"['lshift', 'g', 'e', 'o', 'r', 'g', 'e', 'space', 'lshift', 'c', 'l', 'o', 'o', 'n', 'y', 'return']","[0.7000199843387236, 0.8334297264955239, 1.0166261366284743, 1.2165436330615194, 1.4164223156094522, 1.5996681252345297, 1.699907391992383, 1.833078156088959, 1.9828429792250972, 2.0829218580238376, 2.349580633601363, 2.732662141801484, 2.8824795721866394, 3.049213762184081, 3.1990879699078505, 4.231973275516793]",2017_Jan_24_1324,60.0775289406,famFaceFilter,001,1,
34,./img/edges5_KatjaBurkard1_1.png,0,8,8,33,,,1.ja,1.998,None,None,None,host,1.022,None,None,None,Katja Burkhard,"['lshift', 'k', 'a', 't', 'j', 'a', 'space', 'lshift', 'b', 'u', 'r', 'k', 'h', 'a', 'r', 'd', 'return']","[0.7167526185730821, 0.8167493787368585, 1.0499464143831574, 1.199978443857617, 2.1827518147092633, 2.349360260546746, 2.649267460074043, 2.782581290231974, 2.8657328238132322, 3.0659441509869794, 3.215483147876512, 3.432339858236446, 3.6821226127449336, 3.8488224797201838, 4.015192268274404, 4.165352608117246, 5.1150815685050475]",2017_Jan_24_1324,60.0775289406,famFaceFilter,001,1,
15,./img/edges5_LisaEdelstein(DrLisaCuddy)6_3.png,0,9,9,14,,,2.nein,1.632,None,None,None,None,None,sport,2.289,None,,['return'],[0.4669114828466263],2017_Jan_24_1324,60.0775289406,famFaceFilter,001,1,
10,./img/edges5_GuentherJauch4_1.png,0,10,10,9,,,1.ja,2.44,None,None,None,host,0.639,None,None,None,Günther Jauch,"['lshift', 'g', u'\xfc', 'n', 't', 'h', 'e', 'r', 'space', 'lshift', 'j', 'a', 'u', 'c', 'h', 'return']","[0.7668539677251829, 0.8499573849203443, 1.1666299378248368, 1.3998462200252106, 1.5664569112941535, 1.6831038662803621, 1.7829383138287085, 1.8828090090555634, 1.9996022378618363, 2.132723602468104, 2.2495877227502206, 2.416186224534613, 2.5327876293413283, 2.6659497324890253, 2.799028433897547, 3.9489135480034747]",2017_Jan_24_1324,60.0775289406,famFaceFilter,001,1,
16,./img/edges5_BritneySpears7_1.png,0,11,11,15,,,1.ja,1.162,None,None,None,music,0.656,None,None,None,Britney spears,"['lshift', 'b', 'r', 'i', 't', 'n', 'e', 'y', 'space', 's', 'p', 'e', 'a', 'r', 's', 'return']","[0.5668161803223484, 0.66683443247166, 0.8833434217358445, 0.9999611861148878, 1.216533689010248, 1.4165118120927218, 1.5164270951718208, 1.7330852452378167, 1.8662730104588263, 2.01626365984157, 2.1328487050759577, 2.2661131357417617, 2.5327773645112757, 2.7159375269657176, 2.88259890082918, 4.065418720034359]",2017_Jan_24_1324,60.0775289406,famFaceFilter,001,1,
49,./img/edges5_RobertSeanLeonard(Wilson)2_6.png,0,12,12,48,,,2.nein,1.265,None,None,None,None,None,sport,0.638,None,,['return'],[0.3504274820279534],2017_Jan_24_1324,60.0775289406,famFaceFilter,001,1,
8,./img/edges5_LeonardoDiCaprio3_1.png,0,13,13,7,,,1.ja,1.038,None,act,0.739,None,None,None,None,None,Leonardo di Caprio,"['lshift', 'l', 'e', 'o', 'n', 'a', 'r', 'd', 'o', 'space', 'd', 'i', 'space', 'lshift', 'c', 'a', 'p', 'r', 'i', 'o', 'return']","[0.8665729359436227, 0.9668259960653813, 1.183304190841227, 1.3998754106341948, 2.04952395249893, 2.19951075256904, 2.3993830195995542, 2.5825839205936063, 2.7492443321298197, 2.915859514261683, 3.032408311817562, 3.1324580000073183, 3.2823549828208343, 3.415631602973008, 3.515609758132996, 3.6820789872217574, 3.9320500371941307, 4.315293216455757, 4.498531969009491, 4.681874332185544, 6.364403368019339]",2017_Jan_24_1324,60.0775289406,famFaceFilter,001,1,
11,./img/edges5_RobertSeanLeonard(Wilson)1_1.png,0,14,14,10,,,2.nein,8.596,None,None,None,host,0.55,None,None,None,,['return'],[0.3004172332366579],2017_Jan_24_1324,60.0775289406,famFaceFilter,001,1,
43,./img/edges5_BarackObama1_3.png,0,15,15,42,,,1.ja,0.945,None,None,None,None,None,polit,0.654,None,Barack Obama,"['lshift', 'b', 'a', 'r', 'a', 'c', 'k', 'space', 'lshift', 'o', 'b', 'a', 'm', 'a', 'return']","[0.7502897408485296, 0.8666800750997936, 1.0666922004293156, 1.283190604088304, 1.4498471663137025, 1.6994862132105482, 1.8328969176964165, 1.9997453039195534, 2.0995271442170633, 2.199546358695443, 2.3327225759840076, 2.4993999886446545, 2.5657447887533635, 2.6660145292244124, 3.532322504257536]",2017_Jan_24_1324,60.0775289406,famFaceFilter,001,1,
12,./img/edges5_UrsulavonderLeyen4_1.png,0,16,16,11,,,1.ja,1.828,None,None,None,None,None,polit,1.172,None,Ursula von der Leyen,"['lshift', 'u', 'r', 's', 'u', 'l', 'a', 'space', 'v', 'o', 'n', 'space', 'd', 'e', 'r', 'space', 'lshift', 'l', 'e', 'e', 'backspace', 'y', 'e', 'n', 'return']","[0.7002127706673491, 0.8333376638074697, 1.0832824101562437, 1.3664823167455324, 1.5161435292593524, 1.7164555800736707, 1.832999886766629, 1.9497966441067547, 2.0828724585317104, 2.149469067739119, 2.2662231618814985, 2.416062725806114, 2.4660524449373042, 2.5993758983731823, 2.7156536402781057, 2.782528041429032, 2.9157411479482107, 2.9993465794541407, 3.1658623210514634, 3.465600792444093, 3.8821677779942547, 4.348594568429689, 4.548535802281549, 4.681763343716739, 5.916263050366979]",2017_Jan_24_1324,60.0775289406,famFaceFilter,001,1,
35,./img/edges5_WillSmith1_1.png,0,17,17,34,,,1.ja,1.865,None,act,0.755,None,None,None,None,None,Smith Man in black,"['lshift', 's', 'm', 'i', 't', 'h', 'space', 'lshift', 'm', 'a', 'n', 'space', 'i', 'n', 'space', 'b', 'a', 'c', 'l', 'backspace', 'backspace', 'backspace', 'l', 'a', 'c', 'k', 'return']","[0.9499153311971895, 1.083304864470847, 1.616530032164519, 1.7996433613334375, 1.9494389789579145, 2.0996974762310856, 2.2828733567057498, 2.532760363388661, 2.6327773324337613, 2.865902835050292, 2.966072814209838, 3.115985515043576, 3.265756753697133, 3.365785270676497, 3.532397886599938, 3.682284283808258, 3.782045915224444, 3.8986040152813075, 3.9654540374631324, 5.448271515002489, 5.614570412079047, 5.948035263538259, 6.4978230542292295, 6.681079128682541, 6.880944017866568, 7.014113498860752, 8.247038195751884]",2017_Jan_24_1324,60.0775289406,famFaceFilter,001,1,
48,./img/edges5_GeorgeClooney3_1.png,0,18,18,47,,,1.ja,2.026,None,dummy,0.572,None,None,None,None,None,George Cloony,"['lshift', 'g', 'e', 'o', 'r', 'g', 'e', 'space', 'lshift', 'c', 'l', 'o', 'o', 'n', 'y', 'return']","[0.8831586548076302, 0.9833886190626799, 1.2329750587105082, 1.4325653637079085, 1.8664356438512186, 2.0161488220637693, 2.116202038787378, 2.26607111409794, 2.4326859754528414, 2.4992011075755727, 2.782637426018482, 3.0324788825200812, 3.1658713027773047, 3.315677826782121, 3.432316441594594, 4.615296648758886]",2017_Jan_24_1324,60.0775289406,famFaceFilter,001,1,
60,./img/edges5_TomCruise1_1.png,0,19,19,59,,,1.ja,2.189,None,act,0.59,None,None,None,None,None,Hugh Grant,"['lshift', 'h', 'u', 'g', 'h', 'space', 'lshift', 'g', 'r', 'a', 'n', 't', 'return']","[1.083302939816349, 1.2833920513658086, 1.5332947760689422, 1.7164177285158075, 1.8662912946874712, 2.0497452878826152, 2.132988242601641, 2.2493371967593703, 2.399490158755725, 2.565988899228614, 2.6493030662022647, 2.7827317341379967, 4.631911879007021]",2017_Jan_24_1324,60.0775289406,famFaceFilter,001,1,
62,./img/edges5_AlysonHannigan(Lily)5_4.png,0,20,20,61,,,1.ja,1.715,None,act,0.404,None,None,None,None,None,Nicole Richtie,"['lshift', 'n', 'i', 'c', 'o', 'l', 'e', 'space', 'lshift', 'r', 'i', 'c', 'h', 't', 'i', 'e', 'return']","[1.0333282971514564, 1.1332419763530197, 1.3333156906574004, 2.182754380917686, 2.299564931621717, 2.4995427339290472, 2.6325351466166467, 3.382238188309202, 3.7156661505377997, 3.815574055772231, 4.148848366336097, 4.348732502074199, 4.448818437944283, 4.614712515811334, 4.71464287535855, 4.848545329326953, 6.881202242480867]",2017_Jan_24_1324,60.0775289406,famFaceFilter,001,1,
58,./img/edges5_HughLaurie(DrHouse)5_3.png,0,21,21,57,,,1.ja,1.193,None,act,0.622,None,None,None,None,None,,['return'],[0.8001277329713048],2017_Jan_24_1324,60.0775289406,famFaceFilter,001,1,
47,./img/edges5_UrsulavonderLeyen5_1.png,0,22,22,46,,,1.ja,1.289,None,None,None,None,None,polit,0.573,None,Ursula von der Leyen,"['lshift', 'u', 'r', 's', 'u', 'l', 'a', 'space', 'v', 'o', 'n', 'space', 'd', 'e', 'r', 'space', 'lshift', 'l', 'e', 'y', 'e', 'n', 'return']","[0.8999827101779374, 1.0166627050839452, 1.216681566707848, 1.4828524421154725, 1.599819210692658, 1.8163387855620385, 1.9162662581256882, 2.049548973020137, 2.199561755940522, 2.2827851433266915, 2.3995767682536098, 2.549377518291294, 2.6327221589763212, 2.765938152477247, 2.8826653014439216, 3.015800459415914, 3.165731444476478, 3.2322488220306695, 3.4323138753861713, 4.5819407648778, 4.798474774663191, 4.981871348967616, 6.314259355669492]",2017_Jan_24_1324,60.0775289406,famFaceFilter,001,1,
61,./img/edges5_NeilPatrickHarris(Barney)2_2.png,0,23,23,60,,,2.nein,1.544,None,None,None,host,2.022,None,None,None,,['return'],[0.25040666367021913],2017_Jan_24_1324,60.0775289406,famFaceFilter,001,1,
51,./img/edges5_Ice-T(OdafinFinTutuola)6_1.png,0,24,24,50,,,2.nein,1.637,None,None,None,music,0.789,None,None,None,,['return'],[0.20058086103199457],2017_Jan_24_1324,60.0775289406,famFaceFilter,001,1,
29,./img/edges5_TomCruise4_1.png,0,25,25,28,,,1.ja,1.954,None,act,0.923,None,None,None,None,None,Hugh Grant,"['lshift', 'h', 'u', 'g', 'h', 'space', 'lshift', 'g', 'r', 'a', 'n', 't', 'return']","[0.8168180247848795, 0.9167852735627093, 1.1334039681914874, 1.283141204597996, 1.4664293566420383, 1.6164607445662114, 1.7161986385635828, 1.8332151274080388, 1.9828192418081017, 2.1328660269755346, 2.266221558002144, 2.3828665883338545, 3.8489315435326716]",2017_Jan_24_1324,60.0775289406,famFaceFilter,001,1,
39,./img/edges5_AlysonHannigan(Lily)8_3.png,0,26,26,38,,,1.ja,1.782,None,act,0.489,None,None,None,None,None,Nicole Richtie,"['lshift', 'n', 'i', 'c', 'o', 'l', 'e', 'space', 'lshift', 'r', 'i', 'c', 'h', 't', 'i', 'e', 'return']","[0.7835830734256888, 0.9167920098570903, 1.150039086545803, 1.383302843581987, 1.483316604870197, 1.6664908814636874, 1.7831105704972288, 1.8996574433967908, 2.09959643181719, 2.199601532154702, 2.4495514109166834, 2.61611174036625, 2.7159779447320034, 2.866000350928516, 3.1491803694116243, 3.2659639749399503, 4.765255220549079]",2017_Jan_24_1324,60.0775289406,famFaceFilter,001,1,
56,./img/edges5_NeilPatrickHarris(Barney)1_1.png,0,27,27,55,,,2.nein,1.075,None,None,None,None,None,sport,0.622,None,,['return'],[0.46708053175643727],2017_Jan_24_1324,60.0775289406,famFaceFilter,001,1,
6,./img/edges5_GuentherJauch3_1.png,0,28,28,5,,,1.ja,1.005,None,None,None,host,2.039,None,None,None,Günther Jauch,"['lshift', 'g', u'\xfc', 'n', 't', 'h', 'e', 'r', 'space', 'lshift', 'j', 'a', 'u', 'c', 'h', 'return']","[0.8333867425226344, 0.9333648976826225, 1.28311618407497, 1.5330718368040834, 1.699589503055904, 1.816241590457139, 1.9327958412031876, 2.0330078420083737, 2.166227043269828, 2.332823620397903, 2.432670898982906, 2.6158968204999837, 2.782691637146854, 2.9157324869975128, 3.032462202170791, 4.831818148282764]",2017_Jan_24_1324,60.0775289406,famFaceFilter,001,1,
14,./img/edges5_AngelaMerkel4_1.png,0,29,29,13,,,1.ja,1.888,None,None,None,None,None,polit,1.771,None,Angela Merkel,"['lshift', 'a', 'n', 'g', 'e', 'l', 'a', 'space', 'lshift', 'm', 'e', 'r', 'k', 'e', 'l', 'return']","[0.9827634267967369, 1.2999219552184513, 1.6830365033365524, 1.9829202862219972, 2.066144956712378, 2.182855104554619, 2.349409660038873, 2.465981874234785, 2.5994439028672787, 2.7160494777599524, 2.865750145712809, 2.982587641594364, 3.1156653806756367, 3.2324602133612643, 3.3490478248022555, 4.49859131255289]",2017_Jan_24_1324,60.0775289406,famFaceFilter,001,1,
66,./img/edges5_BritneySpears1_1.png,0,30,30,65,,,1.ja,2.066,None,None,None,music,0.588,None,None,None,Britney Spears,"['lshift', 'b', 'r', 'i', 'n', 't', 'e', 'y', 'backspace', 'backspace', 'backspace', 'backspace', 't', 'n', 'e', 'y', 'space', 'lshift', 's', 'p', 'e', 'a', 'r', 's', 'return']","[0.6668126197091624, 0.7831452142945636, 0.9998761804945389, 1.1829436387088208, 1.399991531514388, 1.6328565640851593, 1.7663288575458864, 1.9995355164683133, 3.0491348513078265, 3.19899077480477, 3.3491270564536535, 3.4657252534998406, 4.2653545006942295, 4.615196887445563, 4.7982066059939825, 5.0484102185091615, 5.181552754325821, 5.364820055936434, 5.448232059563452, 5.81483755426234, 5.9979771870566765, 6.114576667207075, 6.281244777366737, 6.430813285640397, 7.230743741420156]",2017_Jan_24_1324,60.0775289406,famFaceFilter,001,1,
33,./img/edges5_BarackObama2_1.png,0,31,31,32,,,1.ja,1.14,None,None,None,None,None,polit,0.805,None,Barack Obama,"['lshift', 'b', 'a', 'r', 'a', 'c', 'k', 'space', 'lshift', 'o', 'b', 'a', 'm', 'a', 'return']","[0.6002795241347485, 0.7168838159250299, 0.9001883275414002, 1.0667765644957399, 1.216563521169519, 1.4000072495364293, 1.5331667864757037, 1.666492485343042, 1.7497062494530837, 1.8498338861900265, 1.9661385732724739, 2.09958873319556, 2.1830129263071285, 2.2662562018012977, 3.149275639860207]",2017_Jan_24_1324,60.0775289406,famFaceFilter,001,1,
26,./img/edges5_NicoleKidman7_1.png,0,32,32,25,,,1.ja,1.388,None,act,0.455,None,None,None,None,None,,['return'],[0.2503864547888952],2017_Jan_24_1324,60.0775289406,famFaceFilter,001,1,
41,./img/edges5_OmarEpps(DrEricForeman)3_1.png,0,33,33,40,,,2.nein,0.989,None,None,None,music,1.322,None,None,None,,['return'],[0.20032680650547263],2017_Jan_24_1324,60.0775289406,famFaceFilter,001,1,
46,./img/edges5_TomCruise5_1.png,0,34,34,45,,,1.ja,1.155,None,dummy,0.405,None,None,None,None,None,Hugh Grant,"['lshift', 'h', 'u', 'g', 'h', 'space', 'lshift', 'g', 'r', 'a', 'n', 't', 'return']","[0.8332032586986315, 1.1000047795623686, 1.3499094289200002, 1.4831016850039305, 1.582815520807344, 1.6996789995391737, 1.7830820214403502, 1.8995153396663227, 2.01629349200266, 2.14943602781932, 2.2328592586036393, 2.3327957128949492, 3.36558029486514]",2017_Jan_24_1324,60.0775289406,famFaceFilter,001,1,
20,./img/edges5_JoshRadnor(Ted)1_2.png,0,35,35,19,,,2.nein,1.055,None,None,None,None,None,sport,0.688,None,,['return'],[0.21702287228436035],2017_Jan_24_1324,60.0775289406,famFaceFilter,001,1,
36,./img/edges5_AngelaMerkel1_1.png,0,36,36,35,,,1.ja,0.879,None,None,None,None,None,polit,0.774,None,Angela Merkel,"['lshift', 'a', 'n', 'g', 'e', 'l', 'a', 'space', 'lshift', 'm', 'e', 'r', 'k', 'e', 'l', 'return']","[0.5666121668382402, 0.6668328285923053, 1.0167066513859027, 1.1832708301462844, 1.2665939788439573, 1.3665602652945381, 1.4998413763096323, 1.6163834375693114, 1.7162759455604828, 1.8162685356364818, 1.9663438698607933, 2.049527801809745, 2.4490490758289525, 2.68277250475694, 2.78254440100136, 3.71537264057406]",2017_Jan_24_1324,60.0775289406,famFaceFilter,001,1,
42,./img/edges5_JoachimLoew4_1.png,0,37,37,41,,,1.ja,0.967,None,None,None,None,None,sport,0.755,None,Jogi Löw,"['lshift', 'j', 'o', 'g', 'i', 'space', 'lshift', 'l', u'\xf6', 'w', 'return']","[0.6667343503850134, 0.7668190031508857, 1.0332939741274458, 1.2665285405564646, 1.366328344305657, 1.5331982225161482, 1.6163606624795648, 1.7166294406215457, 1.982986686836739, 2.116082068594551, 3.015871992445682]",2017_Jan_24_1324,60.0775289406,famFaceFilter,001,1,
53,./img/edges5_KatjaBurkard4_1.png,0,38,38,52,,,1.ja,1.054,None,None,None,host,0.455,None,None,None,Katja Burkhard,"['lshift', 'k', 's', 'a', 't', 'backspace', 'backspace', 'backspace', 'a', 't', 'j', 'a', 'space', 'lshift', 'b', 'u', 'r', 'k', 'h', 'r', 'backspace', 'a', 'r', 'd', 'return']","[0.6168354108394851, 0.7331760248234787, 0.9166373958651093, 0.9404973502314533, 1.1000105535276816, 1.7496555668585643, 1.8994819789695612, 2.032913533888859, 2.4826497117355757, 2.6992209315267246, 2.9324500447655737, 3.115614377305974, 3.5656488767563133, 3.765559316119834, 3.832271083880187, 4.0486450264816085, 4.232054431824508, 4.948500067845089, 5.1649169944194, 5.314576603053865, 5.7147682987433654, 5.964740952595093, 6.247947916255725, 6.514504364316963, 8.346973687714126]",2017_Jan_24_1324,60.0775289406,famFaceFilter,001,1,
44,./img/edges5_EmilyDeschanel5_1.png,0,39,39,43,,,1.ja,1.675,None,act,0.538,None,None,None,None,None,,['return'],[0.36711103754532814],2017_Jan_24_1324,60.0775289406,famFaceFilter,001,1,
24,./img/edges5_JasonSegel(Marshall)7_1.png,0,40,40,23,,,2.nein,4.153,None,dummy,0.669,None,None,None,None,None,,['return'],[0.50032125708276],2017_Jan_24_1324,60.0775289406,famFaceFilter,001,1,
3,./img/edges5_NicoleKidman5_1.png,0,41,41,2,,,1.ja,1.222,None,dummy,0.44,None,None,None,None,None,,['return'],[0.7000921589205973],2017_Jan_24_1324,60.0775289406,famFaceFilter,001,1,
25,./img/edges5_JoachimLoew8_1.png,0,42,42,24,,,1.ja,0.956,None,None,None,None,None,sport,1.005,None,Jogi Löw,"['lshift', 'j', 'o', 'g', 'i', 'space', 'lshift', 'l', u'\xf6', 'w', 'return']","[1.0333690356928855, 1.1500185568875168, 1.8827997065545787, 2.099725704512821, 2.2162392167174403, 2.3828277744469233, 2.466101523654288, 2.5828796759906254, 2.749226368678137, 2.849405329563524, 3.932271693354778]",2017_Jan_24_1324,60.0775289406,famFaceFilter,001,1,
50,./img/edges5_WillSmith5_1.png,0,43,43,49,,,1.ja,1.39,None,act,0.591,None,None,None,None,None,Smith Man in black,"['lshift', 's', 'm', 'i', 't', 'h', 'space', 'lshift', 'm', 'a', 'n', 'space', 'i', 'n', 'space', 'b', 'l', 'a', 'c', 'k', 'return']","[0.8332937175073312, 1.0001315181270911, 1.4997602200019173, 1.6830637692910386, 1.91607667955941, 2.0828811194824084, 2.2495450595542934, 2.5492366976632184, 2.6493056324088684, 2.8492019576315215, 2.9660060928181338, 3.115801710440792, 3.2491110497358022, 3.3657307387693436, 3.5321704564739775, 3.698888928451197, 3.9317889255962655, 4.048678707953513, 4.182009860011021, 4.281948880508935, 5.414940972419572]",2017_Jan_24_1324,60.0775289406,famFaceFilter,001,1,
31,./img/edges5_GeorgeClooney4_2.png,0,44,44,30,,,1.ja,1.15,None,act,0.42,None,None,None,None,None,George Cloony,"['lshift', 'g', 'e', 'o', 'r', 'g', 'e', 'space', 'lshift', 'v', 'backspace', 'lshift', 'c', 'l', 'o', 'o', 'n', 'y', 'return']","[0.6834384355624934, 0.8166791288094828, 0.9999422603341372, 1.150051596805497, 1.333020576812487, 1.54979869707131, 1.68306601472068, 1.8330050191798364, 1.9662591850174067, 2.066137258090748, 2.4661406583145435, 2.6991939863492007, 2.79915674426411, 3.132451905263224, 3.3488970601192705, 3.4823664665982506, 3.6656356928633613, 3.782140544119102, 5.932006090892173]",2017_Jan_24_1324,60.0775289406,famFaceFilter,001,1,
17,./img/edges5_NeilPatrickHarris(Barney)3_7.png,0,45,45,16,,,2.nein,1.584,None,None,None,host,0.672,None,None,None,,['return'],[0.5835824960286118],2017_Jan_24_1324,60.0775289406,famFaceFilter,001,1,
28,./img/edges5_Ice-T(OdafinFinTutuola)5_1.png,0,46,46,27,,,2.nein,1.279,None,None,None,music,0.756,None,None,None,,['return'],[0.2838546102393593],2017_Jan_24_1324,60.0775289406,famFaceFilter,001,1,
65,./img/edges5_LisaEdelstein(DrLisaCuddy)1_1.png,0,47,47,64,,,2.nein,1.284,None,None,None,host,0.706,None,None,None,,['return'],[0.28367946658909204],2017_Jan_24_1324,60.0775289406,famFaceFilter,001,1,
32,./img/edges5_Ice-T(OdafinFinTutuola)7_1.png,0,48,48,31,,,2.nein,1.854,None,act,3.971,None,None,None,None,None,,['return'],[0.350201014229242],2017_Jan_24_1324,60.0775289406,famFaceFilter,001,1,
7,./img/edges5_AngelaMerkel3_1.png,0,49,49,6,,,1.ja,1.096,None,None,None,None,None,polit,0.672,None,Angela Merkel,"['lshift', 'a', 'n', 'g', 'e', 'l', 'a', 'space', 'lshift', 'm', 'e', 'r', 'k', 'e', 'l', 'return']","[0.9996346362295299, 1.116649200419488, 1.4829762616209337, 1.6831430009424366, 1.7664177124770504, 1.9163252808957623, 2.082941746131837, 2.2328505976547603, 2.3661134244412096, 2.4494433094332635, 2.6328469408090314, 2.7325979866182024, 2.866056165939881, 2.965852761930364, 3.0826472738390294, 4.298879433485126]",2017_Jan_24_1324,60.0775289406,famFaceFilter,001,1,
22,./img/edges5_JasonSegel(Marshall)6_1.png,0,50,50,21,,,2.nein,2.631,None,dummy,0.405,None,None,None,None,None,,['return'],[0.26716111066889425],2017_Jan_24_1324,60.0775289406,famFaceFilter,001,1,
68,./img/edges5_MariskaHargitay(Liv)4_4.png,0,51,51,67,,,2.nein,1.298,None,None,None,host,0.556,None,None,None,,['return'],[0.23366408538277028],2017_Jan_24_1324,60.0775289406,famFaceFilter,001,1,
27,./img/edges5_OmarEpps(DrEricForeman)2_2.png,0,52,52,26,,,2.nein,1.389,None,None,None,music,0.655,None,None,None,,['return'],[0.1839515166448109],2017_Jan_24_1324,60.0775289406,famFaceFilter,001,1,
5,./img/edges5_AlysonHannigan(Lily)1_1.png,0,53,53,4,,,1.ja,1.411,None,act,0.439,None,None,None,None,None,Nicole Richtie,"['lshift', 'n', 'i', 'c', 'o', 'o', 'e', 'backspace', 'backspace', 'backspace', 'o', 'l', 'e', 'space', 'lshift', 'r', 'i', 'c', 'h', 't', 'i', 'e', 'return']","[0.9833517298320658, 1.1168006066509406, 1.3666032492674276, 1.733040978160716, 1.833021057977021, 2.016281944068396, 2.049551860001884, 2.6828587934778625, 2.832657939636192, 2.9825946986638883, 3.782313763114871, 3.948747706852373, 4.048901967991696, 4.1986828299232, 4.381919657820617, 4.481940476178352, 4.731903185978808, 4.8984368910259946, 4.998464124901147, 5.164850273027696, 5.298322566488423, 5.448302630265971, 6.514555046911482]",2017_Jan_24_1324,60.0775289406,famFaceFilter,001,1,
1,./img/edges5_BastianSchweinsteiger6_2.png,0,54,54,0,,,1.ja,1.133,None,None,None,None,None,sport,0.879,None,Schweinsteiger,"['lshift', 's', 'c', 'h', 'w', 'e', 'i', 'n', 's', 't', 'e', 'i', 'g', 'e', 'r', 'return']","[0.750119088059364, 0.8335079958196729, 1.1334629909597425, 1.2666590963544877, 1.4831937476919848, 1.5665698244156374, 1.6497726821453398, 1.7830380751383927, 1.8663727717703296, 1.9830518043472694, 2.0996557753605884, 2.182836499550831, 2.2829583623224607, 2.39960210954996, 2.515907438182694, 3.6989357617349015]",2017_Jan_24_1324,60.0775289406,famFaceFilter,001,1,
57,./img/edges5_BritneySpears5_1.png,0,55,55,56,,,1.ja,1.857,None,None,None,music,2.089,None,None,None,Britney Spears,"['lshift', 'b', 'r', 'i', 't', 'n', 'e', 'y', 'space', 'lshift', 's', 'p', 'e', 'a', 'r', 's', 'return']","[0.7168238308277068, 0.7998217127442331, 1.0333225231843244, 1.1666148613549012, 1.416633706940047, 1.6499093326856382, 1.7997094411730359, 2.049676321059451, 2.1830225495850755, 2.3828540780723415, 2.4659446642290277, 2.9656705612069345, 3.2323899634338886, 3.4157522147161217, 3.5323693375430594, 3.6820818742035044, 7.0309997847580235]",2017_Jan_24_1324,60.0775289406,famFaceFilter,001,1,
13,./img/edges5_MariskaHargitay(Liv)6_5.png,0,56,56,12,,,2.nein,2.133,None,None,None,host,0.722,None,None,None,,['return'],[0.2504092298786418],2017_Jan_24_1324,60.0775289406,famFaceFilter,001,1,
70,./img/edges5_BastianSchweinsteiger1_1.png,0,57,57,69,,,1.ja,0.942,None,None,None,None,None,sport,0.755,None,Schweinsteiger,"['lshift', 's', 'c', 'h', 'w', 'e', 'i', 'n', 's', 't', 'e', 'i', 'g', 'e', 'r', 'return']","[0.916795538392762, 1.0168160359735339, 1.3332656496149866, 1.4330253563748556, 1.6164783872409316, 1.699685094281449, 1.7256778877290344, 1.8497658816959301, 1.9328991310503625, 2.016265584497887, 2.1161077306678635, 2.1995604728363105, 2.2995764795559808, 2.4160168548496586, 2.5160181058763555, 3.882134096524169]",2017_Jan_24_1324,60.0775289406,famFaceFilter,001,1,
9,./img/edges5_RobertSeanLeonard(Wilson)8_1.png,0,58,58,8,,,2.nein,1.4,None,None,None,None,None,sport,0.54,None,,['return'],[0.6833569584796351],2017_Jan_24_1324,60.0775289406,famFaceFilter,001,1,
30,./img/edges5_MariskaHargitay(Liv)8_8.png,0,59,59,29,,,2.nein,1.438,None,None,None,host,0.489,None,None,None,,['return'],[0.36682939628917666],2017_Jan_24_1324,60.0775289406,famFaceFilter,001,1,
37,./img/edges5_JasonSegel(Marshall)9_1.png,0,60,60,36,,,2.nein,1.743,None,dummy,0.474,None,None,None,None,None,,['return'],[0.5504152283883741],2017_Jan_24_1324,60.0775289406,famFaceFilter,001,1,
55,./img/edges5_JoachimLoew1_1.png,0,61,61,54,,,1.ja,0.903,None,None,None,None,None,sport,0.938,None,Jogi Löw,"['lshift', 'j', 'o', 'g', 'i', 'space', 'lshift', 'l', u'\xf6', 'w', 'return']","[0.7002166199781641, 0.8500491268314363, 1.149904681436965, 1.3998593718370103, 1.5162606124704325, 1.6831811732772621, 1.79950574846589, 1.8996936910752993, 2.0829285943182185, 2.19968846242773, 3.182452210001429]",2017_Jan_24_1324,60.0775289406,famFaceFilter,001,1,
40,./img/edges5_NicoleKidman3_1.png,0,62,62,39,,,1.ja,1.288,None,act,0.622,None,None,None,None,None,,['return'],[0.5003453152767179],2017_Jan_24_1324,60.0775289406,famFaceFilter,001,1,
71,./img/edges5_HughLaurie(DrHouse)4_1.png,0,63,63,70,,,1.ja,3.738,None,act,0.572,None,None,None,None,None,,['return'],[0.30043359280898585],2017_Jan_24_1324,60.0775289406,famFaceFilter,001,1,
54,./img/edges5_KatjaBurkard5_3.png,0,64,64,53,,,1.ja,1.121,None,None,None,host,0.889,None,None,None,Katja Burkhard,"['lshift', 'k', 'a', 't', 'j', 'a', 'space', 'lshift', 'b', 'u', 'r', 'k', 'h', 'r', 'backspace', 'a', 'r', 'd', 'return']","[0.6001233062634128, 0.6836559216353635, 0.9166630579384218, 1.1167762276818394, 1.3666106271139142, 1.5164636636272917, 1.6499423726054374, 1.8162313256289053, 1.882729456627203, 2.0829013283655513, 2.2825660533744667, 2.482680826999058, 2.7490926051214046, 2.965747547426872, 3.4988963704527123, 3.683583105501384, 3.8322515165491495, 4.065440532796856, 5.448104711524138]",2017_Jan_24_1324,60.0775289406,famFaceFilter,001,1,
21,./img/edges5_JoshRadnor(Ted)3_1.png,0,65,65,20,,,2.nein,3.357,None,None,None,None,None,sport,0.806,None,,['return'],[0.2837622267743427],2017_Jan_24_1324,60.0775289406,famFaceFilter,001,1,
67,./img/edges5_LeonardoDiCaprio2_1.png,0,66,66,66,,,1.ja,1.38,None,act,0.673,None,None,None,None,None,Leonardo di Caprio,"['lshift', 'l', 'e', 'o', 'n', 'a', 'r', 'd', 'o', 'space', 'd', 'i', 'space', 'lshift', 'c', 'a', 'p', 'r', 'i', 'o', 'return']","[0.6666785353754676, 0.7501402592697559, 0.9997626258209493, 1.233322779806258, 1.5664694215538475, 1.7829867509917676, 1.9995595746640902, 2.199196712945195, 2.3660880831430404, 2.5990583302136656, 2.74925427618291, 2.866010936533712, 3.0323784796564723, 3.199167522336211, 3.298916643490884, 3.4989525062374014, 3.8155201654171833, 4.0153991687420785, 4.265154978073042, 4.432049235254453, 6.23102570345327]",2017_Jan_24_1324,60.0775289406,famFaceFilter,001,1,
4,./img/edges5_LeonardoDiCaprio1_1.png,0,67,67,3,,,1.ja,1.033,None,act,0.422,None,None,None,None,None,Leonardo di Caprio,"['lshift', 'l', 'e', 'o', 'n', 'a', 'r', 'd', 'o', 'space', 'd', 'i', 'space', 'lshift', 'c', 'a', 'p', 's', 'r', 'i', 'o', 'backspace', 'backspace', 'backspace', 'backspace', 'r', 'i', 'o', 'return']","[0.6002910720690124, 0.7001861462667875, 0.8999583312088362, 1.066766941219612, 1.2832332672860502, 1.433261447451514, 1.566585863212822, 1.7497463464424072, 1.8830277782326448, 2.0493889058379864, 2.232951642068656, 2.399462892803058, 2.549379442947611, 2.832557215999259, 2.9158344937404763, 3.1325183058797847, 3.3656232788380294, 3.5820700375734305, 3.915477790918885, 4.115432497359507, 4.315248307828369, 5.231631969940281, 5.381576106814464, 5.548040524263342, 5.914614582923605, 6.547522471155389, 6.714394274022197, 6.830902012259685, 8.197043344205667]",2017_Jan_24_1324,60.0775289406,famFaceFilter,001,1,
72,./img/edges5_EmilyDeschanel6_12.png,0,68,68,71,,,1.ja,1.702,None,act,0.504,None,None,None,None,None,,['return'],[0.3170741643552901],2017_Jan_24_1324,60.0775289406,famFaceFilter,001,1,
69,./img/edges5_GuentherJauch2_1.png,0,69,69,68,,,1.ja,0.995,None,None,None,host,0.424,None,None,None,Günter Jauch,"['lshift', 'g', u'\xfc', 'n', 't', 'e', 'r', 'space', 'lshift', 'j', 'a', 'u', 'c', 'h', 'return']","[0.7496632654801942, 0.899908931716709, 1.2332050550448912, 1.4496864575794461, 1.5996892964467406, 1.8495557734695467, 1.9662409007905808, 2.1162065296502988, 2.265980013735316, 2.349448473925804, 2.5493441575963516, 2.6658377816947905, 2.7991564234907855, 2.915816851065756, 4.181750673069473]",2017_Jan_24_1324,60.0775289406,famFaceFilter,001,1,
18,./img/edges5_JoshRadnor(Ted)6_2.png,0,70,70,17,,,2.nein,1.277,None,dummy,0.972,None,None,None,None,None,,['return'],[0.2337564688477869],2017_Jan_24_1324,60.0775289406,famFaceFilter,001,1,
52,./img/edges5_BarackObama4_1.png,0,71,71,51,,,1.ja,0.847,None,None,None,None,None,polit,0.656,None,Barack Obama,"['lshift', 'b', 'a', 'r', 'a', 'c', 'k', 'space', 'lshift', 'o', 'b', 'a', 'm', 'a', 'return']","[0.6164726132756186, 0.6998932778515154, 0.9332279263671808, 1.1166575405914045, 1.299930295392187, 1.5163873189576407, 1.6663430037642684, 1.8327095845597796, 1.8995400394105673, 1.9995958223425987, 2.149424479885056, 2.282734460732172, 2.382559926554677, 2.499332625700845, 3.365520309765998]",2017_Jan_24_1324,60.0775289406,famFaceFilter,001,1,
31,./img/gray_AngelaMerkel3_1.png,0,0,0,30,,,1.ja,1.165,None,None,None,None,None,polit,1.987,None,Angela Merkel,"['lshift', 'a', 'n', 'g', 'e', 'l', 'a', 'space', 'lshift', 'm', 'e', 'r', 'k', 'e', 'l', 'return']","[0.7333312803675653, 0.9165649005062733, 1.050065743023879, 1.2329955883687944, 1.3331835309800226, 1.4165230392500234, 1.5664065494747774, 1.69969183057583, 1.816295801589149, 1.9496879010712291, 2.082693465570628, 2.1994215768645518, 2.3328704536834266, 2.432414919801886, 2.53266637604429, 3.8152962638268946]",2017_Jan_24_1324,60.0775289406,famFaceFilter,001,1,
8,./img/gray_BastianSchweinsteiger6_2.png,0,1,1,7,,,1.ja,1.436,None,None,None,None,None,sport,1.454,None,Schweinsteiger,"['lshift', 's', 'c', 'h', 'w', 'e', 'i', 'n', 's', 't', 'e', 'i', 'g', 'e', 'r', 'return']","[0.8501360571062833, 0.9499836564664292, 1.2832323049569823, 1.416370029135578, 1.5998044549996848, 1.6827773163950042, 1.7329518024562276, 1.8830117394354602, 1.9496769946890709, 2.049683057353832, 2.149403308674664, 2.2329125074047624, 2.332881360063766, 2.4660354438146896, 2.5492540195627953, 3.6655227797418775]",2017_Jan_24_1324,60.0775289406,famFaceFilter,001,1,
34,./img/gray_RobertSeanLeonard(Wilson)2_6.png,0,2,2,33,,,2.nein,1.447,None,None,None,None,None,sport,1.138,None,,['return'],[0.41698656045082316],2017_Jan_24_1324,60.0775289406,famFaceFilter,001,1,
53,./img/gray_Ice-T(OdafinFinTutuola)5_1.png,0,3,3,52,,,2.nein,1.159,None,None,None,music,1.388,None,None,None,,['return'],[0.3172140226542979],2017_Jan_24_1324,60.0775289406,famFaceFilter,001,1,
40,./img/gray_BritneySpears1_1.png,0,4,4,39,,,1.ja,1.137,None,None,None,music,0.622,None,None,None,Britney Spears,"['lshift', 'b', 'r', 'i', 't', 'n', 'e', 'y', 'space', 'lshift', 's', 'p', 'e', 'a', 'r', 's', 'return']","[0.7334589491838415, 0.8833524034616858, 1.1166732586116268, 1.2498950260815036, 1.4831610285491479, 1.6997822893845296, 1.8327487192218541, 2.132588876582304, 2.249366708143498, 2.449369530972035, 2.532667338371539, 2.9326094703956187, 3.132507720274589, 3.2824274781796703, 3.498845046306087, 3.698862945602741, 5.4815093533452455]",2017_Jan_24_1324,60.0775289406,famFaceFilter,001,1,
49,./img/gray_NeilPatrickHarris(Barney)1_1.png,0,5,5,48,,,2.nein,1.556,None,None,None,host,0.56,None,None,None,,['return'],[0.23367306710861158],2017_Jan_24_1324,60.0775289406,famFaceFilter,001,1,
57,./img/gray_UrsulavonderLeyen5_1.png,0,6,6,56,,,1.ja,1.333,None,None,None,None,None,polit,0.822,None,Ursula von der Leyen,"['lshift', 'u', 'r', 's', 'u', 'l', 'a', 'space', 'v', 'o', 'n', 'space', 'd', 'e', 'r', 'space', 'lshift', 'l', 'e', 'y', 'e', 'n', 'return']","[0.9500093185415608, 1.0997032501982176, 1.3497740614820941, 1.6165810355360009, 1.7497636683419842, 1.966041057392431, 2.066037496781064, 2.199534810762998, 2.366153521430533, 2.482734075802, 2.6160597746675194, 2.782271099918944, 2.849128820722399, 2.99926478159432, 3.099168195965831, 3.21584947397605, 3.3656338644414063, 3.4491087401493132, 3.648805542750779, 4.9316894850617246, 5.18159573830053, 5.331604351133137, 7.197430520738635]",2017_Jan_24_1324,60.0775289406,famFaceFilter,001,1,
65,./img/gray_KatjaBurkard5_3.png,0,7,7,64,,,1.ja,1.27,None,None,None,host,2.254,None,None,None,Katja Burkhard,"['lshift', 'k', 'a', 't', 'j', 'a', 'space', 'lshift', 'b', 'u', 'r', 'k', 'h', 'a', 'r', 'd', 'return']","[0.6668649061848555, 0.8001232421083841, 1.0667586010458763, 1.2999280499625456, 1.6332430990678404, 1.8163397478892875, 2.299557233000087, 2.4822362315771898, 2.5661053408875887, 3.1987874028745864, 3.4169560867394466, 3.682202165173294, 3.9987938825470337, 4.181131896322768, 4.381312749785138, 4.548250632489726, 7.363935035178656]",2017_Jan_24_1324,60.0775289406,famFaceFilter,001,1,
10,./img/gray_HughLaurie(DrHouse)2_1.png,0,8,8,9,,,1.ja,1.476,None,act,0.739,None,None,None,None,None,,['return'],[1.9336327455766877],2017_Jan_24_1324,60.0775289406,famFaceFilter,001,1,
21,./img/gray_HughLaurie(DrHouse)4_1.png,0,9,9,20,,,1.ja,3.504,None,dummy,0.489,None,None,None,None,None,,['return'],[0.9833190106892289],2017_Jan_24_1324,60.0775289406,famFaceFilter,001,1,
61,./img/gray_AlysonHannigan(Lily)8_3.png,0,10,10,60,,,1.ja,2.269,None,act,0.456,None,None,None,None,None,Nicole Richtie,"['lshift', 'n', 'i', 'c', 'o', 'l', 'e', 'space', 'lshift', 'r', 'i', 'c', 'h', 't', 'i', 'e', 'return']","[1.0167627871705918, 1.1166806364581134, 1.3498625956362957, 1.6165499202706997, 1.7497700838612218, 1.9329097166555584, 2.066377519253365, 2.19949310989432, 2.4326311227705446, 2.5160412017430644, 2.832679110848403, 3.049241669690673, 3.215788847326621, 3.3491591340462037, 3.5156941221994202, 3.6486303991005116, 5.198377451250053]",2017_Jan_24_1324,60.0775289406,famFaceFilter,001,1,
64,./img/gray_LisaEdelstein(DrLisaCuddy)2_2.png,0,11,11,63,,,2.nein,1.335,None,None,None,host,1.554,None,None,None,,['return'],[0.3002485051038093],2017_Jan_24_1324,60.0775289406,famFaceFilter,001,1,
59,./img/gray_AlysonHannigan(Lily)5_4.png,0,12,12,58,,,1.ja,5.003,None,dummy,0.684,None,None,None,None,None,,['return'],[0.6002371817139647],2017_Jan_24_1324,60.0775289406,famFaceFilter,001,1,
3,./img/gray_KatjaBurkard1_1.png,0,13,13,2,,,1.ja,1.371,None,None,None,host,1.087,None,None,None,Katja Burkhard,"['lshift', 'k', 'a', 't', 'j', 'a', 'space', 'lshift', 'b', 'u', 'r', 'k', 'h', 'a', 'r', 'd', 'return']","[1.0333536384478066, 1.1498357146119815, 1.3831450218294776, 1.5996184049672593, 1.8496988395290828, 1.9996160312257416, 2.1660936004882387, 2.3323148697909346, 2.399378849511777, 2.5992081325675827, 2.7493659062020015, 2.9657963053668936, 3.199026701708135, 3.6319968846237316, 3.8654393138476735, 4.132065049507219, 5.2148393506085995]",2017_Jan_24_1324,60.0775289406,famFaceFilter,001,1,
13,./img/gray_NeilPatrickHarris(Barney)2_2.png,0,14,14,12,,,2.nein,1.315,None,None,None,None,None,sport,0.955,None,,['return'],[0.2337394677251723],2017_Jan_24_1324,60.0775289406,famFaceFilter,001,1,
6,./img/gray_NicoleKidman3_1.png,0,15,15,5,,,1.ja,0.954,None,act,0.407,None,None,None,None,None,,['return'],[0.21722881042478548],2017_Jan_24_1324,60.0775289406,famFaceFilter,001,1,
70,./img/gray_WillSmith5_1.png,0,16,16,69,,,1.ja,1.026,None,act,0.989,None,None,None,None,None,Smith Man in black,"['lshift', 's', 'm', 'i', 't', 'h', 'space', 'lshift', 'm', 'a', 'n', 'space', 'i', 'n', 'space', 'b', 'l', 'a', 'c', 'k', 'return']","[2.982677458850958, 3.1493458897857636, 3.665698244169107, 3.8824035482939507, 4.049248726760197, 4.198913788584832, 4.365476042690716, 4.615445809558878, 4.715413058338527, 4.948429176365607, 5.048485280074601, 5.198340241242477, 5.34837162916665, 5.465050340968446, 5.6479250128541025, 5.781715195251309, 6.01478873216729, 6.082062499337553, 6.214714248000746, 6.298113420591108, 7.16443679286931]",2017_Jan_24_1324,60.0775289406,famFaceFilter,001,1,
48,./img/gray_LeonardoDiCaprio2_1.png,0,17,17,47,,,1.ja,0.924,None,act,0.572,None,None,None,None,None,Leonardo di Caprio,"['lshift', 'l', 'r', 'o', 'n', 'a', 'r', 'd', 'o', 'backspace', 'backspace', 'backspace', 'backspace', 'backspace', 'backspace', 'backspace', 'e', 'o', 'n', 'a', 'r', 'd', 'o', 'space', 'd', 'i', 'space', 'lshift', 'c', 'a', 'p', 'r', 'i', 'o', 'return']","[0.6168957167101325, 0.7169640099036769, 0.9335294557295128, 1.0833215448183182, 1.3165586774539406, 1.4665631202005898, 1.633150074050718, 1.8331246685975202, 1.966432404013176, 2.649436829758997, 2.815966364720225, 2.9657507551855815, 3.0991255327680847, 3.265242870675138, 3.398515320739534, 3.5484463058000983, 4.031968528033758, 4.282018488882386, 5.181548263462901, 5.664609851477508, 5.964652739217854, 6.181158199946367, 6.3479289583992795, 6.547508036237559, 6.681047692642096, 6.781209973180012, 6.947350727728917, 7.064256869656674, 7.180830366958617, 7.364080988219939, 7.564119417174879, 7.947198038391434, 8.146849932363693, 8.297237702332495, 9.546551161673051]",2017_Jan_24_1324,60.0775289406,famFaceFilter,001,1,
25,./img/gray_MariskaHargitay(Liv)8_8.png,0,18,18,24,,,2.nein,2.247,None,None,None,host,0.704,None,None,None,,['return'],[0.3336092006229592],2017_Jan_24_1324,60.0775289406,famFaceFilter,001,1,
45,./img/gray_NicoleKidman7_1.png,0,19,19,44,,,1.ja,1.359,None,act,0.407,None,None,None,None,None,,['return'],[1.00008500561853],2017_Jan_24_1324,60.0775289406,famFaceFilter,001,1,
36,./img/gray_TomCruise5_1.png,0,20,20,35,,,1.ja,1.217,None,act,1.489,None,None,None,None,None,Ben Afflec,"['lshift', 'b', 'e', 'n', 'space', 'lshift', 'a', 'f', 'f', 'l', 'e', 'c', 'k', 'backspace', 'return']","[14.527921137882004, 14.694448427411771, 14.927635839780123, 15.044456655314207, 15.210881617325867, 15.293992412365697, 15.427413381679798, 15.710367894691444, 15.827377968018482, 15.977333332049966, 16.077405474554325, 16.310635550118604, 16.44377872748737, 18.176320899096027, 19.226098264569373]",2017_Jan_24_1324,60.0775289406,famFaceFilter,001,1,
9,./img/gray_RobertSeanLeonard(Wilson)8_1.png,0,21,21,8,,,2.nein,1.168,None,None,None,host,1.971,None,None,None,,['return'],[0.20050451636416255],2017_Jan_24_1324,60.0775289406,famFaceFilter,001,1,
35,./img/gray_JoachimLoew4_1.png,0,22,22,34,,,1.ja,0.899,None,None,None,None,None,sport,0.956,None,Jogi Löw,"['lshift', 'j', 'o', 'g', 'i', 'space', 'lshift', 'l', u'\xf6', 'w', 'return']","[0.8667894596892438, 0.9668693008152331, 1.4333063560789014, 1.7332388969043677, 1.8994819789695612, 2.082958105704165, 2.216260067152689, 2.3161240260851628, 2.499454520551808, 2.63287548986591, 3.315869971556822]",2017_Jan_24_1324,60.0775289406,famFaceFilter,001,1,
66,./img/gray_NeilPatrickHarris(Barney)3_7.png,0,23,23,65,,,1.ja,4.828,None,None,None,None,None,sport,4.448,None,,['return'],[0.28358130915694346],2017_Jan_24_1324,60.0775289406,famFaceFilter,001,1,
28,./img/gray_GeorgeClooney4_2.png,0,24,24,27,,,1.ja,1.545,None,dummy,0.489,None,None,None,None,None,George Cloony,"['lshift', 'g', 'e', 'o', 'r', 'g', 'e', 'space', 'lshift', 'c', 'l', 'o', 'o', 'n', 'y', 'return']","[0.7169466880041, 0.8668908248782827, 1.1333866462900914, 1.383283597026093, 1.5499286113190465, 1.716402652045872, 1.816407752383384, 1.9499092364530952, 2.0996811166587577, 2.2162684073246055, 2.4829053701414523, 2.765919547475278, 2.8993790098993486, 3.082666199616142, 3.2159524430444435, 4.298874301068281]",2017_Jan_24_1324,60.0775289406,famFaceFilter,001,1,
33,./img/gray_KatjaBurkard4_1.png,0,25,25,32,,,1.ja,0.892,None,None,None,host,0.704,None,None,None,Katja Burkhard,"['lshift', 'k', 'a', 't', 'h', 'backspace', 'j', 'a', 'space', 'lshift', 'b', 'u', 'r', 'k', 'h', 'a', 'r', 'd', 'return']","[0.7334419480594079, 0.8666281094028818, 1.0666306114544568, 1.2831864340023458, 1.483110025177666, 1.8994996216461004, 2.1327855122199253, 2.2662356721430115, 2.399437872281851, 2.5658965157654166, 2.6160113375044602, 2.8159955553292093, 2.949292705139669, 3.082545267096066, 3.3156925824750942, 3.5324466445399594, 3.715310730822239, 3.898784291346601, 5.931385710267932]",2017_Jan_24_1324,60.0775289406,famFaceFilter,001,1,
17,./img/gray_JasonSegel(Marshall)6_1.png,0,26,26,16,,,2.nein,1.233,None,dummy,0.688,None,None,None,None,None,,['return'],[0.4003379695077456],2017_Jan_24_1324,60.0775289406,famFaceFilter,001,1,
68,./img/gray_Ice-T(OdafinFinTutuola)7_1.png,0,27,27,67,,,2.nein,0.837,None,None,None,music,2.569,None,None,None,,['return'],[0.2504114753082831],2017_Jan_24_1324,60.0775289406,famFaceFilter,001,1,
41,./img/gray_RobertSeanLeonard(Wilson)1_1.png,0,28,28,40,,,2.nein,1.111,None,act,2.437,None,None,None,None,None,,['return'],[0.2837952666941419],2017_Jan_24_1324,60.0775289406,famFaceFilter,001,1,
23,./img/gray_TomCruise4_1.png,0,29,29,22,,,1.ja,1.669,None,act,0.988,None,None,None,None,None,Hugh Grant,"['lshift', 'h', 'u', 'g', 'h', 'space', 'lshift', 'g', 'r', 'a', 'n', 't', 'return']","[1.3497644382041472, 1.5330991027567507, 1.8163859396208863, 1.9829173992384312, 2.116190170077971, 2.2660374326242163, 2.3493686007204815, 2.482827742369409, 2.6492061918725085, 2.815976950325421, 2.932554617713322, 3.0491377382913925, 4.131942513105969]",2017_Jan_24_1324,60.0775289406,famFaceFilter,001,1,
27,./img/gray_LeonardoDiCaprio1_1.png,0,30,30,26,,,1.ja,1.072,None,act,1.039,None,None,None,None,None,Leonardo di Caprio,"['lshift', 'l', 'e', 'o', 'n', 'a', 'r', 'd', 'o', 'space', 'd', 'i', 'space', 'lshift', 'c', 'a', 'p', 's', 'backspace', 'r', 'i', 'o', 'return']","[0.8667586652009049, 1.0166331936998176, 1.2165975234183861, 1.4164662619114097, 1.666424801624089, 1.8663929806534725, 2.0330363910670712, 2.232869523433692, 2.366081988400765, 2.5493486484592722, 2.6826182115401025, 2.782609197736747, 2.949230795387848, 3.132280931700734, 3.2324332681837404, 3.4323138753879903, 3.615630255713768, 3.782277836213325, 4.431911301609944, 4.631822703300713, 4.748543757525113, 4.9151640720720025, 6.981051445722187]",2017_Jan_24_1324,60.0775289406,famFaceFilter,001,1,
22,./img/gray_GuentherJauch4_1.png,0,31,31,21,,,1.ja,0.943,None,None,None,host,0.472,None,None,None,Günther Jauch,"['lshift', 'g', u'\xfc', 'n', 't', 'h', 'e', 'r', 'space', 'lshift', 'j', 'a', 'u', 'c', 'h', 'return']","[0.749947152167806, 0.833496447889047, 1.1335489589055214, 1.4000261753153609, 1.5499241204561258, 1.6831869472425751, 1.7998714330115035, 1.899669312106198, 2.033022597701347, 2.1828688979203434, 2.2661634975611378, 2.449509389271043, 2.582786650975322, 2.7159731330921204, 2.8327878538839286, 3.8822495758540754]",2017_Jan_24_1324,60.0775289406,famFaceFilter,001,1,
69,./img/gray_OmarEpps(DrEricForeman)3_1.png,0,32,32,68,,,2.nein,1.121,None,None,None,music,0.605,None,None,None,,['return'],[0.28361916071480664],2017_Jan_24_1324,60.0775289406,famFaceFilter,001,1,
11,./img/gray_EmilyDeschanel6_12.png,0,33,33,10,,,1.ja,1.309,None,act,0.456,None,None,None,None,None,,['return'],[0.31721594731061487],2017_Jan_24_1324,60.0775289406,famFaceFilter,001,1,
62,./img/gray_LisaEdelstein(DrLisaCuddy)1_1.png,0,34,34,61,,,2.nein,1.247,None,None,None,host,2.222,None,None,None,,['return'],[0.28374747108318843],2017_Jan_24_1324,60.0775289406,famFaceFilter,001,1,
55,./img/gray_Ice-T(OdafinFinTutuola)6_1.png,0,35,35,54,,,2.nein,1.361,None,None,None,music,1.272,None,None,None,,['return'],[0.3169205126905581],2017_Jan_24_1324,60.0775289406,famFaceFilter,001,1,
4,./img/gray_AngelaMerkel1_1.png,0,36,36,3,,,1.ja,1.044,None,None,None,None,None,polit,0.772,None,Angela Merkel,"['lshift', 'a', 'n', 'g', 'e', 'l', 'a', 'space', 'lshift', 'm', 'e', 'r', 'k', 'e', 'l', 'return']","[0.7667991150447051, 0.8833783863119606, 1.3165355815890507, 1.599909027951071, 1.716223017532684, 1.832957223570702, 1.983054370557511, 2.116260740782309, 2.2661073617764487, 2.366212223423645, 2.53273822985102, 2.6493306529300753, 2.7493524336150585, 2.882549501338872, 2.965913709354936, 4.032016002869568]",2017_Jan_24_1324,60.0775289406,famFaceFilter,001,1,
24,./img/gray_JoachimLoew1_1.png,0,37,37,23,,,1.ja,1.064,None,None,None,None,None,sport,1.721,None,Jogi Löw,"['lshift', 'j', 'o', 'g', 'i', 'space', 'lshift', 'l', u'\xf6', 'w', 'return']","[1.1999476493692782, 1.2667428188688064, 1.5665213872525783, 1.8831750143781392, 2.0329834630374535, 2.1995277536916547, 2.3162279574808053, 2.416137145817629, 2.616102117088303, 2.7993758342163346, 3.7655840158640785]",2017_Jan_24_1324,60.0775289406,famFaceFilter,001,1,
44,./img/gray_BritneySpears5_1.png,0,38,38,43,,,1.ja,1.072,None,None,None,music,0.938,None,None,None,Britney Spears,"['lshift', 'b', 'r', 'i', 't', 'n', 'e', 'y', 'space', 'lshift', 's', 'p', 'e', 'a', 'r', 's', 'return']","[0.6834114903849695, 0.8500593916596699, 1.0998402215136593, 1.3165756785765552, 2.0329465738068393, 2.265999260289391, 2.3994760446148575, 2.6326576830160775, 2.7659259629926964, 2.9655784985170612, 3.0490844894884503, 3.4487841149184533, 3.632287186830581, 3.798837893002201, 3.948673286839039, 4.1155482974645565, 5.79792368163362]",2017_Jan_24_1324,60.0775289406,famFaceFilter,001,1,
43,./img/gray_LisaEdelstein(DrLisaCuddy)6_3.png,0,39,39,42,,,2.nein,2.757,None,None,None,host,1.354,None,None,None,,['return'],[0.2166924730900064],2017_Jan_24_1324,60.0775289406,famFaceFilter,001,1,
18,./img/gray_JasonSegel(Marshall)7_1.png,0,40,40,17,,,1.ja,3.004,None,act,0.589,None,None,None,None,None,,['return'],[1.0666912381020666],2017_Jan_24_1324,60.0775289406,famFaceFilter,001,1,
63,./img/gray_JoshRadnor(Ted)3_1.png,0,41,41,62,,,2.nein,1.121,None,None,None,None,None,sport,0.755,None,,['return'],[0.20034316607598157],2017_Jan_24_1324,60.0775289406,famFaceFilter,001,1,
42,./img/gray_NicoleKidman5_1.png,0,42,42,41,,,1.ja,1.049,None,act,0.406,None,None,None,None,None,,['return'],[0.16711687566930777],2017_Jan_24_1324,60.0775289406,famFaceFilter,001,1,
37,./img/gray_TomCruise1_1.png,0,43,43,36,,,1.ja,2.816,None,act,0.64,None,None,None,None,None,Ben Afflec,"['lshift', 'b', 'e', 'n', 'space', 'lshift', 'a', 'f', 'f', 'l', 'e', 'x', 'backspace', 'c', 'return']","[0.7666028001804079, 0.9000709235551767, 1.1499467030807864, 1.2831777730516478, 1.4331315332019585, 1.5161688705575216, 1.6498410074145795, 1.9161677799183963, 2.049518178531798, 2.2161580604079063, 2.2995973299894104, 2.699376828622917, 3.6823516467502486, 4.098715901920514, 4.781750159825606]",2017_Jan_24_1324,60.0775289406,famFaceFilter,001,1,
54,./img/gray_LeonardoDiCaprio3_1.png,0,44,44,53,,,1.ja,1.299,None,act,0.405,None,None,None,None,None,Leonardo di Caprio,"['lshift', 'l', 'e', 'o', 'n', 'a', 'r', 'd', 'o', 'space', 'd', 'i', 'space', 'lshift', 'c', 'a', 'p', 'r', 'i', 'o', 'return']","[0.7500565367554373, 0.88338159407067, 1.1166440680026426, 1.3163684573337378, 1.5998477597495366, 1.8496917824577395, 2.082795793088735, 2.2826517005451024, 2.9822662241240323, 4.831823922248077, 5.014841980970232, 5.181623966580446, 5.364874267066625, 5.481462199284579, 5.598153421347888, 5.797916303788952, 6.01458792644371, 6.314631776511305, 6.497757295166593, 6.647629899009189, 7.813909870306816]",2017_Jan_24_1324,60.0775289406,famFaceFilter,001,1,
52,./img/gray_EmilyDeschanel5_1.png,0,45,45,51,,,1.ja,1.022,None,act,0.438,None,None,None,None,None,,['return'],[0.3004281396188162],2017_Jan_24_1324,60.0775289406,famFaceFilter,001,1,
51,./img/gray_AlysonHannigan(Lily)1_1.png,0,46,46,50,,,1.ja,1.048,None,dummy,0.404,None,None,None,None,None,Nicole Richtie,"['lshift', 'n', 'i', 'c', 'o', 'l', 'e', 'space', 'lshift', 'r', 'i', 'c', 'h', 't', 'i', 'e', 'return']","[0.9166916069953004, 1.0331348692725442, 1.2998420820149477, 1.466501531223912, 1.5831619587988826, 1.7493694347394921, 1.8329261083054007, 1.9664231015121914, 2.1496499853565183, 2.2494231647051492, 2.499152991187657, 2.666181332702763, 2.782725318618759, 2.9659663166039536, 3.0825690045148804, 3.2322767295354424, 4.298841261150301]",2017_Jan_24_1324,60.0775289406,famFaceFilter,001,1,
30,./img/gray_BarackObama4_1.png,0,47,47,29,,,1.ja,1.081,None,None,None,None,None,polit,1.406,None,Barack Obama,"['lshift', 'b', 'a', 'r', 'a', 'c', 'k', 'space', 'lshift', 'o', 'b', 'a', 'm', 'a', 'return']","[0.766760301155955, 0.866736531661445, 1.0833969271589012, 1.299601820852331, 1.4831071381941001, 1.6995715396060405, 1.849700122631475, 2.016310813900418, 2.099571090519021, 2.2160586198733654, 2.3994394761593867, 2.516092846664833, 2.616065227857689, 2.749140400732358, 4.0321718999639415]",2017_Jan_24_1324,60.0775289406,famFaceFilter,001,1,
58,./img/gray_GeorgeClooney3_1.png,0,48,48,57,,,1.ja,1.013,None,act,0.405,None,None,None,None,None,George Cloony,"['lshift', 'g', 'e', 'o', 'r', 'g', 'e', 'space', 'lshift', 'c', 'l', 'o', 'o', 'n', 'y', 'return']","[0.6832905578648933, 0.8000860321008076, 1.0000612681997154, 1.1834020274964132, 1.3662455841185874, 1.4997958261283202, 1.6331032407670136, 1.7660555564634706, 1.9163451690019428, 2.016227732938205, 2.2662674289585993, 2.48274177442363, 2.6325332219603297, 2.8159522505793575, 2.9325966393589624, 4.0152349314703315]",2017_Jan_24_1324,60.0775289406,famFaceFilter,001,1,
72,./img/gray_WillSmith4_1.png,0,49,49,71,,,1.ja,3.271,None,act,0.405,None,None,None,None,None,,['return'],[0.30034345477542956],2017_Jan_24_1324,60.0775289406,famFaceFilter,001,1,
12,./img/gray_BarackObama2_1.png,0,50,50,11,,,1.ja,0.922,None,None,None,None,None,polit,0.922,None,Barack Obama,"['lshift', 'b', 'a', 'r', 'a', 'c', 'k', 'space', 'lshift', 'o', 'b', 'a', 'm', 'a', 'return']","[0.7501495617725595, 0.8501434349527699, 1.0666360646446265, 1.2831649420149915, 1.4497425933641352, 1.6997774777464656, 1.7996857037560403, 1.9664125159069954, 2.1161994725807745, 2.1992512448505295, 2.3660861584867234, 2.4992957364720496, 2.5991054842743324, 2.699277388088376, 3.7986319548635947]",2017_Jan_24_1324,60.0775289406,famFaceFilter,001,1,
26,./img/gray_BarackObama1_3.png,0,51,51,25,,,1.ja,1.071,None,None,None,None,None,polit,0.687,None,Barack Obama,"['lshift', 'b', 'a', 'r', 'a', 'c', 'k', 'space', 'lshift', 'o', 'b', 'a', 'm', 'a', 'return']","[0.7666021586301213, 0.8833283452677279, 1.0666168180887325, 1.2664691970112472, 1.433006430594105, 1.61629714884657, 1.749566391152257, 1.8830213627134071, 1.9662543733793427, 2.0828657222373295, 2.216195270415483, 2.3661278593554016, 2.4661695281483844, 2.582381510988853, 3.4989448076157714]",2017_Jan_24_1324,60.0775289406,famFaceFilter,001,1,
16,./img/gray_JoshRadnor(Ted)1_2.png,0,52,52,15,,,2.nein,1.055,None,None,None,None,None,sport,0.687,None,,['return'],[0.2670289509878785],2017_Jan_24_1324,60.0775289406,famFaceFilter,001,1,
56,./img/gray_GuentherJauch2_1.png,0,53,53,55,,,1.ja,0.967,None,None,None,host,0.456,None,None,None,Günther Jauch,"['lshift', 'g', u'\xfc', 'n', 't', 'h', 'e', 'r', 'space', 'lshift', 'j', 'a', 'u', 'c', 'h', 'return']","[0.7834258932252851, 0.8833251375090185, 1.199823829865636, 1.4330500561209192, 1.583115125515178, 1.7330801128246094, 1.849697235649728, 1.932852297766658, 2.099653529930947, 2.249487640665393, 2.366188165229687, 2.5160537120027584, 2.665674185975149, 2.799250410835157, 2.915804340804243, 4.015496043070016]",2017_Jan_24_1324,60.0775289406,famFaceFilter,001,1,
5,./img/gray_OmarEpps(DrEricForeman)2_2.png,0,54,54,4,,,2.nein,1.193,None,None,None,music,0.972,None,None,None,,['return'],[0.2004628154954844],2017_Jan_24_1324,60.0775289406,famFaceFilter,001,1,
15,./img/gray_GeorgeClooney11_1.png,0,55,55,14,,,1.ja,0.743,None,act,0.471,None,None,None,None,None,George Cloony,"['lshift', 'g', 'e', 'o', 'r', 'g', 'e', 'space', 'lshift', 'c', 'l', 'o', 'o', 'n', 'y', 'return']","[0.8334130461498717, 0.9167612153687514, 1.1500082920574641, 1.2664358363163046, 1.3997689130283106, 1.5163462596410682, 1.6329194361660484, 1.7495295019216428, 1.899626648908452, 1.9828657543166628, 2.2162045729182864, 2.4493903814054647, 2.5827106270826334, 2.7658929230747162, 2.898891430504591, 4.0819864754466835]",2017_Jan_24_1324,60.0775289406,famFaceFilter,001,1,
19,./img/gray_JasonSegel(Marshall)9_1.png,0,56,56,18,,,2.nein,1.178,None,dummy,0.705,None,None,None,None,None,,['return'],[0.31717649187157804],2017_Jan_24_1324,60.0775289406,famFaceFilter,001,1,
32,./img/gray_MariskaHargitay(Liv)6_5.png,0,57,57,31,,,2.nein,1.044,None,None,None,host,0.671,None,None,None,,['return'],[0.2997500193268934],2017_Jan_24_1324,60.0775289406,famFaceFilter,001,1,
71,./img/gray_BritneySpears7_1.png,0,58,58,70,,,1.ja,1.064,None,None,None,music,0.496,None,None,None,Britney Spears,"['lshift', 'b', 'r', 'i', 't', 'j', 'e', 'backspace', 'backspace', 'n', 'e', 'y', 'space', 'lshift', 's', 'p', 'e', 'a', 'r', 's', 'return']","[0.5501002264354611, 0.6501165539302747, 0.9000282603574306, 1.0165266960939334, 1.5329858688583045, 1.782916501066211, 1.8996167048553616, 2.5159706310405454, 2.69932967456225, 3.5822605784669577, 3.732103670927245, 4.082104841760156, 4.232007277763842, 4.431658209408852, 4.515155539431362, 4.8816959166179, 5.1648711234629445, 5.298056001700388, 5.498057220649571, 5.597951974070384, 6.381008654212565]",2017_Jan_24_1324,60.0775289406,famFaceFilter,001,1,
2,./img/gray_BastianSchweinsteiger1_1.png,0,59,59,1,,,1.ja,2.564,None,None,None,None,None,sport,1.555,None,Schweinsteiger,"['lshift', 's', 'c', 'h', 'w', 'e', 'i', 'n', 's', 't', 'e', 'i', 'g', 'e', 'r', 'return']","[2.0662437556966324, 2.265705750325651, 2.9658723292595823, 3.115758405692759, 3.3656319397869083, 3.448976259694973, 3.5155744727817364, 3.648830884048948, 3.7321456925728853, 3.832086637727116, 3.931996146839083, 3.998654986573456, 4.115410363821866, 4.2320149763872905, 4.331885671614145, 5.11471973326843]",2017_Jan_24_1324,60.0775289406,famFaceFilter,001,1,
1,./img/gray_JoachimLoew8_1.png,0,60,60,0,,,1.ja,1.515,None,None,None,None,None,sport,0.805,None,Jogi Löw,"['lshift', 'j', 'o', 'g', 'i', 'space', 'lshift', 'l', u'\xf6', 'w', 'return']","[0.7166403470037039, 0.833484899954783, 1.2164830064157286, 1.5329348654886417, 1.6997607973989943, 1.883034835302169, 1.9829215693262086, 2.099791784352419, 2.2996845810394007, 2.4328505334997317, 3.9823579660369433]",2017_Jan_24_1324,60.0775289406,famFaceFilter,001,1,
20,./img/gray_WillSmith1_1.png,0,61,61,19,,,1.ja,2.797,None,dummy,1.056,None,None,None,None,None,Smith Man in black,"['lshift', 's', 'm', 'i', 't', 'h', 'space', 'lshift', 'm', 'a', 'n', 'space', 'i', 'n', 'space', 'b', 'l', 'a', 'c', 'k', 'return']","[1.0499095251525432, 1.166592407042117, 1.8995859103670227, 2.0991165510422434, 2.3007800308005244, 2.4660566150250816, 2.6491898323019996, 2.815635644748909, 3.2654019755300396, 3.532330523656128, 3.6486207758225646, 3.7822473625001294, 3.9488195606591034, 4.065304203029882, 4.248604544560294, 4.415256936697915, 4.615194962791065, 4.7319496984855505, 4.865226318637724, 4.931636557033926, 5.881544510384629]",2017_Jan_24_1324,60.0775289406,famFaceFilter,001,1,
60,./img/gray_EmilyDeschanel3_1.png,0,62,62,59,,,1.ja,1.165,None,dummy,0.405,None,None,None,None,None,,['return'],[0.8834095015736239],2017_Jan_24_1324,60.0775289406,famFaceFilter,001,1,
50,./img/gray_BastianSchweinsteiger3_1.png,0,63,63,49,,,1.ja,1.222,None,None,None,None,None,sport,1.039,None,Schweinsteiger,"['lshift', 's', 'c', 'h', 'w', 'e', 'i', 'n', 's', 't', 'e', 'i', 'g', 'e', 'r', 'return']","[1.1998764371164725, 1.2831986234868964, 1.6330644268819015, 1.7331121904153406, 1.8830011538320832, 1.983122054274645, 2.0330068796811247, 2.1328753294783382, 2.216188534122921, 2.282681211931049, 2.3994490994391526, 2.48278155063781, 2.549284814051134, 2.6660472483690683, 2.766005836198019, 3.199212110190274]",2017_Jan_24_1324,60.0775289406,famFaceFilter,001,1,
7,./img/gray_OmarEpps(DrEricForeman)1_5.png,0,64,64,6,,,1.ja,2.423,None,None,None,music,0.42,None,None,None,,['return'],[1.1000217806849832],2017_Jan_24_1324,60.0775289406,famFaceFilter,001,1,
38,./img/gray_MariskaHargitay(Liv)4_4.png,0,65,65,37,,,2.nein,1.272,None,None,None,host,1.738,None,None,None,,['return'],[0.233892798611123],2017_Jan_24_1324,60.0775289406,famFaceFilter,001,1,
39,./img/gray_UrsulavonderLeyen1_1.png,0,66,66,38,,,1.ja,0.896,None,None,None,None,None,polit,0.722,None,Ursula von der Leyen,"['lshift', 'u', 'r', 's', 'u', 'l', 'a', 'space', 'v', 'o', 'n', 'space', 'd', 'e', 'r', 'space', 'lshift', 'l', 'e', 'y', 'e', 'n', 'return']","[0.7168020180652093, 0.8337181040460564, 1.0334457011376799, 1.2166443567002716, 1.3499812827249116, 1.5164732869034196, 1.6333367656352493, 1.7664764144683431, 1.899826813081745, 1.9997218872777012, 2.1498610559101508, 2.2996890719023213, 2.9492670430645376, 3.1657356145624362, 3.2825862622576096, 3.499103912470673, 3.7156680751922977, 3.83251198659309, 4.098898102642124, 4.348669950770272, 4.582103719043516, 4.698684273414983, 4.981977205021394]",2017_Jan_24_1324,60.0775289406,famFaceFilter,001,1,
29,./img/gray_UrsulavonderLeyen4_1.png,0,67,67,28,,,1.ja,1.349,None,None,None,None,None,polit,0.77,None,Ursula von der Leyen,"['lshift', 'u', 'r', 's', 'u', 'l', 'a', 'space', 'v', 'o', 'n', 'space', 'd', 'e', 'r', 'space', 'lshift', 'l', 'e', 'y', 'e', 'n', 'return']","[0.8336148142025195, 1.017039296013536, 1.2669198871772096, 1.483429838768643, 1.599935973126776, 1.8165495353405277, 1.9165094062736898, 2.0331746454867243, 2.166487192540444, 2.2664852358084318, 2.3663309105140797, 2.5330189087781037, 2.5828973186671647, 2.733048676784165, 2.8326688460183505, 2.9662036907848233, 3.115957286761841, 3.1827453991918446, 3.366001473645156, 3.6158028331574315, 3.8155038058466744, 3.9656763351740665, 4.648777635247825]",2017_Jan_24_1324,60.0775289406,famFaceFilter,001,1,
46,./img/gray_GuentherJauch3_1.png,0,68,68,45,,,1.ja,1.423,None,None,None,host,0.753,None,None,None,Günther Jauch,"['lshift', 'g', u'\xfc', 'n', 't', 'h', 'e', 'r', 'space', 'lshift', 'j', 'a', 'u', 'c', 'h', 'return']","[0.7167564678838971, 0.8333630051056389, 1.1332416555760574, 1.38314534260644, 1.5162856329916394, 1.6498169492224406, 1.749795425157572, 1.833035492893032, 1.982991498474803, 2.116192415509431, 2.232854126188613, 2.3826375543267204, 2.532570784818745, 2.6493328983615356, 2.7655452019771474, 3.3490051616045093]",2017_Jan_24_1324,60.0775289406,famFaceFilter,001,1,
14,./img/gray_JoshRadnor(Ted)6_2.png,0,69,69,13,,,2.nein,1.261,None,None,None,host,0.854,None,None,None,,['return'],[0.6499667515763576],2017_Jan_24_1324,60.0775289406,famFaceFilter,001,1,
67,./img/gray_AngelaMerkel4_1.png,0,70,70,66,,,1.ja,1.075,None,None,None,None,None,polit,0.721,None,Angela Merkel,"['lshift', 'a', 'n', 'g', 'e', 'l', 'a', 'space', 'lshift', 'm', 'e', 'r', 'k', 'e', 'l', 'return']","[0.8169922061078978, 0.9499143688699405, 1.2834462624959997, 1.4833223788373289, 1.5667186644441244, 1.6832308935445326, 1.8332221844775631, 1.9664211768576934, 2.116402844512777, 2.183081251578187, 2.3997310614704475, 2.5162384789327916, 2.982778824041816, 3.132757283940009, 3.2493914078895614, 3.7990916267553985]",2017_Jan_24_1324,60.0775289406,famFaceFilter,001,1,
47,./img/gray_HughLaurie(DrHouse)5_3.png,0,71,71,46,,,1.ja,1.385,None,act,1.27,None,None,None,None,None,,['return'],[0.38364446993546153],2017_Jan_24_1324,60.0775289406,famFaceFilter,001,1,
