num,pic,trials.thisRepN,trials.thisTrialN,trials.thisN,trials.thisIndex,key_resp_2.keys,key_resp_2.rt,ratingBekannt.response,ratingBekannt.rt,key_resp_5.keys,ratingK1.response,ratingK1.rt,ratingK2.response,ratingK2.rt,ratingK3.response,ratingK3.rt,key_resp_6.keys,inputText,key_resp_4.keys,key_resp_4.rt,date,frameRate,expName,session,participant,
,,,,,,space,17.2746547569,,,,,,,,,,,,,,2017_Feb_20_1713,60.1164555403,famFaceFilter,001,20,
54,./img/smoo15_LisaEdelstein(DrLisaCuddy)6_3.png,0,0,0,53,,,1.ja,5.188,None,act,1.483,None,None,None,None,None,die klinikleitende Aerztin aus Dr House,"['d', 'e', 'backspace', 'i', 'e', 'space', 'k', 'l', 'i', 'n', 'i', 'k', 'l', 'e', 'i', 'e', 'backspace', 't', 'e', 'n', 'd', 'e', 'space', 'lshift', 'lshift', 'a', 'e', 'r', 'z', 't', 'i', 'n', 'space', 'a', 'u', 's', 'space', 'lshift', 'd', 'r', 'space', 'lshift', 'h', 'o', 'u', 's', 'e', 'return']","[4.23207977311904, 4.4818310915907205, 5.531461541693716, 5.881301041463303, 5.997793703230855, 7.414064933385816, 8.246993928674783, 8.39702435426807, 8.56362381837971, 8.763159591471776, 8.946619358634052, 9.296531353760656, 9.562939603347331, 9.662892096432188, 9.829786995167524, 10.645761058509379, 11.045916827293695, 11.162423603203933, 11.27908242689955, 11.562254425985884, 12.195330721573555, 12.295270704398717, 13.3282310715731, 15.577149976532382, 16.010554490043432, 16.427050904891075, 16.693628844939667, 16.876673528062383, 17.27643410091696, 17.693055618372455, 17.809637455848133, 18.009575481941283, 23.140751340601128, 28.738653915181203, 28.83857336834626, 28.905146240136673, 29.071736080972187, 29.454987921180873, 29.638235334685305, 29.83818490870908, 30.004682045306254, 30.137713271877146, 30.35453662154032, 30.75435333018322, 30.920976531713677, 31.354138859402156, 31.503959176770877, 32.370528263403685]",2017_Feb_20_1713,60.1164555403,famFaceFilter,001,20,
46,./img/smoo15_NeilPatrickHarris(Barney)1_1.png,0,1,1,45,,,1.ja,5.883,None,act,7.682,None,None,None,None,None,Barney aus Himym,"['lshift', 'b', 'a', 'r', 'n', 'e', 'y', 'space', 'a', 'u', 's', 'space', 'lshift', 'h', 'i', 'm', 'y', 'm', 'return']","[0.7667221288211294, 0.9334280905386549, 1.0500702338867995, 1.283293893931841, 2.1329305029321404, 2.9325514099546126, 3.1491110818133166, 3.2989759870324633, 3.415694475050259, 3.5988835073367227, 3.7156969450261386, 3.8655060352357395, 5.231642234768515, 5.581418220903288, 5.84775878677101, 6.131263751260121, 6.7975717904519115, 7.030814697052847, 8.679651034293784]",2017_Feb_20_1713,60.1164555403,famFaceFilter,001,20,
39,./img/smoo15_BarackObama2_1.png,0,2,2,38,,,1.ja,5.712,None,None,None,None,None,polit,0.903,None,Barak Obama,"['lshift', 'b', 'a', 'r', 'a', 'k', 'space', 'lshift', 'o', 'b', 'a', 'm', 'a', 'return']","[0.5002718575924519, 1.1332618644592003, 1.283196378055436, 1.6663279272979707, 1.8662024397599453, 2.0163829884841107, 2.1495418838749174, 2.282824277990585, 2.4661018444312504, 2.816015443437209, 2.9322595038720465, 3.115817428464652, 3.1657936750052613, 4.032530527445488]",2017_Feb_20_1713,60.1164555403,famFaceFilter,001,20,
63,./img/smoo15_RobertSeanLeonard(Wilson)8_1.png,0,3,3,62,,,1.ja,2.882,None,act,1.208,None,None,None,None,None,Dr Wilson aus Dr House,"['lshift', 'd', 'r', 'space', 'lshift', 'w', 'i', 'l', 's', 'o', 'n', 'space', 'a', 'u', 's', 'space', 'lshift', 'lshift', 'd', 'r', 'space', 'lshift', 'h', 'o', 'u', 's', 'e', 'return']","[0.650276300337282, 1.1000317247417115, 1.716360309626907, 1.8997889615238819, 1.999660939854948, 2.299524513859069, 2.5328591623729153, 2.765737988305773, 3.2490882746460557, 3.365746456791385, 3.548996757279383, 4.48193502299182, 5.9147650268314464, 6.048049987155537, 6.147958854715398, 6.331196324164921, 6.581187583022256, 9.146763002092484, 9.363279048426193, 9.579870156325342, 9.863111763785128, 10.012919570894155, 10.213068988316081, 10.496065522973367, 10.679574368852627, 10.829109195652563, 10.979305783173913, 11.66235607987619]",2017_Feb_20_1713,60.1164555403,famFaceFilter,001,20,
34,./img/smoo15_EmilyDeschanel5_1.png,0,4,4,33,,,2.nein,5.8,None,None,None,host,2.601,None,None,None,,['return'],[0.8833334776827542],2017_Feb_20_1713,60.1164555403,famFaceFilter,001,20,
1,./img/smoo15_Ice-T(OdafinFinTutuola)6_1.png,0,5,5,0,,,2.nein,3.007,None,None,None,None,None,sport,0.807,None,,['return'],[0.6335754229185113],2017_Feb_20_1713,60.1164555403,famFaceFilter,001,20,
49,./img/smoo15_TomCruise5_1.png,0,6,6,48,,,1.ja,1.706,None,act,0.641,None,None,None,None,None,Tom Cruiz,"['lshift', 't', 'o', 'm', 'space', 'lshift', 'c', 'r', 'u', 'i', 'z', 'return']","[0.5001791533504729, 0.7834650278855406, 1.11663284084716, 1.449746121899807, 1.6163843998983793, 1.7826909955947485, 2.082859306719911, 2.3328085439316055, 2.566045676565409, 2.7493360740409116, 2.982424366651685, 3.6821158764505526]",2017_Feb_20_1713,60.1164555403,famFaceFilter,001,20,
28,./img/smoo15_HughLaurie(DrHouse)5_3.png,0,7,7,27,,,1.ja,1.424,None,dummy,0.941,None,None,None,None,None,Hugh Laurie,"['lshift', 'h', 'u', 'g', 'h', 'space', 'lshift', 'l', 'a', 'i', 'backspace', 'u', 'r', 'i', 'e', 'return']","[0.6667965809137968, 1.0000330399197992, 1.2000332965435518, 1.5328825790129486, 1.6664029888634104, 1.89976009169186, 2.4328482880700903, 2.5993412545758474, 2.7992683742850204, 2.882477326758817, 3.3657811005905387, 3.6322926400243887, 3.9654742463462753, 4.082200112210558, 4.465221635309717, 11.545719710495177]",2017_Feb_20_1713,60.1164555403,famFaceFilter,001,20,
10,./img/smoo15_KatjaBurkard5_3.png,0,8,8,9,,,1.ja,2.518,None,None,None,host,0.624,None,None,None,,['return'],[0.5836681432010664],2017_Feb_20_1713,60.1164555403,famFaceFilter,001,20,
68,./img/smoo15_AlysonHannigan(Lily)8_3.png,0,9,9,67,,,1.ja,2.139,None,act,0.675,None,None,None,None,None,Himym,"['lshift', 'h', 'i', 'm', 'y', 'm', 'return']","[1.4829265413536632, 2.132828496192815, 2.282541032855079, 2.5494920352939516, 3.1657128394726897, 3.3654215107853815, 5.414876817234472]",2017_Feb_20_1713,60.1164555403,famFaceFilter,001,20,
24,./img/smoo15_BastianSchweinsteiger1_1.png,0,10,10,23,,,1.ja,1.584,None,None,None,None,None,sport,1.191,None,Bastian Schweinsteiger,"['lshift', 'b', 'a', 's', 't', 'i', 'a', 'n', 'space', 'lshift', 's', 'c', 'h', 'w', 'e', 'i', 'n', 's', 't', 'e', 'i', 'g', 'e', 'r', 'return']","[0.6003456039761659, 1.016805450366519, 1.1334479144934448, 1.39984172916229, 2.5494484097689565, 2.699409868542716, 2.932618452123279, 3.032692198506993, 3.2494853952339326, 3.465756368765142, 3.6653694488522888, 3.7658111252167146, 3.932258862318122, 4.015568859202176, 4.315506211667525, 4.482121714572713, 4.781952890207322, 4.998505184219539, 5.1984367947952705, 5.381491101194115, 5.74806323519806, 5.931450507003319, 6.031398509225255, 9.180171172447444]",2017_Feb_20_1713,60.1164555403,famFaceFilter,001,20,
8,./img/smoo15_AngelaMerkel4_1.png,0,11,11,7,,,1.ja,1.851,None,None,None,None,None,polit,1.224,None,Angela Merkel,"['lshift', 'a', 'n', 'g', 'e', 'l', 'a', 'space', 'lshift', 'm', 'e', 'r', 'k', 'e', 'l', 'return']","[0.28366246546647744, 0.7001389922079397, 0.9333818988088751, 1.3997974620870082, 1.5497284471457533, 1.7496671147928282, 1.8662232901951938, 2.0326094383199234, 2.132718470053078, 2.265900782083918, 2.4660838809795678, 2.5659446321515134, 3.5489370929572033, 3.6156260856259905, 3.7986027642546105, 4.181876738006395]",2017_Feb_20_1713,60.1164555403,famFaceFilter,001,20,
38,./img/smoo15_AlysonHannigan(Lily)5_4.png,0,12,12,37,,,1.ja,1.6,None,act,0.608,None,None,None,None,None,Himym,"['lshift', 'h', 'i', 'm', 'y', 'm', 'return']","[0.41680403895588825, 0.7501232581489603, 1.0500981413933914, 2.2827649344435486, 2.732566871352901, 3.082401559484424, 3.5823811902155285]",2017_Feb_20_1713,60.1164555403,famFaceFilter,001,20,
57,./img/smoo15_UrsulavonderLeyen5_1.png,0,13,13,56,,,1.ja,2.608,None,None,None,None,None,polit,1.374,None,Ursular Von der Leyen,"['lshift', 'u', 'r', 's', 'u', 'l', 'a', 'r', 'space', 'lshift', 'v', 'o', 'n', 'space', 'd', 'e', 'r', 'space', 'l', 'backspace', 'lshift', 'l', 'e', 'y', 'e', 'n', 'return']","[1.0332933325735212, 1.5499276489899785, 1.7843381799357303, 2.0330841866743867, 2.4494275914112222, 3.1158292971704213, 3.2159367250242212, 4.032112556418724, 4.165428952783259, 4.331944373603619, 4.631887820811244, 4.7651297971606255, 4.931748507828161, 5.0650254487554776, 5.398369367692794, 5.614826391258248, 5.714713125282287, 5.798086956576299, 6.031318315246608, 7.3973986997662, 7.963768360008544, 8.246977889877598, 9.296704893531569, 9.529899042194302, 9.779743385679467, 10.162888086731982, 10.779450196489051]",2017_Feb_20_1713,60.1164555403,famFaceFilter,001,20,
37,./img/smoo15_Ice-T(OdafinFinTutuola)5_1.png,0,14,14,36,,,2.nein,1.802,None,None,None,None,None,sport,0.841,None,,['return'],[0.6835673874811619],2017_Feb_20_1713,60.1164555403,famFaceFilter,001,20,
31,./img/smoo15_BritneySpears1_1.png,0,15,15,30,,,1.ja,1.307,None,None,None,music,1.263,None,None,None,Brittney Spears,"['lshift', 'b', 'r', 'i', 't', 't', 'n', 'e', 'y', 'space', 'lshift', 's', 'p', 'e', 'a', 'r', 's', 'return']","[0.5833018170997093, 0.8002358344529057, 1.0834501759600244, 1.266762706974987, 1.633176056900993, 1.7664003905738355, 1.9997360014167498, 2.132970920698426, 2.549537906248588, 2.699516045369819, 2.8827105308482714, 3.04919708183661, 3.332467879903561, 3.482382184618473, 3.699120849440078, 3.9323214136202296, 4.1488230250361084, 4.398752053366479]",2017_Feb_20_1713,60.1164555403,famFaceFilter,001,20,
47,./img/smoo15_BarackObama4_1.png,0,16,16,46,,,1.ja,1.701,None,None,None,None,None,polit,0.891,None,Barak Obama,"['lshift', 'b', 'a', 'r', 'a', 'k', 'space', 'lshift', 'lshift', 'o', 'b', 'a', 'm', 'a', 'return']","[0.2836316709763196, 0.8167792108979484, 0.9834008085490495, 1.2164826856387663, 1.4331559121746977, 1.6497476616241329, 1.7997976545520942, 1.9162550309702056, 2.0994151934246474, 2.2994042228892795, 2.6160716433769267, 2.732647706885473, 2.94922983305878, 3.0158521043413202, 3.7322647004402825]",2017_Feb_20_1713,60.1164555403,famFaceFilter,001,20,
36,./img/smoo15_BastianSchweinsteiger6_2.png,0,17,17,35,,,1.ja,4.823,None,None,None,None,None,sport,1.536,None,Bastian Schweinsteiger,"['lshift', 'b', 'a', 's', 't', 'i', 'a', 'n', 'space', 'lshift', 's', 'c', 'h', 'w', 'e', 'i', 'n', 's', 't', 'e', 'i', 'g', 'e', 'r', 'return']","[0.40021222534778644, 0.966493351439567, 1.0832330106641166, 1.2997942864021752, 1.549707917489286, 1.7664199579085107, 1.8829504712375638, 2.01623061992359, 2.199485732049652, 2.2329086580939475, 2.4326648042406305, 2.6159901662940683, 2.6992642362747574, 2.8659310633302084, 2.9492628729785793, 3.2158096977618698, 3.4156011292616313, 3.6155641758741695, 3.848594728817261, 3.998819223845203, 4.165208579728642, 4.448462376672978, 4.615071143289242, 4.681770721563225, 4.898309542986681]",2017_Feb_20_1713,60.1164555403,famFaceFilter,001,20,
16,./img/smoo15_WillSmith4_1.png,0,18,18,15,,,1.ja,1.549,None,act,0.691,None,None,None,None,None,Will Smith,"['lshift', 'w', 'i', 'l', 'l', 'space', 'lshift', 's', 'm', 'i', 't', 'h', 'return']","[0.6833707518453593, 1.016647949392791, 1.2000377874028345, 1.4165345871806494, 1.549668141273287, 1.733095189290907, 1.7995371845026966, 1.9663470776176837, 2.082864439133118, 2.2660842659097398, 2.5158917201624718, 2.649089750215353, 28.172161076985503]",2017_Feb_20_1713,60.1164555403,famFaceFilter,001,20,
3,./img/smoo15_JoshRadnor(Ted)3_1.png,0,19,19,2,,,1.ja,2.751,None,act,0.907,None,None,None,None,None,amerikanische Serie,"['a', 'm', 'e', 'r', 'i', 'k', 'a', 'n', 'i', 's', 'c', 'h', 'e', 'space', 's', 'e', 'r', 'backspace', 'backspace', 'backspace', 'lshift', 's', 'e', 'r', 'i', 'e', 'return']","[3.532309993996023, 3.6822740189782053, 3.8320949779008515, 3.9487701611651573, 4.131870338522276, 4.5152267516859865, 4.615139147779701, 4.748429882070923, 4.9647236306955165, 5.082071801840357, 5.1982144970825175, 5.2982032378458825, 5.481398364874622, 5.648090854003385, 6.131145384948468, 6.347648600243701, 6.547642762125179, 6.980671005479962, 7.11412918480346, 7.264219595494069, 7.563814359276876, 7.796953334480349, 8.063658301791293, 8.280396645837754, 8.546592541766586, 8.79665982451479, 9.629783530785062]",2017_Feb_20_1713,60.1164555403,famFaceFilter,001,20,
4,./img/smoo15_UrsulavonderLeyen1_1.png,0,20,20,3,,,1.ja,1.519,None,None,None,None,None,polit,0.824,None,ursular von der Leyen,"['lshift', 'i', 'backspace', 'u', 'r', 's', 'u', 'l', 'a', 'r', 'space', 'v', 'o', 'n', 'space', 'd', 'e', 'r', 'space', 'lshift', 'l', 'e', 'y', 'e', 'n', 'return']","[0.5834657335944939, 0.9499284830089891, 1.3331832102012413, 1.5498535497536068, 1.766501434991369, 2.0994434217027447, 2.266160610575753, 2.7493591699094395, 2.8658082061519963, 3.082210377036972, 3.2323890011066396, 3.3990016170318995, 3.565508697676705, 3.765411438420415, 3.9320856433187146, 3.9619303139952535, 4.131977798457228, 4.181912023355835, 4.282086493374663, 4.465263015401433, 4.631895840208017, 4.998354740313516, 5.314812694126886, 5.597959993468976, 5.948043282936851, 6.481219051136577]",2017_Feb_20_1713,60.1164555403,famFaceFilter,001,20,
43,./img/smoo15_JoachimLoew1_1.png,0,21,21,42,,,1.ja,1.534,None,None,None,None,None,sport,0.724,None,Jogi Löw,"['lshift', 'j', 'o', 'g', 'i', 'space', 'lshift', 'l', u'\xf6', 'w', 'return']","[0.26706872720387764, 0.8168379128910601, 1.166679337315145, 1.583053215763357, 1.8330467200503335, 1.9996635060633707, 2.0829786353606323, 2.249563023004157, 2.882696737484366, 3.5655795891580055, 4.29874406604722]",2017_Feb_20_1713,60.1164555403,famFaceFilter,001,20,
32,./img/smoo15_TomCruise1_1.png,0,22,22,31,,,2.nein,11.812,None,act,2.599,None,None,None,None,None,,['return'],[0.8167990990077669],2017_Feb_20_1713,60.1164555403,famFaceFilter,001,20,
55,./img/smoo15_MariskaHargitay(Liv)4_4.png,0,23,23,54,,,2.nein,3.256,None,None,None,host,1.657,None,None,None,,['return'],[0.3836605087344651],2017_Feb_20_1713,60.1164555403,famFaceFilter,001,20,
21,./img/smoo15_NeilPatrickHarris(Barney)3_7.png,0,24,24,20,,,1.ja,1.325,None,act,1.341,None,None,None,None,None,Barney aus Himym,"['lshift', 'b', 'a', 'r', 'n', 'e', 'y', 'space', 'a', 'u', 's', 'space', 'lshift', 'h', 'i', 'm', 'y', 'm', 'return']","[0.7001598426395503, 0.9168160680492292, 1.033503761576867, 1.3166667789373605, 1.7998146556710708, 1.9329693809741002, 2.199557265073963, 2.349581595928612, 2.5161967780622945, 2.749471762253961, 2.89943642878643, 3.0325815308133315, 3.165706423951633, 4.332046701121726, 4.631449320131651, 4.898511631814472, 5.648177784278232, 5.781571166862705, 6.281328820656199]",2017_Feb_20_1713,60.1164555403,famFaceFilter,001,20,
29,./img/smoo15_GuentherJauch3_1.png,0,25,25,28,,,1.ja,1.951,None,None,None,host,3.273,None,None,None,Günther Jauch,"['lshift', 'lshift', 'lshift', 'g', u'\xfc', 'n', 't', 'h', 'e', 'r', 'space', 'lshift', 'j', 'a', 'u', 'c', 'h', 'return']","[0.40013106904370943, 4.481921871178201, 6.297749660701811, 6.964333567178983, 7.530462966260529, 7.930458026312408, 8.18036620420753, 8.296966967460321, 8.546789498184808, 8.613467905248399, 8.76349127377398, 8.913349763479346, 9.046729031921132, 9.163353211817594, 9.263335216288397, 9.663011425076547, 9.8130514739496, 10.196185589400557]",2017_Feb_20_1713,60.1164555403,famFaceFilter,001,20,
6,./img/smoo15_AlysonHannigan(Lily)1_1.png,0,26,26,5,,,2.nein,5.85,None,act,1.504,None,None,None,None,None,,['return'],[0.5669586048279598],2017_Feb_20_1713,60.1164555403,famFaceFilter,001,20,
33,./img/smoo15_Ice-T(OdafinFinTutuola)7_1.png,0,27,27,32,,,2.nein,1.341,None,None,None,None,None,sport,0.658,None,,['return'],[0.5337894125368621],2017_Feb_20_1713,60.1164555403,famFaceFilter,001,20,
65,./img/smoo15_UrsulavonderLeyen4_1.png,0,28,28,64,,,1.ja,1.141,None,None,None,None,None,polit,0.708,None,Ursular von der Leyen,"['lshift', 'u', 'r', 's', 'u', 'l', 'a', 'r', 'space', 'v', 'o', 'n', 'space', 'd', 'e', 'r', 'space', 'lshift', 'l', 'e', 'y', 'e', 'n', 'return']","[0.8166916390728147, 1.016726218713302, 1.2499210089299595, 1.4498064277722733, 1.5829422272945521, 1.8496452699509973, 1.999584595185297, 2.1995267913625867, 2.3494699659095204, 2.582676304056804, 3.03233838266533, 3.232410493092175, 3.382374518074357, 3.4656623814189516, 3.6488892652632785, 3.698843378271704, 3.798852648695174, 3.965487398156256, 4.082144297197374, 4.715275766244304, 4.998266847713239, 5.264889375612256, 5.4813518523660605, 6.214334449312446]",2017_Feb_20_1713,60.1164555403,famFaceFilter,001,20,
18,./img/smoo15_HughLaurie(DrHouse)4_1.png,0,29,29,17,,,1.ja,1.617,None,act,1.823,None,None,None,None,None,Hugh Laurie,"['lshift', 'h', 'u', 'g', 'h', 'space', 'lshift', 'l', 'a', 'u', 'r', 'i', 'e', 'return']","[1.0168304708895448, 1.2501086628399207, 1.4498683375240944, 1.7665184361139836, 1.8831163123832084, 2.032953951653326, 2.132939805436763, 2.316231486016477, 2.449509710048005, 2.5826798325906566, 3.0493831318672164, 3.199247074764571, 3.265807115512871, 3.9822954147311975]",2017_Feb_20_1713,60.1164555403,famFaceFilter,001,20,
50,./img/smoo15_OmarEpps(DrEricForeman)2_2.png,0,30,30,49,,,1.ja,1.958,None,act,1.658,None,None,None,None,None,Arzt aus Dr House Team,"['lshift', 'a', 'r', 't', 'backspace', 'z', 't', 'space', 'a', 'u', 'd', 'backspace', 's', 'space', 'lshift', 'd', 'r', 'space', 'lshift', 'h', 'o', 'u', 's', 'e', 'lshift', 'space', 't', 'e', 'a', 'm', 'return']","[0.533260773820075, 1.5162602916934702, 1.9325725811650045, 2.2991800005183904, 2.7659654184280953, 2.8991130866597814, 3.032396443108155, 3.1824352088769956, 3.4322647966691875, 3.5654570527549367, 3.7487455255759414, 4.131988704837568, 4.298531070835452, 4.481749614504224, 4.765041583785205, 5.081658321680152, 5.364958951908193, 5.564691360636061, 5.7144350125599885, 5.88122341368944, 6.24773299638764, 6.430879044703033, 7.3313977714387875, 8.280306187029055, 9.762929915912537, 11.212252292825724, 11.945450771960168, 12.111990571753267, 12.361891692577046, 12.545026192954538, 13.128294328584161]",2017_Feb_20_1713,60.1164555403,famFaceFilter,001,20,
40,./img/smoo15_NeilPatrickHarris(Barney)2_2.png,0,31,31,39,,,1.ja,1.684,None,act,0.908,None,None,None,None,None,Barney aus himym,"['lshift', 'b', 'a', 'r', 'n', 'e', 'y', 'space', 'a', 'u', 's', 'space', 'h', 'i', 'm', 'n', 'backspace', 'y', 'm', 'return']","[0.26682622060980066, 1.0164420112523658, 1.199974594546802, 1.4330619248285075, 1.9328449199201714, 2.3993891143400106, 2.6323138112311426, 3.9321549309206603, 4.031963716395694, 4.2485663722254685, 4.448467509089824, 4.615167376061436, 5.614839222296723, 5.881360705785482, 6.097912037468632, 6.431082737413817, 7.3641342370247, 7.497287679223518, 8.280348529449839, 8.546900165874831]",2017_Feb_20_1713,60.1164555403,famFaceFilter,001,20,
48,./img/smoo15_JoshRadnor(Ted)6_2.png,0,32,32,47,,,2.nein,6.883,None,act,0.668,None,None,None,None,None,,['return'],[1.3165112026181305],2017_Feb_20_1713,60.1164555403,famFaceFilter,001,20,
66,./img/smoo15_NicoleKidman3_1.png,0,33,33,65,,,1.ja,14.553,None,act,1.485,None,None,None,None,None,,['return'],[0.7170557518184069],2017_Feb_20_1713,60.1164555403,famFaceFilter,001,20,
67,./img/smoo15_GeorgeClooney4_2.png,0,34,34,66,,,1.ja,2.091,None,act,3.323,None,None,None,None,None,George Clooney,"['lshift', 'g', 'e', 'o', 'r', 'g', 'e', 'space', 'lshift', 'c', 'l', 'o', 'o', 'n', 'e', 'y', 'return']","[0.983301688789652, 1.3662917758483673, 1.5163773749045504, 1.8994033888666308, 2.399343243385374, 2.615940446026798, 2.7493379986990476, 2.8658816638380813, 3.0324461633754254, 3.2491489012936654, 3.448718997406104, 3.7489434443159553, 3.8655525477443007, 4.032201732123212, 4.16530449172933, 4.531854171418672, 4.731746968103835]",2017_Feb_20_1713,60.1164555403,famFaceFilter,001,20,
9,./img/smoo15_EmilyDeschanel6_12.png,0,35,35,8,,,2.nein,20.392,None,None,None,host,1.001,None,None,None,,['return'],[0.6499481465725694],2017_Feb_20_1713,60.1164555403,famFaceFilter,001,20,
64,./img/smoo15_JoachimLoew8_1.png,0,36,36,63,,,1.ja,0.841,None,None,None,None,None,sport,1.041,None,Jogi Löw,"['lshift', 'j', 'o', 'g', 'i', 'space', 'lshift', 'l', u'\xf6', 'w', 'return']","[1.433274920036638, 1.666449822143477, 2.016477938155731, 2.4494227797731583, 2.549516414263053, 2.682796562949079, 2.7994897096687055, 3.099003958694084, 3.6155747614793654, 3.915622460855957, 4.465247618158173]",2017_Feb_20_1713,60.1164555403,famFaceFilter,001,20,
60,./img/smoo15_LeonardoDiCaprio2_1.png,0,37,37,59,,,1.ja,1.867,None,act,0.709,None,None,None,None,None,Leonardo DiCaprio,"['lshift', 'l', 'e', 'o', 'n', 'a', 'r', 'd', 'o', 'space', 'lshift', 'd', 'i', 'lshift', 'c', 'a', 'p', 'r', 'i', 'o', 'return']","[0.5498182644041663, 0.8665591425778985, 1.0998280320309277, 1.2498969507360016, 1.4495972818731389, 1.5994551300245803, 1.9495682516535453, 2.449418609685381, 2.5326359023310943, 2.716040496034111, 2.782604706873826, 3.4489890907316294, 3.865428407465515, 3.9820275668389513, 4.2152470567998535, 4.448556043240387, 5.048185033814661, 5.431312733744562, 5.5647244005594985, 5.731372301834199, 6.497603964275186]",2017_Feb_20_1713,60.1164555403,famFaceFilter,001,20,
14,./img/smoo15_BritneySpears7_1.png,0,38,38,13,,,1.ja,1.251,None,None,None,music,2.041,None,None,None,Brittney Spears,"['lshift', 'b', 'r', 'i', 't', 't', 'n', 'e', 'y', 'space', 'lshift', 's', 'o', 'backspace', 'p', 'e', 'a', 'r', 's', 'return']","[0.21682816130123683, 0.6665810194936057, 0.9667281594083761, 1.1000111950779683, 1.433168743209535, 1.549709842140146, 1.732702880341094, 1.8329001254533068, 2.266056358403148, 2.399488875649695, 2.4993380788910144, 2.665950374041131, 2.8992936835056753, 3.598912697943888, 3.832169077137223, 3.965362616323546, 4.165412913989712, 4.398590382301336, 4.648573621761898, 5.3482545459555695]",2017_Feb_20_1713,60.1164555403,famFaceFilter,001,20,
20,./img/smoo15_NicoleKidman5_1.png,0,39,39,19,,,2.nein,3.983,None,None,None,music,1.274,None,None,None,,['return'],[0.7001723529028823],2017_Feb_20_1713,60.1164555403,famFaceFilter,001,20,
51,./img/smoo15_LeonardoDiCaprio1_1.png,0,40,40,50,,,1.ja,1.291,None,act,1.224,None,None,None,None,None,Leonardo DiCaprio,"['lshift', 'l', 'e', 'o', 'n', 'a', 'r', 'd', 'o', 'space', 'lshift', 'd', 'i', 'lshift', 'c', 'a', 'p', 'r', 'i', 'o', 'return']","[0.36713734117074637, 1.0001610295112187, 1.1667293783575587, 1.3334533035267668, 1.5499411215787404, 1.7665203607684816, 2.0996791920042597, 2.366304927661986, 2.549632535145065, 2.68275582440765, 2.7825103987524926, 2.999333427640522, 3.449172253782308, 3.6656472407994443, 3.9321985564456554, 4.4319478700635955, 4.681978905133292, 5.16503279452445, 5.348316776482534, 5.531656894228945, 5.798199228149315]",2017_Feb_20_1713,60.1164555403,famFaceFilter,001,20,
35,./img/smoo15_KatjaBurkard1_1.png,0,41,41,34,,,1.ja,3.5,None,None,None,host,1.024,None,None,None,,['return'],[0.8667281914895284],2017_Feb_20_1713,60.1164555403,famFaceFilter,001,20,
30,./img/smoo15_KatjaBurkard4_1.png,0,42,42,29,,,1.ja,3.073,None,None,None,host,1.024,None,None,None,,['return'],[0.6167346871989139],2017_Feb_20_1713,60.1164555403,famFaceFilter,001,20,
15,./img/smoo15_LisaEdelstein(DrLisaCuddy)1_1.png,0,43,43,14,,,1.ja,1.458,None,act,0.425,None,None,None,None,None,die klinikleitende Aerztin aus Dr House,"['d', 'i', 'e', 'space', 'k', 'l', 'i', 'n', 'i', 'k', 'l', 'e', 'i', 'f', 'backspace', 't', 'e', 'n', 'd', 'e', 'space', 'lshift', 'a', 'a', 'backspace', 'e', 'r', 't', 'z', 'backspace', 'backspace', 'z', 't', 'backspace', 'backspace', 'z', 't', 'i', 'n', 'space', 'a', 'u', 's', 'space', 'lshift', 'd', 'r', 'space', 'lshift', 'h', 'o', 'u', 's', 'e', 'return']","[2.3992915984636056, 2.515919948447845, 2.6326307378403726, 2.7658467313412984, 3.3323700432520127, 3.5655667581195303, 3.731998456427391, 3.932021488137252, 4.1152342578425305, 4.531876304958132, 4.7651105506083695, 4.91494305746528, 5.031626260129997, 5.297958485822164, 5.647676090742607, 5.781306847507949, 5.931253871367517, 6.097634566300258, 6.564271464962076, 6.697553217527457, 6.847428708355437, 7.097342980992835, 7.497288641548948, 7.747135551242536, 8.563381953339558, 8.896662358649337, 9.779450838042976, 10.262622452199139, 10.629395391926664, 11.179193126670725, 11.32907342913677, 11.378888646169798, 11.56230575013251, 12.478250590789685, 12.62857805488602, 13.711273445111146, 13.844701792273554, 14.227760846155434, 14.394481563565932, 14.577630819640035, 14.927165903060086, 15.077559126220876, 15.643897350422776, 15.827178445400932, 16.16021024937072, 16.51021783571923, 16.793555996729992, 16.926780971960397, 17.076665123735438, 17.259959370523575, 17.559780922878417, 17.726412464584428, 17.89298787050211, 18.07626447461371, 18.276250937869918]",2017_Feb_20_1713,60.1164555403,famFaceFilter,001,20,
59,./img/smoo15_JoshRadnor(Ted)1_2.png,0,44,44,58,,,1.ja,2.002,None,act,0.625,None,None,None,None,None,amerikanische Serie,"['a', 'm', 'e', 'r', 'i', 'k', 'a', 'n', 'i', 's', 'c', 'h', 'e', 'space', 'lshift', 's', 'e', 'r', 'i', 'e', 'return']","[1.099816804871807, 1.2163213353524043, 1.3664746181239025, 1.4331283254432492, 1.6329165491843014, 1.9161450048304687, 2.082747355925676, 2.249331102015276, 2.5493508938925515, 2.7159789070610714, 2.882682944120461, 2.9493363306646643, 3.099217595456139, 3.1825006471663073, 3.3157275470512104, 3.499035266424471, 3.6653902992875373, 3.8988019340213214, 4.1487322454559035, 4.265318894569646, 4.548541255473538]",2017_Feb_20_1713,60.1164555403,famFaceFilter,001,20,
52,./img/smoo15_BastianSchweinsteiger3_1.png,0,45,45,51,,,1.ja,1.362,None,None,None,None,None,sport,0.558,None,Bastian Schweinsteiger,"['lshift', 'b', 'a', 's', 't', 'i', 'a', 'n', 'space', 'lshift', 's', 'c', 'h', 'w', 'e', 'i', 'n', 's', 't', 'e', 'i', 'g', 'e', 'r', 'return']","[0.35014231223613024, 0.7667153925285675, 0.9166280933604867, 1.0665828158416844, 1.283044651045202, 1.4663141980854562, 1.599539814866148, 1.7329797099591815, 1.9161459671558987, 1.9493995235170587, 2.1494918428288656, 2.3159739029542834, 2.382804357803252, 2.5493075891390617, 2.6326743633617298, 2.8825164614172536, 3.0491425499312754, 3.232249463580956, 3.4655975846835645, 3.6656215787224937, 3.83216971868751, 4.081989683203574, 4.248525954459183, 4.315023764684156, 4.581719108715333]",2017_Feb_20_1713,60.1164555403,famFaceFilter,001,20,
17,./img/smoo15_GeorgeClooney11_1.png,0,46,46,16,,,1.ja,2.417,None,act,1.275,None,None,None,None,None,George Clooney,"['lshift', 'g', 'e', 'o', 'r', 'g', 'e', 'space', 'lshift', 'c', 'l', 'o', 'o', 'n', 'e', 'y', 'return']","[0.29999348825003835, 0.9833395403475151, 1.133309980847116, 1.466354615851742, 2.1993587047836627, 2.3991697036144615, 2.5325800873215485, 2.682581001532526, 2.815724820455216, 3.0324182558724715, 3.2656460860052903, 3.498854348807072, 3.6654002433424466, 3.8488096486835275, 3.9486091316575767, 4.2986022830918955, 4.565210055297939]",2017_Feb_20_1713,60.1164555403,famFaceFilter,001,20,
53,./img/smoo15_GuentherJauch4_1.png,0,47,47,52,,,1.ja,1.25,None,None,None,host,0.458,None,None,None,Günther Jauch,"['lshift', 'g', 'u', 'backspace', u'\xfc', 'n', 't', 'h', 'e', 'r', 'space', 'lshift', 'j', 'a', 'u', 'c', 'h', 'return']","[0.21705013823884656, 0.8667910635667795, 1.233318930495443, 1.749783877225127, 2.0663701414086972, 3.282513125348487, 3.532458834022691, 3.6323507004635758, 3.865638836468861, 3.932168082730641, 4.098942690496187, 4.232151947704551, 4.481945287818235, 4.665189814339101, 4.798638691157976, 4.915101520768076, 5.048524735513638, 5.331557838624576]",2017_Feb_20_1713,60.1164555403,famFaceFilter,001,20,
12,./img/smoo15_MariskaHargitay(Liv)8_8.png,0,48,48,11,,,2.nein,3.549,None,dummy,1.758,None,None,None,None,None,,['return'],[0.20034316607780056],2017_Feb_20_1713,60.1164555403,famFaceFilter,001,20,
27,./img/smoo15_JasonSegel(Marshall)9_1.png,0,49,49,26,,,1.ja,1.658,None,act,0.775,None,None,None,None,None,Sportlehrer aus dem Film Bad teacher,"['lshift', 's', 'p', 'o', 'r', 't', 'l', 'e', 'h', 'r', 'e', 'r', 'space', 'a', 'u', 's', 'space', 'lshift', 'b', 'a', 'd', 'backspace', 'backspace', 'backspace', 'd', 'e', 'm', 'space', 'lshift', 'f', 'i', 'l', 'm', 'space', 'lshift', 'b', 'a', 'd', 'space', 't', 'e', 'a', 'c', 'h', 'e', 'r', 'return']","[2.1162283424127963, 2.3329070221370785, 2.532828688657901, 2.715959981280321, 3.0321959581597184, 3.1823742614542425, 3.615617745454074, 3.732338478901511, 4.198761740801274, 4.382024872324109, 4.515257546172506, 4.665192701322667, 4.915014911268372, 5.114976354005194, 5.298348228563555, 5.481623228795797, 5.681430057538819, 5.814552063697192, 5.964702459485125, 6.1812563573766965, 6.43105547146115, 7.314128799873288, 7.463788729281077, 7.5972677590361855, 8.163771503615862, 8.280374512301933, 8.64689051051755, 8.796853252395522, 8.930124419355707, 9.363294445669453, 9.613162526573433, 9.846402866965946, 10.046242735628766, 10.213032099083648, 10.312833185937052, 10.629544552728476, 10.829379930528376, 11.062565097465267, 11.162500268652366, 11.645703318845335, 11.81231433089124, 12.045454589198926, 12.262181385311123, 12.395473081927776, 12.51195964895669, 12.612034357669472, 13.194886126155325]",2017_Feb_20_1713,60.1164555403,famFaceFilter,001,20,
5,./img/smoo15_BarackObama1_3.png,0,50,50,4,,,1.ja,1.368,None,None,None,None,None,polit,1.008,None,Barak Obama,"['lshift', 'b', 'a', 'r', 'a', 'k', 'space', 'lshift', 'o', 'b', 'a', 'm', 'a', 'return']","[0.26699430718872463, 0.6335824799862166, 0.7834775381452346, 1.0333680733638175, 1.2665971866008476, 1.4332389931332727, 1.5832588331250008, 1.64965784436572, 1.783164781623782, 2.0997378939937335, 2.216126945142605, 2.449367606313899, 2.5160796948512143, 3.0660246657425887]",2017_Feb_20_1713,60.1164555403,famFaceFilter,001,20,
2,./img/smoo15_WillSmith5_1.png,0,51,51,1,,,1.ja,1.308,None,act,0.908,None,None,None,None,None,Will Smith,"['lshift', 'w', 'i', 'l', 'l', 'space', 'lshift', 's', 'm', 'i', 't', 'h', 'return']","[0.23371091866647475, 0.7335112356558966, 0.9003333182554343, 1.1002007736460655, 1.26679959620742, 1.4166587274630729, 1.516792458940472, 2.249680106215237, 2.6161544035639963, 2.7995147301880934, 2.999284028148395, 3.132668108231883, 3.3323527213506168]",2017_Feb_20_1713,60.1164555403,famFaceFilter,001,20,
19,./img/smoo15_NicoleKidman7_1.png,0,52,52,18,,,2.nein,3.657,None,None,None,host,2.823,None,None,None,,['return'],[0.4502150962907763],2017_Feb_20_1713,60.1164555403,famFaceFilter,001,20,
44,./img/smoo15_GuentherJauch2_1.png,0,53,53,43,,,1.ja,0.924,None,None,None,host,1.091,None,None,None,Günther Jauch,"['lshift', 'g', u'\xfc', 'n', 't', 'h', 'e', 'r', 'space', 'lshift', 'j', 'a', 'u', 'c', 'h', 'return']","[0.7835362401419843, 1.1335556951999024, 1.7164661656788667, 1.933319026727986, 2.4829239751452405, 2.682860076583893, 2.8828074051780277, 2.94922213443715, 3.115896660114231, 3.265893083462288, 3.482386996260175, 3.615900028260512, 3.7323602916621894, 3.915571457488113, 4.032338382668968, 4.282185933912842]",2017_Feb_20_1713,60.1164555403,famFaceFilter,001,20,
62,./img/smoo15_RobertSeanLeonard(Wilson)1_1.png,0,54,54,61,,,1.ja,1.516,None,act,1.024,None,None,None,None,None,Wilson aus Dr House,"['lshift', 'w', 'i', 'l', 's', 'o', 'n', 'space', 'a', 'u', 'd', 'backspace', 's', 'space', 'lshift', 'd', 'r', 'space', 'lshift', 'h', 'o', 'u', 's', 'e', 'return']","[0.23363297011746909, 1.1663454095833004, 1.3497917041568144, 1.5498792118269193, 1.7496093751251465, 2.2495614191248023, 2.432719336149603, 2.599364029665594, 2.8325828780725715, 3.0492121583047265, 3.4656934966842528, 3.9321215702257177, 4.082055442268029, 4.348595530758757, 4.665104167168465, 5.314882944054261, 5.548287200945197, 5.714476713434124, 5.931295893009519, 6.064462487021956, 6.397770799831051, 6.5475208672760346, 6.747697550650628, 6.930948492688913, 7.164213853608089]",2017_Feb_20_1713,60.1164555403,famFaceFilter,001,20,
11,./img/smoo15_LeonardoDiCaprio3_1.png,0,55,55,10,,,1.ja,1.319,None,act,2.507,None,None,None,None,None,Leonardo DiCaprio,"['lshift', 'l', 'e', 'o', 'n', 'a', 'r', 'd', 'o', 'space', 'lshift', 'd', 'i', 'lshift', 'c', 'a', 'p', 'r', 'i', 'o', 'return']","[0.5002288736177434, 0.8832988338836003, 1.0666739162043086, 2.2161647967041063, 2.732590608771716, 2.8324892115051625, 3.2158324728552543, 3.449073775576835, 3.5488030086235085, 3.699028145201737, 3.7987041294472874, 4.148768813909555, 4.448566628849221, 4.648495352441387, 4.881759430252714, 5.098353104360285, 5.76456972241067, 6.064564814540063, 6.198132699224516, 6.347654694989615, 6.681005670998275]",2017_Feb_20_1713,60.1164555403,famFaceFilter,001,20,
42,./img/smoo15_OmarEpps(DrEricForeman)1_5.png,0,56,56,41,,,1.ja,1.547,None,act,0.625,None,None,None,None,None,Arzt aus deM Team von Dr House,"['lshift', 'a', 'r', 'z', 't', 'space', 'a', 'u', 'c', 'backspace', 's', 'space', 'd', 'e', 'n', 'space', 'lshift', 'backspace', 'backspace', 'm', 'space', 'lshift', 't', 'e', 'a', 'm', 'space', 'v', 'o', 'n', 'space', 'lshift', 'd', 'r', 'space', 'lshift', 'h', 'o', 'u', 's', 'e', 'return']","[1.8661777400120627, 2.1826680921949446, 2.482801759517315, 3.0157738350135332, 3.2490882746460557, 3.548957301838527, 3.682320210711623, 3.8320869585004402, 3.948768878060946, 4.565180223136849, 4.698371837668674, 4.898474421806895, 5.514829310319328, 6.164543611248519, 6.264477820106549, 6.614341698848875, 6.79768759055878, 7.230900280068454, 7.380724125971028, 7.947248720985954, 8.113812578969373, 8.196982076002314, 8.38034015719677, 8.546861031209119, 8.746904592579085, 8.946758896156098, 9.09657600576611, 9.513043230006588, 9.629831967948121, 9.829437990967563, 9.979747812387359, 10.029443059225741, 10.529417878315144, 10.762596629734617, 11.062544888580305, 11.212375150000298, 11.395713343088573, 11.66238783668814, 11.845620173724456, 12.278699420454359, 12.461851242733246, 12.62860211307634]",2017_Feb_20_1713,60.1164555403,famFaceFilter,001,20,
45,./img/smoo15_RobertSeanLeonard(Wilson)2_6.png,0,57,57,44,,,1.ja,1.852,None,dummy,1.975,None,None,None,None,None,Wilson aus Dr House,"['lshift', 'lshift', 'w', 'i', 'l', 's', 'o', 'n', 'space', 'a', 'u', 's', 'space', 'lshift', 'd', 'r', 'space', 'lshift', 'h', 'o', 'u', 's', 'e', 'return']","[0.6501024397912261, 4.498414565023268, 4.981700696182088, 5.314854074225877, 5.498153132652078, 5.66484754643534, 6.331200815027842, 6.514424491113459, 6.680919061502209, 6.797770671524631, 6.964204936037277, 7.147188992512383, 7.3805351889604935, 8.030466013631667, 8.213665310748183, 8.463586640453286, 8.580070962048922, 8.79680898532024, 9.063261181207054, 9.346534545482427, 9.546443701743556, 9.663130753717269, 9.82973470869183, 9.979697129794658]",2017_Feb_20_1713,60.1164555403,famFaceFilter,001,20,
71,./img/smoo15_AngelaMerkel1_1.png,0,58,58,70,,,1.ja,1.351,None,None,None,None,None,polit,1.458,None,Angela Merkel,"['lshift', 'a', 'n', 'g', 'e', 'r', 'backspace', 'l', 'a', 'space', 'lshift', 'm', 'e', 'r', 'k', 'e', 'n', 'backspace', 'l', 'return']","[0.41689032767681056, 0.7501588642735442, 0.9500596803591179, 1.26650480313765, 1.3996739633548714, 1.516443775519292, 2.0994222504923528, 2.382741485726001, 2.4995206003877684, 2.849284717816772, 2.9825023152006906, 3.249216264237475, 3.4490285461688472, 3.5323212211551436, 3.7822040577520966, 3.9155390591186006, 4.132078522095981, 4.498649372995715, 4.765214482005831, 5.564822557989828]",2017_Feb_20_1713,60.1164555403,famFaceFilter,001,20,
72,./img/smoo15_HughLaurie(DrHouse)2_1.png,0,59,59,71,,,1.ja,1.284,None,act,1.874,None,None,None,None,None,Hugh Laurie,"['lshift', 'h', 'u', 'c', 'h', 'space', 'lshift', 'backspace', 'backspace', 'g', 'space', 'backspace', 'backspace', 'backspace', 'g', 'h', 'space', 'lshift', 'l', 'a', 'u', 'r', 'i', 'e', 'return']","[0.31697504459589254, 0.7669216514441359, 0.9834226213097281, 1.1332936212747882, 1.2834042408503592, 1.4497775579366134, 1.6330541620518488, 2.482855970651144, 2.6327465379436035, 3.6323782871913863, 3.8988195766978606, 4.348660006715363, 4.498672468860605, 4.9817446424785885, 6.148014669724944, 6.231297721431474, 6.4145220390673785, 6.56440971937991, 7.080811152478418, 7.247423126853391, 7.364133274695632, 7.93055522141367, 8.097197348721238, 8.197086969728844, 8.513687027276319]",2017_Feb_20_1713,60.1164555403,famFaceFilter,001,20,
23,./img/smoo15_JoachimLoew4_1.png,0,60,60,22,,,1.ja,1.218,None,None,None,None,None,sport,0.524,None,Jogi Löw,"['lshift', 'j', 'o', 'g', 'i', 'space', 'lshift', 'l', u'\xf6', 'w', 'return']","[0.2669837215835287, 0.8167249997677573, 1.1497750879643718, 1.5330590057674272, 1.6997822893827106, 1.883044458580116, 1.9995031181024387, 2.166301463283162, 2.7158833158355264, 3.4157781975663966, 4.031984566827305]",2017_Feb_20_1713,60.1164555403,famFaceFilter,001,20,
61,./img/smoo15_OmarEpps(DrEricForeman)3_1.png,0,61,61,60,,,1.ja,10.614,None,act,1.363,None,None,None,None,None,Arzt aus dem Team von Dr House,"['lshift', 'a', 'r', 'z', 't', 'space', 'a', 'u', 's', 'space', 'lshift', 'd', 'backspace', 'd', 'e', 'm', 'space', 'lshift', 't', 'e', 'a', 'm', 'space', 'v', 'o', 'n', 'space', 'lshift', 'd', 'r', 'space', 'lshift', 'h', 'o', 'u', 's', 'e', 'return']","[0.81655851706455, 1.0332942949025892, 1.6497319436020916, 2.4827045644160535, 2.6158868764468934, 2.8490906483857543, 3.0657240987056866, 3.182315880236274, 3.349017351087241, 3.499003188830102, 3.732234226725268, 4.01530101130993, 4.6817370400895015, 5.214885542340198, 5.364823584470287, 5.4980511259054765, 5.648048832357745, 5.6979743963056535, 6.0312240071252745, 6.231184487533028, 6.43104199886875, 6.5978146819761605, 6.747347263346455, 6.980831714216038, 7.130815306525619, 7.314071380980749, 7.46400749845634, 7.547034891758813, 7.7638428441787255, 7.980451915529557, 8.097140250607481, 8.296960872714408, 8.463565148464113, 8.796844591444824, 8.996735784250632, 9.163314397930662, 9.363374318869319, 9.546545708482881]",2017_Feb_20_1713,60.1164555403,famFaceFilter,001,20,
26,./img/smoo15_TomCruise4_1.png,0,62,62,25,,,1.ja,2.418,None,act,0.441,None,None,None,None,None,Tom Cruiz,"['lshift', 'z', 'backspace', 'lshift', 't', 'o', 'm', 'space', 'lshift', 'c', 'r', 'u', 'i', 'z', 'return']","[0.5667205890968035, 0.9667695395037299, 1.4664412253514456, 1.6997142848886142, 2.0661677318021248, 2.54943333330084, 2.732499187633948, 2.915862080470106, 3.03241697276826, 3.282339264802431, 3.615640199765039, 3.9653257270947506, 4.165458464169205, 4.7316937193027115, 5.1150982488507]",2017_Feb_20_1713,60.1164555403,famFaceFilter,001,20,
25,./img/smoo15_JasonSegel(Marshall)6_1.png,0,63,63,24,,,1.ja,1.716,None,act,0.924,None,None,None,None,None,Sportlehrer aus Dem Film Bad Teacher,"['lshift', 's', 'p', 'o', 'r', 't', 'l', 'e', 'h', 'r', 'e', 'r', 'space', 'a', 'u', 's', 'space', 'lshift', 'b', 'a', 'd', 'space', 'lshift', 'backspace', 'backspace', 'backspace', 'backspace', 'd', 'e', 'm', 'space', 'lshift', 'f', 'i', 'l', 'm', 'space', 'lshift', 'b', 'a', 'd', 'space', 't', 'e', 'backspace', 'backspace', 'backspace', 'space', 'lshift', 't', 'e', 'a', 'c', 'h', 'e', 'r', 'return']","[0.28327336427537375, 0.6834233590925578, 0.9665488456703315, 1.166662977742817, 1.5163401648969739, 1.6997239081647422, 2.3828027539238974, 2.4992376760274055, 2.9489462671444926, 3.282379041014792, 3.3989592746074777, 3.5656116667487368, 4.4985322897846345, 4.864988944456854, 7.047509800504486, 7.164005028484098, 7.3474189246881, 8.28026031607078, 8.529995595745277, 8.696792657821788, 8.963396580718836, 9.113248654906783, 9.362840868518106, 9.846201098913298, 9.996312360039155, 10.146169245865167, 10.829271508264355, 10.895882873162918, 10.995910748591996, 11.179225204261456, 11.345738379652175, 11.374391047014797, 11.845511109913787, 12.112071407285839, 12.295297328801098, 12.511990764218353, 12.645178529441182, 12.795050812506815, 13.51126516909062, 13.61145760256477, 13.761385700643586, 13.911420937878574, 14.294569809018867, 14.494289065933117, 14.82771446195693, 14.993912635392917, 15.110849571810832, 15.693995171037386, 15.827177483068226, 15.977137017187488, 16.210288823429437, 16.410205357533414, 16.659982979628694, 16.81009295765398, 16.910119549975207, 17.0097628150761, 17.276633302761184]",2017_Feb_20_1713,60.1164555403,famFaceFilter,001,20,
41,./img/smoo15_AngelaMerkel3_1.png,0,64,64,40,,,1.ja,1.518,None,None,None,None,None,polit,6.455,None,Angela Merkel,"['lshift', 'a', 'n', 'g', 'e', 'l', 'a', 'space', 'lshift', 'm', 'e', 'r', 'k', 'e', 'l', 'return']","[1.4662413819532958, 1.6664007434301311, 1.8162685356364818, 2.716034401291836, 2.8491217636510555, 2.965878744777001, 3.14908157042737, 3.3320162274139875, 3.43225966425598, 3.565510301559698, 3.7654970855910506, 3.848786873593781, 4.0986799750171485, 4.16537634553606, 4.881780922238249, 5.215020268227818]",2017_Feb_20_1713,60.1164555403,famFaceFilter,001,20,
13,./img/smoo15_GeorgeClooney3_1.png,0,65,65,12,,,1.ja,4.298,None,act,0.836,None,None,None,None,None,George Clooney,"['lshift', 'g', 'e', 'o', 'r', 'g', 'e', 'space', 'lshift', 'c', 'l', 'o', 'o', 'n', 'e', 'y', 'return']","[0.51694129896714, 0.9167833489045734, 1.033437040186982, 1.3666401384980418, 1.8830582519440213, 2.1163155934627866, 2.2495992706826655, 2.3996322624843742, 2.932391342768824, 3.265911688464257, 3.4657364806553232, 3.6988074513683387, 3.8321742095504305, 4.015510477984208, 4.115484783833381, 4.565466996806208, 4.965151545769913]",2017_Feb_20_1713,60.1164555403,famFaceFilter,001,20,
7,./img/smoo15_LisaEdelstein(DrLisaCuddy)2_2.png,0,66,66,6,,,1.ja,1.983,None,act,0.625,None,None,None,None,None,Klinikleitende Aerztin aus Dr House,"['lshift', 'k', 'l', 'i', 'n', 'i', 'k', 'l', 'e', 'i', 't', 'e', 'n', 'd', 'e', 'space', 'lshift', 'a', 'e', 'r', 'z', 't', 'i', 'n', 'space', 'a', 'u', 's', 'space', 'lshift', 'd', 'r', 'space', 'lshift', 'k', 'backspace', 'lshift', 'h', 'a', 'u', 's', 'backspace', 'backspace', 'backspace', 'o', 'u', 's', 'e', 'return']","[0.4668444406815979, 1.0333764135393722, 1.2166372996325663, 1.3662715669706813, 1.616364832567342, 1.8163172935783223, 2.049626280018856, 2.2661208343670296, 2.432739545030927, 2.5159622908686288, 3.015743682080938, 3.182409546807321, 3.2991665279332665, 3.4989823384021292, 3.6321242326666834, 3.698294851452374, 3.9154460341051163, 4.798371484819654, 5.048305004009308, 5.364855020514369, 5.981401412249397, 6.197834698396036, 6.464456584744767, 6.681065656095598, 6.84768853685091, 7.1142003970599035, 7.280846052901325, 7.947241022364324, 8.080505132256803, 8.180421056888008, 8.413599808307481, 8.663546479310753, 8.963329217778664, 9.063233594479243, 9.36325338635288, 9.79638620265905, 9.929490886919666, 10.096400541344337, 10.262788293348422, 10.379462193512154, 10.76256968456073, 11.995603766037675, 12.178731850901386, 12.611242041151854, 13.027701887542207, 13.178094469152711, 13.627738905084698, 13.778132449020632, 13.994784825117677]",2017_Feb_20_1713,60.1164555403,famFaceFilter,001,20,
58,./img/smoo15_EmilyDeschanel3_1.png,0,67,67,57,,,1.ja,6.615,None,act,1.302,None,None,None,None,None,,['return'],[2.099491858865804],2017_Feb_20_1713,60.1164555403,famFaceFilter,001,20,
69,./img/smoo15_BritneySpears5_1.png,0,68,68,68,,,1.ja,1.008,None,None,None,music,0.658,None,None,None,Brittney Spears,"['lshift', 'b', 'r', 'i', 't', 't', 'n', 'e', 'y', 'space', 'lshift', 's', 'p', 'e', 'a', 'r', 's', 'return']","[0.7167378628837469, 0.9666466823291557, 1.2499133103083295, 1.3997981036372948, 1.6662660175461497, 1.7997213098824432, 1.9828994357885676, 2.0494931580105913, 2.4660867679631338, 2.615978297584661, 2.7492411243729293, 2.915702654838242, 3.3989018557222153, 3.5656831997803238, 3.76558754439975, 4.0157857037229405, 4.21535162975124, 6.281208850465191]",2017_Feb_20_1713,60.1164555403,famFaceFilter,001,20,
56,./img/smoo15_MariskaHargitay(Liv)6_5.png,0,69,69,55,,,2.nein,6.233,None,act,5.751,None,None,None,None,None,,['return'],[0.666658647267468],2017_Feb_20_1713,60.1164555403,famFaceFilter,001,20,
70,./img/smoo15_JasonSegel(Marshall)7_1.png,0,70,70,69,,,1.ja,1.291,None,act,0.775,None,None,None,None,None,Sprotlehrer aus Dem Film Bad Teacher,"['lshift', 's', 'p', 'r', 'o', 't', 'l', 'e', 'h', 'r', 'e', 'r', 'space', 'a', 'u', 's', 'space', 'lshift', 'd', 'e', 'm', 'space', 'lshift', 'f', 'i', 'l', 'm', 'space', 'lshift', 'b', 'a', 'd', 'space', 'lshift', 't', 'e', 'a', 'c', 'h', 'e', 'r', 'return']","[0.783366870455211, 0.9998989555861044, 1.6832456492338679, 1.8661309067283582, 2.332777107891161, 2.4994259714912914, 2.9159169331505836, 3.0323903483658796, 3.2489288490141917, 3.4156332068487245, 3.548858502854273, 3.731948094606196, 4.281835967383813, 4.598464573988167, 4.748290665324021, 4.931704240752879, 5.098263287098234, 5.947745602883515, 6.51439145119366, 6.647658448066068, 6.76421526501872, 6.930739988343703, 7.01413980248617, 7.413869901625731, 7.680506543667434, 7.847158615029912, 8.113749706888484, 8.28024812658623, 8.363495572168176, 8.663155453461513, 8.796728470562812, 9.030035211570066, 9.179877662478248, 9.379463155837584, 9.713110849570512, 9.879311589214922, 10.096195886304486, 10.329381053241377, 10.462724394783436, 10.56277279986898, 10.645807891793083, 10.912530181001785]",2017_Feb_20_1713,60.1164555403,famFaceFilter,001,20,
22,./img/smoo15_WillSmith1_1.png,0,71,71,21,,,1.ja,1.552,None,dummy,1.508,None,None,None,None,None,Will Smith,"['lshift', 'w', 'i', 'l', 'l', 'space', 'lshift', 's', 'm', 'i', 't', 'h', 'return']","[0.5001368109296891, 0.8334422367588559, 1.03306718555541, 1.2332634362610406, 1.3665349239963689, 1.5160732793337957, 1.5658432669624744, 1.7330165991916147, 1.865809810034989, 2.082687691603496, 2.415963285271573, 2.5488549743204203, 2.8322787825018167]",2017_Feb_20_1713,60.1164555403,famFaceFilter,001,20,
70,./img/edges5_BastianSchweinsteiger1_1.png,0,0,0,69,,,1.ja,4.133,None,None,None,None,None,sport,1.067,None,Bastian Schweinsteiger,"['lshift', 'b', 'a', 's', 't', 'i', 'a', 'n', 'space', 'lshift', 's', 'c', 'h', 'w', 'e', 'i', 'n', 's', 't', 'e', 'i', 'g', 'e', 'r', 'return']","[0.28366567322518677, 0.6834262460797618, 0.84995802647245, 1.0331477003092004, 1.3165073533091345, 1.449721101376781, 1.6329977054920164, 1.733012108328694, 1.8829985876254796, 1.9161892719057505, 2.116237644913781, 2.2828672619616555, 2.366169881002861, 2.532668300700607, 2.5993662750952353, 2.865949026781891, 3.032379121210397, 3.2325368788078777, 3.4657964657562843, 3.632225277080579, 3.7821934721469006, 4.098698580022756, 4.2485788824888004, 4.331998905512592, 4.631706582418701]",2017_Feb_20_1713,60.1164555403,famFaceFilter,001,20,
51,./img/edges5_Ice-T(OdafinFinTutuola)6_1.png,0,1,1,50,,,2.nein,1.53,None,None,None,None,None,sport,0.639,None,,['return'],[0.5335539630104904],2017_Feb_20_1713,60.1164555403,famFaceFilter,001,20,
59,./img/edges5_BastianSchweinsteiger3_1.png,0,2,2,58,,,1.ja,2.723,None,None,None,None,None,sport,1.44,None,Bastian Schweinsteiger,"['lshift', 'b', 'a', 's', 't', 'i', 'a', 'n', 'lshift', 'space', 's', 'c', 'h', 'w', 'e', 'i', 'n', 's', 't', 'e', 'i', 'g', 'e', 'r', 'return']","[0.46682776033412665, 0.9331159755711269, 1.0832974866243603, 1.2832942147106223, 1.549853870532388, 1.6997120394589729, 1.8496317973622354, 1.966248920190992, 2.1496291349249077, 2.349582558261318, 2.5328004603798036, 2.665962884304463, 2.782633576705848, 2.865685348977422, 3.0991290613055753, 3.299031802045647, 3.448970164954517, 3.698923893029132, 4.048843907552509, 4.348588794466195, 4.698503035022441, 4.881803697327996, 4.93167472937057, 5.231711843145604]",2017_Feb_20_1713,60.1164555403,famFaceFilter,001,20,
72,./img/edges5_EmilyDeschanel6_12.png,0,3,3,71,,,1.ja,6.21,None,act,3.665,None,None,None,None,None,,['return'],[0.7995038238077541],2017_Feb_20_1713,60.1164555403,famFaceFilter,001,20,
25,./img/edges5_JoachimLoew8_1.png,0,4,4,24,,,1.ja,1.129,None,None,None,None,None,sport,1.123,None,Jogi Löw,"['lshift', 'j', 'o', 'g', 'i', 'space', 'lshift', 'l', u'\xf6', 'w', 'return']","[1.2831610927059955, 1.499783957420732, 1.8497806373889034, 2.7492975809327618, 2.8991759587443084, 3.099009732664854, 3.1824188493083057, 3.365647978585912, 4.13208846615089, 4.615212605469424, 5.7148321331515035]",2017_Feb_20_1713,60.1164555403,famFaceFilter,001,20,
43,./img/edges5_BarackObama1_3.png,0,5,5,42,,,1.ja,2.083,None,None,None,None,None,polit,0.473,None,Barak Obama,"['lshift', 'b', 'a', 'r', 'a', 'k', 'space', 'lshift', 'o', 'b', 'a', 'm', 'a', 'return']","[0.38343821102171205, 0.9499926381940895, 1.1332098987622885, 1.38313764398481, 1.6328507901198464, 2.3327193682271172, 3.0657029274989327, 3.21563968652481, 3.4156980035877496, 3.865364252284053, 3.982028208392876, 4.148625747850019, 4.215256038529333, 4.864945318935497]",2017_Feb_20_1713,60.1164555403,famFaceFilter,001,20,
38,./img/edges5_GeorgeClooney11_1.png,0,6,6,37,,,1.ja,1.183,None,act,2.122,None,None,None,None,None,George Clooney,"['lshift', 'g', 'e', 'o', 'r', 'g', 'e', 'space', 'lshift', 'c', 'l', 'o', 'o', 'n', 'e', 'y', 'return']","[0.41680275584803894, 0.833560282295366, 1.0333706395722402, 1.2832085675399867, 1.7661184285425406, 1.999707131584728, 2.1328127781707735, 2.2661910842907673, 2.3826734812282666, 2.6156905615862343, 2.8992359438379935, 3.11580588052675, 3.2658026246535883, 3.43217914950219, 3.56563508338877, 3.9654659061707207, 4.215417388812057]",2017_Feb_20_1713,60.1164555403,famFaceFilter,001,20,
36,./img/edges5_AngelaMerkel1_1.png,0,7,7,35,,,1.ja,1.947,None,None,None,None,None,polit,0.957,None,Angela Merkel,"['lshift', 'a', 'n', 'g', 'e', 'l', 'a', 'space', 'lshift', 'm', 'e', 'r', 'k', 'e', 'l', 'return']","[0.35015321861646953, 0.5834907541138818, 0.783302073719824, 1.1332551281630003, 1.2998096836490731, 1.4164162208689959, 1.5497226731786213, 1.6996921513527923, 1.7993825705125346, 2.099557938705402, 2.3327710131488857, 2.4327616785703867, 2.682549244716938, 2.8158916239299288, 2.9655284574764664, 3.2323338276473805]",2017_Feb_20_1713,60.1164555403,famFaceFilter,001,20,
35,./img/edges5_WillSmith1_1.png,0,8,8,34,,,1.ja,1.141,None,act,1.674,None,None,None,None,None,Will Smith,"['lshift', 'w', 'i', 'l', 'l', 'space', 'lshift', 's', 'm', 'i', 't', 'h', 'return']","[0.35032098442025017, 1.1002546640011133, 1.2666433783342654, 1.4664033737899445, 1.6166297934723843, 1.7663965412648395, 1.8664648344565649, 2.316196842217323, 2.4992068815408857, 2.6493935250073264, 3.0493051833218487, 3.1824563800873875, 3.765506067313254]",2017_Feb_20_1713,60.1164555403,famFaceFilter,001,20,
62,./img/edges5_AlysonHannigan(Lily)5_4.png,0,9,9,61,,,1.ja,1.706,None,act,0.973,None,None,None,None,None,Aus How I met your mother,"['lshift', 'a', 'u', 's', 'space', 'lshift', 'h', 'o', 'w', 'space', 'lshift', 'i', 'space', 'm', 'e', 't', 'space', 'y', 'o', 'u', 'r', 'space', 'm', 'o', 't', 'h', 'e', 'r', 'return']","[0.8498877765450743, 1.8162727057242591, 2.3493243336451997, 2.4657900502388657, 2.6158124564353784, 3.0822639466168766, 4.2486523401748855, 4.682758711391216, 5.098263287101872, 5.231415125421336, 5.348240431816521, 5.498134848421614, 5.631388372708898, 5.864743230104068, 5.997898596961022, 6.414375765252771, 6.531024965668621, 7.097515558434679, 7.197350005983026, 7.397371754592314, 7.69697742475546, 7.813893510738126, 8.030433936040936, 8.213663065314904, 8.496864896562329, 8.61353751362185, 8.863556359206996, 8.963365786235954, 9.213238678777998]",2017_Feb_20_1713,60.1164555403,famFaceFilter,001,20,
9,./img/edges5_RobertSeanLeonard(Wilson)8_1.png,0,10,10,8,,,1.ja,1.602,None,act,0.757,None,None,None,None,None,Wilson aus Dr House,"['lshift', 'w', 'i', 'l', 's', 'o', 'n', 'space', 'a', 'u', 's', 'space', 'lshift', 'd', 'r', 'space', 'lshift', 'h', 'o', 'u', 's', 'e', 'return']","[0.28360440502365236, 0.6501287434148253, 0.8168417622000561, 1.0167913362274703, 1.1665940109196526, 1.6162573726323899, 1.7997235553120845, 1.9663089052846772, 2.1495332229205815, 2.316220900411281, 2.8491596152089187, 2.9826479474686494, 3.2156932561047142, 3.415632886073581, 3.665686696236662, 3.7989841668204463, 3.9653895615010697, 4.331969714905426, 4.6652020038236515, 4.865092555079173, 5.031587125464284, 5.214983058220241, 5.364879078704689]",2017_Feb_20_1713,60.1164555403,famFaceFilter,001,20,
39,./img/edges5_AlysonHannigan(Lily)8_3.png,0,11,11,38,,,1.ja,1.482,None,act,2.355,None,None,None,None,None,Aus Himym,"['lshift', 'a', 's', 'backspace', 'u', 's', 'space', 'lshift', 'h', 'i', 'm', 'y', 'm', 'return']","[0.3666446293609624, 1.499860302086745, 1.5995962714296184, 1.982654362986068, 2.216073696341482, 2.332740539437509, 2.482725414851302, 2.565988899226795, 3.6821691252553137, 4.265477678647585, 4.565168675206223, 5.231663085203763, 5.364939705355937, 5.698067421322776]",2017_Feb_20_1713,60.1164555403,famFaceFilter,001,20,
23,./img/edges5_UrsulavonderLeyen1_1.png,0,12,12,22,,,1.ja,1.233,None,None,None,None,None,polit,1.023,None,Ursular von der Leyen,"['lshift', 'u', 'r', 's', 'u', 'l', 'a', 'r', 'space', 'v', 'o', 'n', 'space', 'd', 'e', 'r', 'space', 'l', 'backspace', 'lshift', 'l', 'e', 'y', 'e', 'n', 'return']","[0.3501849754320574, 0.7664783391228411, 1.0500865934591275, 1.333260196424817, 1.8164286028186325, 2.6826605539608863, 2.782361879500968, 3.015941921596095, 3.149115251901094, 3.332414951877581, 3.4990590038432856, 3.682177144652087, 3.832088562379795, 3.89883818169983, 4.098704995540174, 4.148647881385841, 4.248696928025311, 4.4484857933166495, 4.848319182303385, 4.981747850240936, 5.14831331210371, 5.414964389059605, 5.7480972374469275, 5.981270535674412, 6.6477017528159195, 7.2308139913475316]",2017_Feb_20_1713,60.1164555403,famFaceFilter,001,20,
68,./img/edges5_MariskaHargitay(Liv)4_4.png,0,13,13,67,,,2.nein,5.682,None,None,None,music,0.818,None,None,None,,['return'],[0.5835212278288964],2017_Feb_20_1713,60.1164555403,famFaceFilter,001,20,
64,./img/edges5_EmilyDeschanel3_1.png,0,14,14,63,,,1.ja,3.339,None,act,0.707,None,None,None,None,None,aus Bones,"['a', 'u', 's', 'space', 'lshift', 'b', 'o', 'n', 'e', 's', 'return']","[1.9160077127344266, 2.0160744020467973, 2.1995489249020466, 2.332801166085119, 2.48269654501928, 2.7326031190314097, 3.0325670958955016, 3.2156951807592122, 3.332356891434756, 3.532348807882954, 4.898400322570524]",2017_Feb_20_1713,60.1164555403,famFaceFilter,001,20,
15,./img/edges5_LisaEdelstein(DrLisaCuddy)6_3.png,0,15,15,14,,,1.ja,1.466,None,act,1.073,None,None,None,None,None,klinikleitende Aerztin aus Dr House,"['k', 'l', 'i', 'n', 'i', 'k', 'l', 'e', 'i', 't', 'e', 'n', 'd', 'e', 'space', 'lshift', 'a', 'e', 'r', 'z', 't', 'i', 'n', 'space', 'a', 's', 'backspace', 'u', 's', 'space', 'lshift', 'd', 'r', 'space', 'lshift', 'h', 'o', 'u', 's', 'e', 'return']","[0.9500773230356572, 1.1167929080293106, 1.2666254148862208, 1.4498744322663697, 1.5997929070690589, 1.8497915437692427, 2.1495951326760405, 2.3495395742866094, 2.4660585396813985, 2.7822027746478852, 2.9002900135092204, 3.032590833317954, 3.232457005604374, 3.3658340286165185, 3.5323937165157986, 3.69897874570961, 4.132067615715641, 4.4486509929156455, 5.065138041107275, 5.265021535291453, 5.681215458447696, 5.831421990023955, 5.997992905078718, 6.247960747292382, 8.830168397736998, 8.996814695132343, 9.429927623332333, 10.029734965315583, 10.129814164887648, 10.312883547758247, 10.546029900808207, 10.8460512965612, 11.062647857652337, 11.17936153402843, 11.312443763974443, 11.729005937882903, 12.01210544161222, 12.178836744627915, 12.412163694520132, 12.561902855581138, 12.878548463308107]",2017_Feb_20_1713,60.1164555403,famFaceFilter,001,20,
5,./img/edges5_AlysonHannigan(Lily)1_1.png,0,16,16,4,,,1.ja,8.896,None,dummy,0.551,None,None,None,None,None,aus Himym,"['lshift', 'h', 'i', 'm', 'y', 'm', 'left', 'backspace', 'backspace', 'backspace', 'backspace', 'backspace', 'a', 'u', 's', 'space', 'lshift', 'h', 'i', 'm', 'y', 'm', 'return']","[1.13316787711301, 1.299867423309479, 1.5495982121210545, 1.7496975885005668, 2.799297885667329, 2.9159233486680023, 3.8321655485997326, 4.731838710016746, 4.898502329313487, 5.031681112806837, 5.18158900200433, 5.314896737418167, 5.831388950100518, 6.031249027644662, 6.181143444253394, 6.314440914837178, 6.497617116088804, 6.830947241662216, 7.0641683355024725, 7.763941001609055, 8.580183875168586, 8.680148557741632, 8.929714467729355]",2017_Feb_20_1713,60.1164555403,famFaceFilter,001,20,
50,./img/edges5_WillSmith5_1.png,0,17,17,49,,,1.ja,1.345,None,None,None,music,2.039,None,None,None,Will Smith,"['lshift', 'w', 'i', 'l', 'l', 'space', 'lshift', 's', 'm', 'i', 't', 'h', 'return']","[0.13373404661251698, 0.43365343562254566, 0.7333819629639038, 0.9499907135395915, 1.0833324512022955, 1.266682512999978, 1.4331228722548985, 1.832938939343876, 2.032960687949526, 2.199507865585474, 2.499484352712898, 2.6326342663742253, 2.832565876949957]",2017_Feb_20_1713,60.1164555403,famFaceFilter,001,20,
13,./img/edges5_MariskaHargitay(Liv)6_5.png,0,18,18,12,,,2.nein,3.604,None,None,None,host,0.655,None,None,None,,['return'],[0.4668822922394611],2017_Feb_20_1713,60.1164555403,famFaceFilter,001,20,
28,./img/edges5_Ice-T(OdafinFinTutuola)5_1.png,0,19,19,27,,,2.nein,1.024,None,None,None,None,None,sport,0.84,None,,['return'],[0.3501647665507335],2017_Feb_20_1713,60.1164555403,famFaceFilter,001,20,
48,./img/edges5_GeorgeClooney3_1.png,0,20,20,47,,,1.ja,1.94,None,None,None,None,None,polit,1.223,None,George Clooney,"['lshift', 'g', 'e', 'o', 'r', 'g', 'e', 'space', 'lshift', 'c', 'l', 'o', 'o', 'n', 'e', 'y', 'return']","[1.6497146217043337, 2.1162196814657364, 2.2495575698158063, 2.632753915793728, 3.099174932260212, 3.315683600747434, 3.4491177218769735, 3.5821983479399933, 3.815462746530102, 4.015479041947401, 4.215469033737463, 4.431923491094494, 4.581890082281461, 4.748277834289183, 4.865150294746854, 5.14832004839991, 5.331615899067401]",2017_Feb_20_1713,60.1164555403,famFaceFilter,001,20,
3,./img/edges5_NicoleKidman5_1.png,0,21,21,2,,,2.nein,4.499,None,None,None,host,0.651,None,None,None,,['return'],[0.5833974083252542],2017_Feb_20_1713,60.1164555403,famFaceFilter,001,20,
37,./img/edges5_JasonSegel(Marshall)9_1.png,0,22,22,36,,,1.ja,1.324,None,act,0.723,None,None,None,None,None,Sportlehrer aus Bad Teacher,"['lshift', 's', 'p', 'r', 'o', 't', 'backspace', 'backspace', 'backspace', 'o', 'r', 't', 'l', 'e', 'h', 'r', 'e', 'r', 'space', 'a', 'u', 's', 'space', 'lshift', 'b', 'a', 'd', 'space', 'lshift', 't', 'e', 'a', 'c', 'h', 'e', 'r', 'return']","[0.5834721491119126, 0.8333469663084543, 1.3665054126104224, 1.4827924570163304, 1.649787437836494, 1.9827390478276357, 2.7156417715668795, 2.8826293745405565, 3.299018971007172, 5.214832293535437, 5.881207695671037, 6.064617421787261, 6.264505727613141, 6.414223075913469, 6.630913945122302, 6.897380575926945, 6.997387600917136, 7.146904464269028, 7.9303589065493725, 8.513555188372266, 8.630206954996538, 8.780203699123376, 9.612892433247907, 9.746266890055267, 9.91283106881383, 10.06259942048564, 10.279470565761585, 10.396078706860862, 10.562466138089803, 11.062462449168379, 12.045277841665666, 12.21210056581549, 12.545161560392444, 12.711802083824296, 12.778309196546616, 12.861565623854403, 13.095061301879468]",2017_Feb_20_1713,60.1164555403,famFaceFilter,001,20,
69,./img/edges5_GuentherJauch2_1.png,0,23,23,68,,,1.ja,1.269,None,None,None,host,0.807,None,None,None,Günther Jauch,"['lshift', 'g', u'\xfc', 'n', 't', 'h', 'e', 'r', 'space', 'lshift', 'j', 'a', 'u', 'c', 'h', 'return']","[0.26693143511147355, 0.8000613323565631, 1.4164287311286898, 1.6830759587755892, 2.1494982583462843, 2.249510094978177, 2.5328922022890765, 2.5828062183063594, 2.8159172860068793, 2.9158967242692597, 3.1491717084609263, 3.2991200154247053, 3.4156999282422476, 3.5491343701469305, 3.66559367121954, 4.365296087398747]",2017_Feb_20_1713,60.1164555403,famFaceFilter,001,20,
26,./img/edges5_NicoleKidman7_1.png,0,24,24,25,,,2.nein,7.747,None,act,3.45,None,None,None,None,None,,['return'],[1.083375435173366],2017_Feb_20_1713,60.1164555403,famFaceFilter,001,20,
49,./img/edges5_RobertSeanLeonard(Wilson)2_6.png,0,25,25,48,,,1.ja,1.039,None,act,0.689,None,None,None,None,None,Wilson aus Dr House,"['lshift', 'w', 'i', 'l', 's', 'o', 'n', 'space', 'a', 'u', 's', 'space', 'lshift', 'd', 'r', 'space', 'lshift', 'h', 'o', 'u', 's', 'e', 'return']","[0.616851770413632, 0.8333540233797976, 0.98328725387546, 1.1997176530385332, 1.2998388742562383, 1.4994750502119132, 1.6828565480500401, 1.8992526241891028, 2.1161086929969315, 2.2991059012856567, 2.682557905667636, 2.7991506495236536, 2.982388760527101, 3.3322933778072183, 3.598791123873525, 3.7321341446404404, 3.88196985925606, 4.198657167849888, 4.44858523385119, 4.665139131742762, 4.831743407496106, 5.015011029881862, 5.381531518960401]",2017_Feb_20_1713,60.1164555403,famFaceFilter,001,20,
16,./img/edges5_BritneySpears7_1.png,0,26,26,15,,,1.ja,1.868,None,None,None,music,1.123,None,None,None,Brittney Spears,"['lshift', 'b', 'r', 'i', 't', 't', 'n', 'e', 'y', 'space', 'lshift', 's', 'p', 'e', 'a', 'r', 's', 'return']","[0.4668543847365072, 0.9999669600802008, 1.2662273319692758, 1.3998247280396754, 1.6330740501580294, 1.7829492202108668, 1.9493392176482303, 2.049514970774908, 2.515958762331138, 2.6659115601542, 2.782584177213721, 2.9823207560293667, 3.265661162473407, 3.448915312270401, 3.665501929306629, 3.881833850264229, 4.115413250805432, 4.665091656908771]",2017_Feb_20_1713,60.1164555403,famFaceFilter,001,20,
6,./img/edges5_GuentherJauch3_1.png,0,27,27,5,,,1.ja,1.25,None,None,None,host,3.804,None,None,None,Günther Jauch,"['lshift', 'g', u'\xfc', 'n', 't', 'h', 'e', 'r', 'space', 'lshift', 'j', 'a', 'u', 'c', 'h', 'return']","[0.6500985904785921, 0.9164474965218687, 1.3332711028051563, 1.6164601030141057, 1.9163855867700477, 2.2494061635807157, 2.3829073268752836, 2.46597706259854, 2.5826102242208435, 2.749280579810147, 2.949055010183656, 3.0658668439937173, 3.199069044130738, 3.3157102251498145, 3.415710834626225, 3.6654987215479196]",2017_Feb_20_1713,60.1164555403,famFaceFilter,001,20,
44,./img/edges5_EmilyDeschanel5_1.png,0,28,28,43,,,1.ja,2.039,None,act,0.939,None,None,None,None,None,aus Bones,"['a', 'u', 's', 'space', 'lshift', 'b', 'o', 'n', 'e', 's', 'return']","[0.7168026596191339, 0.8333549857088656, 0.9833286339671758, 1.1499508731685637, 1.216521178750554, 1.6163920985200093, 1.8824369089925312, 2.0995178417178977, 2.2325397657914436, 2.4327895860733406, 2.732002305740025]",2017_Feb_20_1713,60.1164555403,famFaceFilter,001,20,
32,./img/edges5_Ice-T(OdafinFinTutuola)7_1.png,0,29,29,31,,,2.nein,1.244,None,None,None,None,None,sport,0.839,None,,['return'],[0.9667371411342174],2017_Feb_20_1713,60.1164555403,famFaceFilter,001,20,
7,./img/edges5_AngelaMerkel3_1.png,0,30,30,6,,,1.ja,1.04,None,None,None,None,None,polit,1.956,None,Angela Merkel,"['lshift', 'a', 'n', 'g', 'e', 'l', 'a', 'space', 'lshift', 'm', 'e', 'r', 'k', 'e', 'l', 'return']","[0.1836554404690105, 0.4835600737897039, 0.7168180568587559, 1.1345587614960095, 1.3162821686091775, 1.4329871840382111, 1.5664812902614358, 1.7828889143347624, 1.8998967422303394, 2.0662014132722106, 2.266222520327574, 2.366165069361159, 2.599398994239891, 2.6825216579854896, 3.7155644645717985, 4.032246319977276]",2017_Feb_20_1713,60.1164555403,famFaceFilter,001,20,
63,./img/edges5_LisaEdelstein(DrLisaCuddy)2_2.png,0,31,31,62,,,1.ja,2.714,None,act,0.406,None,None,None,None,None,klinikleitende Aerztin aus Dr House,"['k', 'l', 'i', 'n', 'i', 'k', 'l', 'e', 'i', 't', 'e', 'n', 'd', 'e', 'space', 'lshift', 'a', 'e', 'r', 't', 'z', 'backspace', 'backspace', 'z', 't', 'i', 'n', 'space', 'a', 'u', 's', 'space', 'lshift', 'd', 'r', 'space', 'lshift', 'h', 'o', 'u', 's', 'e', 'return']","[4.6319397865117935, 4.831745652925747, 4.998266206162953, 5.231589627517678, 5.4147616586815275, 5.731458590555121, 6.031301634899137, 6.197710558117251, 6.347870577181311, 6.69765522427042, 6.8309857347740035, 6.980900681039202, 7.114170885673957, 7.2641544779835385, 7.430543833870615, 7.680522261689475, 8.013867784506147, 8.247041724287556, 8.463661702018726, 8.663485211109219, 8.9967434828759, 9.463193369178043, 9.629838704244321, 9.729737627752911, 9.879662518073019, 10.6291522437823, 10.812658844224643, 10.979426074143703, 11.245869609079818, 11.395450306838029, 11.612300922457507, 11.74553872872275, 12.644955269402999, 12.995122281383374, 13.494857480865903, 13.661486456359853, 13.844745097019768, 14.044619930256886, 14.377914770480857, 14.561113105268305, 16.54368887815508, 16.7435550504415, 16.993353202193248]",2017_Feb_20_1713,60.1164555403,famFaceFilter,001,20,
46,./img/edges5_TomCruise5_1.png,0,32,32,45,,,1.ja,1.784,None,act,1.905,None,None,None,None,None,Tom Cruiz,"['lshift', 't', 'o', 'm', 'space', 'lshift', 'c', 'r', 'u', 'i', 'z', 'return']","[0.5002689706088859, 0.8333658920892049, 1.1666007472158526, 1.6162929787606117, 1.782972636854538, 1.8662961063273542, 2.182942034829466, 2.449417647359951, 2.699230234029528, 2.8824895162433677, 3.1824865330272587, 3.498705829559185]",2017_Feb_20_1713,60.1164555403,famFaceFilter,001,20,
11,./img/edges5_RobertSeanLeonard(Wilson)1_1.png,0,33,33,10,,,1.ja,1.305,None,act,0.872,None,None,None,None,None,Wilsin aus Dr House,"['lshift', 'w', 'i', 'l', 's', 'i', 'n', 'space', 'a', 'u', 's', 'space', 'lshift', 'd', 'r', 'space', 'lshift', 'h', 'o', 'u', 's', 'e', 'return']","[0.3837285132285615, 0.7335699376526463, 0.9167589699391101, 1.0833148085257562, 1.2166751511904295, 1.3830808666498342, 1.5997900200854929, 1.7664090515281714, 1.9329796458077908, 2.066457071683544, 2.23279317876586, 2.4328396271193924, 2.6158599312730075, 2.86584188762572, 3.1324618493199523, 3.29909082481754, 3.4155443519230175, 3.848724001512892, 4.115336906135781, 4.281859704802628, 4.398480356165237, 4.581773640624306, 4.7319506608146185]",2017_Feb_20_1713,60.1164555403,famFaceFilter,001,20,
55,./img/edges5_JoachimLoew1_1.png,0,34,34,54,,,1.ja,1.165,None,None,None,None,None,sport,0.772,None,Jogi Löw,"['lshift', 'j', 'o', 'g', 'i', 'space', 'lshift', 'l', u'\xf6', 'w', 'return']","[0.20090356160653755, 0.6670095761219272, 0.9669090770257753, 1.5167206051373796, 1.6500584934874496, 1.8164128847965912, 1.9165190295498178, 2.166469870640867, 2.599734205072309, 3.4492623918122263, 3.782535740050662]",2017_Feb_20_1713,60.1164555403,famFaceFilter,001,20,
20,./img/edges5_JoshRadnor(Ted)1_2.png,0,35,35,19,,,1.ja,2.522,None,act,0.706,None,None,None,None,None,amerikanische Serie,"['a', 'm', 'e', 'r', 'i', 'k', 'a', 'n', 'i', 's', 'c', 'h', 'e', 'space', 'lshift', 's', 'e', 'r', 'i', 'e', 'return']","[1.4333775683298882, 1.6497611342128948, 1.799787710497185, 1.899694332627405, 2.1329163887930918, 2.4160155717436282, 2.5660113535413984, 2.6992805958470854, 3.165357740530453, 3.24921113182063, 3.3824232760125597, 3.432363916428585, 3.582382794091245, 3.6989194021625735, 3.848868992226926, 4.015552178854705, 4.215336874058266, 4.382033212496026, 4.648459746309527, 4.765156100787863, 4.965028367816558]",2017_Feb_20_1713,60.1164555403,famFaceFilter,001,20,
27,./img/edges5_OmarEpps(DrEricForeman)2_2.png,0,36,36,26,,,1.ja,2.349,None,act,1.322,None,None,None,None,None,Arzt aud em Team von Dr House,"['lshift', 'lshift', 'a', 'r', 't', 'z', 'backspace', 'backspace', 'z', 't', 'space', 'a', 'u', 'd', 'space', 'e', 'm', 'space', 'lshift', 't', 'e', 'a', 'm', 'space', 'v', 'o', 'n', 'space', 'lshift', 'd', 'r', 'space', 'lshift', 'h', 'o', 'u', 's', 'e', 'return']","[11.945509473956918, 13.777733403774619, 14.077963945430383, 14.427891017025104, 14.62779087078161, 14.8276230408228, 15.377504818858142, 15.510664355799236, 15.577368104160996, 15.710598532579752, 16.010484240119695, 16.377129831809725, 16.560281654088612, 16.976727386339917, 17.1100713694359, 17.293350860531064, 17.459819127292576, 17.609957012820814, 17.693049202855036, 18.45945729205414, 18.6262245219732, 18.84274313451533, 18.97591742714576, 19.158954732425627, 19.52578252483363, 20.22554268068052, 20.458645728980628, 20.64159738708986, 20.775191575397912, 21.00833119215531, 21.22502815610642, 21.341711037995992, 21.524699906109163, 21.691522309483844, 21.991267517172673, 22.15789392646184, 22.357583992768923, 22.574361150702316, 22.70757906885774]",2017_Feb_20_1713,60.1164555403,famFaceFilter,001,20,
61,./img/edges5_NeilPatrickHarris(Barney)2_2.png,0,37,37,60,,,1.ja,2.485,None,act,1.156,None,None,None,None,None,Barney aus Himym,"['lshift', 'b', 'a', 'r', 'n', 'e', 'y', 'space', 'a', 'u', 's', 'space', 'lshift', 'h', 'i', 'm', 'y', 'm', 'return']","[0.6668655477369612, 1.0667672619929363, 1.216652376097045, 1.4664036945687258, 1.749658133063349, 1.8663185606383195, 2.199543471713696, 2.3661275385784393, 2.5660905851946154, 2.7157710442625103, 2.916004184200574, 3.0826129508132, 3.2156720848906843, 3.482218909673975, 3.8485738783820125, 4.065454646934086, 5.031465872169065, 5.1483197276211285, 8.29700193203098]",2017_Feb_20_1713,60.1164555403,famFaceFilter,001,20,
30,./img/edges5_MariskaHargitay(Liv)8_8.png,0,38,38,29,,,2.nein,4.366,None,None,None,music,0.882,None,None,None,,['return'],[0.6501277810857573],2017_Feb_20_1713,60.1164555403,famFaceFilter,001,20,
71,./img/edges5_HughLaurie(DrHouse)4_1.png,0,39,39,70,,,1.ja,1.456,None,dummy,0.606,None,None,None,None,None,Hugh Laurie,"['lshift', 'h', 'u', 'g', 'h', 'space', 'lshift', 'l', 'a', 'u', 'i', 'backspace', 'r', 'e', 'backspace', 'i', 'e', 'return']","[0.5169287887074461, 0.750109464781417, 0.9501260809738596, 1.3333496929044486, 1.4332447671004047, 1.5664934797459864, 1.6994323228573194, 1.8664093402221624, 2.032965820362733, 2.1163085363914433, 2.93256327866402, 3.365794893950806, 3.482386996256537, 3.6324421215977054, 4.265433090793522, 4.681935279608297, 4.748588024598575, 4.981795004299784]",2017_Feb_20_1713,60.1164555403,famFaceFilter,001,20,
21,./img/edges5_JoshRadnor(Ted)3_1.png,0,40,40,20,,,1.ja,10.312,None,act,0.501,None,None,None,None,None,amerikanische Serie,"['a', 'm', 'e', 'r', 'i', 'k', 'a', 'n', 'i', 's', 'c', 'h', 'e', 'space', 'lshift', 's', 'e', 'r', 'i', 'e', 'return']","[0.7501203711653943, 0.8998797411077248, 1.0334745709697017, 1.1334748596709687, 1.4165804581389239, 1.7330926230861223, 1.8497431066061836, 1.9995791419969464, 2.1662559131036687, 2.316177274886286, 2.466074578478583, 2.515818583255168, 2.6659827724106435, 2.7659683054152993, 2.915826474341884, 3.115878375887405, 3.299248967341555, 3.499085307470523, 3.7490954921049706, 3.8654383515204245, 4.366670291434275]",2017_Feb_20_1713,60.1164555403,famFaceFilter,001,20,
57,./img/edges5_BritneySpears5_1.png,0,41,41,56,,,1.ja,1.15,None,None,None,music,1.006,None,None,None,Brittney Spears,"['lshift', 'b', 'r', 'i', 't', 't', 'n', 'e', 'y', 'space', 'lshift', 's', 'p', 'r', 'backspace', 'e', 'a', 'r', 's', 'return']","[0.3338491410104325, 0.7504828479504795, 1.117013601862709, 1.3001994263904635, 1.5502031955074926, 1.6999548668281932, 1.8665283480913786, 1.932837862848828, 2.249786283045978, 2.3997018708614632, 2.532944809539913, 2.699567048744939, 3.932198235666874, 4.065781196823082, 4.515570302693959, 5.381807065474277, 5.581786150884, 5.831722557060857, 6.04819914795371, 6.24812402223688]",2017_Feb_20_1713,60.1164555403,famFaceFilter,001,20,
45,./img/edges5_WillSmith4_1.png,0,42,42,44,,,1.ja,1.417,None,act,1.856,None,None,None,None,None,Will Smith,"['lshift', 'w', 'i', 'l', 'l', 'space', 'lshift', 's', 'm', 'i', 't', 'h', 'return']","[0.2169782844321162, 0.600248088092485, 0.7665360787868849, 1.0332888417106005, 1.1666103704919806, 1.3331623597659927, 1.6496379562595394, 2.082913517850102, 2.299395882710087, 2.4326186125072127, 2.7656398308718053, 2.865901551944262, 3.0824936221724784]",2017_Feb_20_1713,60.1164555403,famFaceFilter,001,20,
17,./img/edges5_NeilPatrickHarris(Barney)3_7.png,0,43,43,16,,,1.ja,1.204,None,dummy,0.756,None,None,None,None,None,Barney aus Himym,"['lshift', 'b', 'a', 'r', 'n', 'e', 'y', 'space', 'a', 'u', 's', 'space', 'lshift', 'h', 'i', 'm', 'y', 'm', 'return']","[0.40003355316002853, 0.8000642193364911, 0.8834595426160377, 1.1999152509997657, 1.633031066183321, 2.182865690159815, 2.3994170218429645, 4.182045145360462, 4.298541977215791, 4.481732292606466, 4.548541576248681, 4.765253616667906, 4.865098649821448, 5.098301780210022, 5.414938406211149, 5.681451870299497, 6.447777840861818, 6.581000891434087, 7.014167389213981]",2017_Feb_20_1713,60.1164555403,famFaceFilter,001,20,
65,./img/edges5_LisaEdelstein(DrLisaCuddy)1_1.png,0,44,44,64,,,1.ja,1.396,None,act,0.706,None,None,None,None,None,Klinikleitende Aerztin aus Dr House,"['lshift', 'k', 'l', 'i', 'n', 'i', 'k', 'l', 'e', 'i', 't', 'e', 'n', 'd', 'e', 'space', 'lshift', 'a', 'e', 'r', 'z', 't', 'i', 'n', 'space', 'a', 'u', 's', 'space', 'lshift', 'd', 'r', 'space', 'lshift', 'h', 'o', 'u', 's', 'e', 'return']","[0.6168953959349892, 0.9833202937916212, 1.1831659364215739, 1.3498266687347495, 1.5331465775961988, 1.7159952666333993, 1.9494652825851517, 2.1660028209043958, 2.332812714019383, 2.4493425857945113, 3.415560069941421, 3.6156395582147525, 3.715561898367014, 3.9653930900385603, 4.115462008743634, 4.248739912000019, 4.4319324728203355, 4.881676670065644, 5.131708025910484, 5.331458398090035, 5.8479236655985005, 6.08115598659424, 6.381202082095115, 6.5643949636905745, 6.930948492692551, 7.197529961274995, 7.380659008464136, 7.6639904331786965, 7.79698669517893, 7.947231719863339, 8.197129632928409, 8.447067963756126, 8.563249472885218, 8.730191204904258, 9.596509765542578, 9.896349281349103, 10.096186904582282, 10.396228509216598, 10.562727249689488, 10.662698668555095]",2017_Feb_20_1713,60.1164555403,famFaceFilter,001,20,
4,./img/edges5_LeonardoDiCaprio1_1.png,0,45,45,3,,,1.ja,1.3,None,act,1.139,None,None,None,None,None,Leonardo DiCaprio,"['lshift', 'l', 'e', 'o', 'n', 'a', 'r', 'd', 'o', 'space', 'lshift', 'd', 'i', 'lshift', 'c', 'a', 'p', 'r', 'i', 'o', 'return']","[0.23355053070554277, 0.6668042795354268, 0.9002274622034747, 1.1000894644021173, 1.3830054843056132, 1.5165185163095884, 1.8332109573202615, 2.0828464756814355, 2.2827100817630708, 2.5661005292495247, 2.6992206107497623, 2.89939793567828, 3.3324877680133795, 3.4989611671880994, 3.7323176284662622, 3.9821581226387934, 4.415262069112941, 4.781922416495945, 4.915184922505432, 5.065025127980334, 5.3814946297279675]",2017_Feb_20_1713,60.1164555403,famFaceFilter,001,20,
56,./img/edges5_NeilPatrickHarris(Barney)1_1.png,0,46,46,55,,,1.ja,11.262,None,act,2.167,None,None,None,None,None,Barney aus Himym,"['lshift', 'b', 'a', 'r', 'n', 'e', 'y', 'space', 'a', 'u', 's', 'space', 'lshift', 'h', 'i', 'm', 'y', 'm', 'return']","[2.79915802737014, 3.332409819464374, 3.432325102545292, 3.7487901134300046, 4.06539786959911, 4.231760280308663, 4.498671827310318, 4.648528071582405, 4.7985264195885975, 5.098171545188961, 5.2482552195870085, 5.398250359830854, 6.047829614097282, 6.647969279933022, 7.047516216025542, 7.31403641641009, 7.980432027423376, 8.11364577549466, 8.363515781053138]",2017_Feb_20_1713,60.1164555403,famFaceFilter,001,20,
42,./img/edges5_JoachimLoew4_1.png,0,47,47,41,,,1.ja,2.099,None,None,None,None,None,sport,0.822,None,Jogi Löw,"['lshift', 'j', 'o', 'g', 'i', 'space', 'lshift', 'l', u'\xf6', 'w', 'return']","[0.30008651326352265, 0.8499365344832768, 1.0832442378232372, 1.632994497729669, 1.73287577856172, 1.8996574433949718, 2.0162107318137714, 2.1994558998849243, 2.6992084212652117, 3.282209671328019, 3.84872592616739]",2017_Feb_20_1713,60.1164555403,famFaceFilter,001,20,
22,./img/edges5_JasonSegel(Marshall)6_1.png,0,48,48,21,,,1.ja,1.222,None,act,0.706,None,None,None,None,None,Sportlehrer aus Bad Teacher,"['lshift', 's', 'p', 'o', 'backspace', 'o', 'r', 't', 'l', 'e', 'h', 'r', 'e', 'r', 'space', 'a', 'u', 's', 'space', 'lshift', 'b', 'a', 'd', 'space', 'lshift', 't', 'e', 'a', 'c', 'h', 'e', 'r', 'return']","[0.5834593180734373, 0.8834107846778352, 1.4330506976693869, 1.6331119017158926, 2.665972507576953, 3.6984719197571394, 3.881654215747403, 4.0652679553495545, 4.7983612199859635, 4.9150245345445, 5.0815797315808595, 5.281541495092824, 5.414717070827464, 5.5647253628849285, 6.3141159688348125, 6.514387281105883, 6.713959943426744, 6.830841385610256, 7.080823021187825, 8.68006355212492, 8.996759842448228, 9.129619453902706, 9.329678091740789, 9.446551835302671, 10.046263586064015, 10.279554609052866, 10.462642276146653, 10.645923691899952, 10.862498761001916, 11.013930977362179, 11.129069002428878, 11.195600173345156, 11.412326007131924]",2017_Feb_20_1713,60.1164555403,famFaceFilter,001,20,
34,./img/edges5_KatjaBurkard1_1.png,0,49,49,33,,,1.ja,5.166,None,None,None,host,0.6,None,None,None,,['return'],[0.7167997726355679],2017_Feb_20_1713,60.1164555403,famFaceFilter,001,20,
67,./img/edges5_LeonardoDiCaprio2_1.png,0,50,50,66,,,1.ja,0.957,None,act,0.607,None,None,None,None,None,Leonardo DiCaprio,"['lshift', 'l', 'e', 'o', 'n', 'a', 'r', 'd', 'o', 'space', 'lshift', 'd', 'i', 'lshift', 'c', 'a', 'p', 'r', 'i', 'o', 'return']","[0.43342087307974, 0.6668501504900632, 0.8667118319135625, 1.066735184402205, 1.2499322360854421, 1.3842035823618062, 1.6828995320211106, 1.9162203871710517, 2.099538371374365, 2.266240804558038, 2.365755438513588, 2.616027376298007, 2.9492506834940286, 3.1156843064563873, 3.3822879085746536, 3.598994816580671, 4.015571104631817, 4.348545489712706, 4.498633975752455, 5.4815808863750135, 5.731525311945006]",2017_Feb_20_1713,60.1164555403,famFaceFilter,001,20,
47,./img/edges5_UrsulavonderLeyen5_1.png,0,51,51,46,,,1.ja,1.315,None,None,None,None,None,polit,0.723,None,Ursula von der Leyen,"['lshift', 'u', 'r', 's', 'u', 'l', 'a', 'space', 'v', 'o', 'n', 'space', 'd', 'e', 'r', 'space', 'lshift', 'l', 'e', 'y', 'e', 'd', 'backspace', 'n', 'return']","[0.26700457201877725, 0.6832992188137723, 1.0666691045626067, 1.366345666207053, 1.5497518637894245, 2.11617477283653, 2.216112510228413, 2.5493650080316, 3.0491544186406827, 3.2157676761162293, 3.432285647108074, 3.598880941131938, 3.7486711055644264, 3.8655743605086172, 3.9320756992674433, 4.115404910629877, 4.2485788824888004, 4.381932809636055, 5.031586483913998, 5.314860810518439, 5.564782781773829, 5.781247824739694, 6.2311578631306475, 6.414519793637737, 6.780958805637056]",2017_Feb_20_1713,60.1164555403,famFaceFilter,001,20,
54,./img/edges5_KatjaBurkard5_3.png,0,52,52,53,,,1.ja,10.246,None,None,None,host,0.633,None,None,None,,['return'],[0.7503170068011968],2017_Feb_20_1713,60.1164555403,famFaceFilter,001,20,
58,./img/edges5_HughLaurie(DrHouse)5_3.png,0,53,53,57,,,1.ja,1.09,None,act,0.84,None,None,None,None,None,Huch Laurie,"['lshift', 'h', 'u', 'c', 'h', 'space', 'lshift', 'l', 'a', 'u', 'r', 'i', 'e', 'return']","[0.6168928297302045, 0.8334541054682632, 1.0166639881899755, 1.2332727387620253, 1.3665801534007187, 1.549880815709912, 1.7497149104019627, 1.9662848470907193, 2.1495178256773215, 2.266294053359161, 2.7992828092028503, 2.94920673719389, 3.0824532044061925, 3.6490005745108647]",2017_Feb_20_1713,60.1164555403,famFaceFilter,001,20,
53,./img/edges5_KatjaBurkard4_1.png,0,54,54,52,,,1.ja,1.838,None,None,None,host,0.971,None,None,None,,['return'],[0.5669117715478933],2017_Feb_20_1713,60.1164555403,famFaceFilter,001,20,
1,./img/edges5_BastianSchweinsteiger6_2.png,0,55,55,0,,,1.ja,1.306,None,None,None,None,None,sport,0.556,None,Bastian Schweinsteiger,"['lshift', 'b', 'a', 's', 't', 'i', 'a', 'n', 'space', 'lshift', 's', 'c', 'h', 'w', 'e', 'i', 'n', 's', 't', 'e', 'i', 'g', 'e', 'r', 'return']","[0.5169255809523747, 0.7001434830708604, 0.8499878586335399, 1.0333658279341762, 1.2831950949512247, 1.4498657713193097, 1.5996485579053115, 1.7163413838461565, 1.866255367785925, 1.9162771645096655, 2.0827553753224493, 2.299482812988572, 2.382697860201006, 2.5493682157903095, 2.6326868736250617, 2.8825761257394333, 3.0656698875791335, 3.3656601680704625, 3.682323097695189, 4.398478752285882, 4.465185387631209, 4.781631151963666, 4.948428214040177, 5.031544462271995, 5.314787032057211]",2017_Feb_20_1713,60.1164555403,famFaceFilter,001,20,
31,./img/edges5_GeorgeClooney4_2.png,0,56,56,30,,,1.ja,1.533,None,act,0.756,None,None,None,None,None,George Clooney,"['lshift', 'g', 'e', 'o', 'r', 'g', 'e', 'space', 'lshift', 'c', 'l', 'o', 'o', 'n', 'e', 'y', 'return']","[0.5002218165464001, 1.0167483522527618, 1.183352628002467, 1.4332996197845205, 2.066327478209132, 2.299499493332405, 2.3828492664324585, 2.5662307642705855, 2.7493030341211124, 2.9993183511724055, 3.1659088335582055, 3.3824521458445815, 3.5158025444579835, 3.7323006273400097, 3.8988378609246865, 4.232104152088141, 4.431964550411067]",2017_Feb_20_1713,60.1164555403,famFaceFilter,001,20,
29,./img/edges5_TomCruise4_1.png,0,57,57,28,,,1.ja,1.432,None,act,0.806,None,None,None,None,None,Tom Cruiz,"['lshift', 't', 'o', 'm', 'space', 'lshift', 'c', 'r', 'u', 'i', 'z', 'return']","[0.2835906116597471, 0.7332648797528236, 1.116643426452356, 1.3163161708580446, 1.4830198871459288, 1.5494743926174124, 1.783032621948223, 2.0494742322298407, 2.3328374137636274, 2.4993794589863683, 2.748984824411309, 2.9825802637496963]",2017_Feb_20_1713,60.1164555403,famFaceFilter,001,20,
66,./img/edges5_BritneySpears1_1.png,0,58,58,65,,,1.ja,1.589,None,None,None,music,0.471,None,None,None,Brittney Spears,"['lshift', 'b', 'r', 'i', 't', 't', 'n', 'e', 'y', 'space', 'lshift', 's', 'p', 'e', 'a', 'r', 's', 'return']","[0.6168427886841528, 0.9334620927875221, 1.2168175756960409, 1.333280405306141, 1.8830447793552594, 2.032516413302801, 2.2994786429007945, 2.4327732265010127, 2.7825421555680805, 2.8992571150483855, 3.0658341248490615, 3.232535274924885, 3.7821636399858107, 3.882147889886255, 4.098518303955643, 4.315450717429485, 4.548618883243762, 4.781873979329248]",2017_Feb_20_1713,60.1164555403,famFaceFilter,001,20,
60,./img/edges5_TomCruise1_1.png,0,59,59,59,,,1.ja,2.817,None,act,1.722,None,None,None,None,None,Tom Cruiz,"['lshift', 't', 'o', 'm', 'space', 'lshift', 'c', 'r', 'u', 'i', 'z', 'return']","[0.2002674629620742, 0.683526007389446, 1.0000721745818737, 1.1666546375709004, 1.316734783431457, 1.4163976158633886, 1.76645299782831, 1.9830566159871523, 2.166122791095404, 2.34941928331682, 2.699294709986134, 2.982469916831178]",2017_Feb_20_1713,60.1164555403,famFaceFilter,001,20,
12,./img/edges5_UrsulavonderLeyen4_1.png,0,60,60,11,,,1.ja,2.406,None,None,None,None,None,polit,1.156,None,Ursula von der Leyen,"['lshift', 'u', 'r', 's', 'u', 'l', 'a', 'space', 'v', 'o', 'n', 'space', 'd', 'e', 'r', 'space', 'lshift', 'l', 'e', 'y', 'e', 'n', 'return']","[0.30027320484805387, 0.700069704605994, 0.9833328040549532, 1.5997197701581172, 2.5660479219986883, 3.1991951090640214, 3.2989811194493086, 3.782051047637651, 4.282012714917073, 4.415228708417999, 4.615031367073243, 4.7811130988520745, 4.881084838492825, 5.0482527175336145, 5.114454130809463, 5.197605022836797, 5.364749485233915, 5.4315584480973484, 5.981383128022571, 6.231169731840055, 6.497780391033302, 6.714409029715171, 6.964181840168749]",2017_Feb_20_1713,60.1164555403,famFaceFilter,001,20,
10,./img/edges5_GuentherJauch4_1.png,0,61,61,9,,,1.ja,1.167,None,None,None,host,1.029,None,None,None,Günther Jauch,"['lshift', 'g', u'\xfc', 'n', 't', 'h', 'e', 'r', 'space', 'lshift', 'j', 'a', 'u', 'c', 'h', 'return']","[0.3668467181887536, 0.9499560697367997, 1.583071499990183, 1.8658236033952562, 2.099561788018036, 2.199488298254437, 2.4157624795443553, 2.4991177058363974, 2.6825919079128653, 2.8325289877175237, 3.29914567749438, 3.4656440971921256, 3.532322504259355, 3.698947951219452, 3.7988257035176503, 4.032517054853088]",2017_Feb_20_1713,60.1164555403,famFaceFilter,001,20,
18,./img/edges5_JoshRadnor(Ted)6_2.png,0,62,62,17,,,1.ja,2.048,None,dummy,0.84,None,None,None,None,None,amerikanische Serie,"['a', 'm', 'e', 'r', 'i', 'k', 'a', 'n', 'i', 's', 'c', 'h', 'e', 'space', 'lshift', 's', 'e', 'r', 'i', 'e', 'return']","[1.8163589944451815, 2.016191164486372, 2.1662414781894768, 2.249325328051782, 2.4327613577952434, 2.6826358542166417, 2.7991798401344568, 2.9492503627188853, 3.132580536410387, 3.282385777310992, 3.399220386207162, 3.465498464927805, 3.5821473445685115, 3.698881229829567, 3.848815101875516, 4.0157170576785575, 4.198593012668425, 4.398500565046561, 4.681649147489225, 4.798234513502393, 5.115040829965437]",2017_Feb_20_1713,60.1164555403,famFaceFilter,001,20,
19,./img/edges5_HughLaurie(DrHouse)2_1.png,0,63,63,18,,,1.ja,1.949,None,act,1.255,None,None,None,None,None,Hugh Laurie,"['lshift', 'h', 'u', 'g', 'h', 'space', 'lshift', 'l', 'a', 'u', 'r', 'i', 'e', 'return']","[0.30025395829579793, 0.983367447854107, 1.1832608860931941, 1.5495112818498455, 1.6330714839532448, 1.7997735963581363, 1.8994704310352972, 2.066227075349161, 2.2329282254249847, 2.3660107761461404, 2.932538258140994, 3.0991261743220093, 3.182464399487799, 3.4156758700482897]",2017_Feb_20_1713,60.1164555403,famFaceFilter,001,20,
40,./img/edges5_NicoleKidman3_1.png,0,64,64,39,,,2.nein,2.455,None,None,None,host,1.206,None,None,None,,['return'],[0.6334612266946351],2017_Feb_20_1713,60.1164555403,famFaceFilter,001,20,
41,./img/edges5_OmarEpps(DrEricForeman)3_1.png,0,65,65,40,,,1.ja,1.239,None,act,0.54,None,None,None,None,None,Arzt aus dem Team von Dr House,"['lshift', 'a', 'r', 'z', 't', 'space', 'a', 'u', 's', 'space', 'd', 'e', 'm', 'lshift', 'space', 't', 'e', 'a', 'm', 'space', 'v', 'o', 'n', 'space', 'lshift', 'd', 'r', 'space', 'lshift', 'h', 'o', 'u', 's', 'e', 'return']","[2.5660315624263603, 2.732610176102753, 3.5656248185623554, 3.948246975643997, 4.132108675032214, 4.2653612369904295, 4.4986067097997875, 4.632034736183414, 4.798313745151972, 5.564901468867902, 5.714732051063038, 5.848097205369413, 6.331139226051164, 6.498005896504765, 6.864259179244982, 7.030963537083153, 7.264192971095326, 7.44744166770397, 7.597256852655846, 7.813889982200635, 7.93051769063095, 8.11357841255085, 8.29714788507772, 8.32681163813686, 8.513680290983757, 8.779898962002335, 8.946750555984181, 9.179592492688244, 9.396512716681173, 9.69645969242265, 9.863048891704238, 10.013095035319566, 10.212994247525785, 10.346146085845248]",2017_Feb_20_1713,60.1164555403,famFaceFilter,001,20,
33,./img/edges5_BarackObama2_1.png,0,66,66,32,,,1.ja,1.117,None,None,None,None,None,polit,0.956,None,Barak Obama,"['lshift', 'b', 'a', 'r', 'a', 'k', 'space', 'lshift', 'o', 'b', 'a', 'm', 'a', 'return']","[0.25027739097640733, 0.5836521044038818, 0.7169191012762894, 0.9169427745400753, 1.250033601278119, 1.9164173435856355, 2.083154099789681, 2.1830552687279123, 2.3162715830076195, 2.666154387527058, 2.7659926843844005, 2.9493151594542724, 3.0160461737687, 3.965456603669736]",2017_Feb_20_1713,60.1164555403,famFaceFilter,001,20,
24,./img/edges5_JasonSegel(Marshall)7_1.png,0,67,67,23,,,1.ja,2.172,None,act,0.789,None,None,None,None,None,Sportlehrer aus dem Film Bad Teacher,"['lshift', 's', 'p', 'o', 'r', 't', 'l', 'e', 'h', 'r', 'e', 'r', 'space', 'a', 'u', 's', 'space', 'd', 'e', 'm', 'space', 'lshift', 'f', 'i', 'l', 'm', 'space', 'lshift', 'b', 'a', 'd', 'space', 'lshift', 't', 'e', 'a', 'c', 'h', 'e', 'r', 'return']","[1.416307157058327, 1.8658370759876561, 2.1991999207057233, 2.432937784549722, 2.716099198030861, 2.9159881454070273, 3.149326001679583, 3.2657865858600417, 3.4491048908384982, 3.6157537544422667, 3.732226528107276, 3.8656616115622455, 4.148966411874426, 4.348781580793002, 4.498652901533205, 4.948490444567142, 5.098394163676858, 8.63019957715369, 8.713263538909814, 8.86352267773691, 8.99673257649556, 9.080018515189295, 9.330044417842146, 9.513281887291669, 9.729859201826912, 9.929728902650822, 10.129579998469126, 10.196261613291426, 10.396259303706756, 10.562813217638904, 10.762861269871792, 10.92936321810339, 11.128978864395322, 11.612425704290217, 11.779046660387394, 11.962321660619637, 12.195299606311892, 12.32878986322612, 12.412104350973095, 12.512047220781824, 12.728762148188252]",2017_Feb_20_1713,60.1164555403,famFaceFilter,001,20,
52,./img/edges5_BarackObama4_1.png,0,68,68,51,,,1.ja,1.217,None,None,None,None,None,polit,1.057,None,Barak Obama,"['lshift', 'b', 'a', 'r', 'a', 'k', 'space', 'lshift', 'o', 'b', 'a', 'm', 'a', 'return']","[0.2836627862416208, 0.9500657751013932, 1.1161975479262765, 1.3499245053899358, 1.5664338154274446, 1.7330060135864187, 1.8995477380340162, 1.9829157953608956, 2.199569454562152, 2.5326359023310943, 2.649292801372212, 2.898890468175523, 2.999184587617492, 3.3490689960126474]",2017_Feb_20_1713,60.1164555403,famFaceFilter,001,20,
8,./img/edges5_LeonardoDiCaprio3_1.png,0,69,69,7,,,1.ja,3.938,None,act,0.84,None,None,None,None,None,Leonardo DiCaprio,"['lshift', 'l', 'o', 'backspace', 'e', 'o', 'n', 'a', 'r', 'd', 'o', 'space', 'lshift', 'd', 'i', 'lshift', 'c', 'a', 'p', 'r', 'i', 'o', 'return']","[0.9169536809204146, 1.166991452286311, 1.4001862424993305, 1.899939726205048, 2.066539190316689, 2.1830196626033285, 2.6160174322467356, 2.7161662401958893, 3.1160689167809323, 3.3327947505677002, 3.432504095508193, 3.599346707764198, 3.6825312812652555, 4.065782800702436, 4.332298830995569, 4.515449690949026, 4.93201571417012, 5.498513364007522, 6.564684624343499, 6.964483690309862, 7.08106199924805, 7.2478455887394375, 7.797509239149804]",2017_Feb_20_1713,60.1164555403,famFaceFilter,001,20,
2,./img/edges5_OmarEpps(DrEricForeman)1_5.png,0,70,70,1,,,1.ja,1.399,None,act,1.105,None,None,None,None,None,Arzt aus dem Team von Dr House,"['lshift', 'a', 'r', 'z', 't', 'space', 'a', 'u', 's', 'space', 'd', 'e', 'm', 'space', 'lshift', 't', 'e', 'a', 'm', 'space', 'c', 'backspace', 'v', 'o', 'n', 'space', 'lshift', 'd', 'r', 'space', 'lshift', 'h', 'o', 'u', 's', 'e', 'return']","[0.5834256366033514, 1.0000359268997272, 1.2333009670401225, 1.6330432556678716, 1.8161883416541968, 2.066086896269553, 2.232924696887494, 2.3821252751840802, 2.8653854234908067, 3.048488808606635, 3.1152785249178123, 3.2818208909156965, 3.3822590387426317, 3.548846954920009, 3.598849825866637, 3.848806120146037, 4.048672933986381, 4.248382888399647, 4.398627271533769, 4.548483836580999, 4.6485838865883125, 5.165018680385401, 5.331583500697889, 5.4648100798040105, 5.714710238298721, 5.864481476954097, 5.914540483681776, 6.114615481092187, 6.2977345842300565, 6.447739989303955, 6.780911972349713, 7.080899045082333, 7.3307485209807055, 7.547215167822287, 7.663917296267755, 7.863811055281985, 8.013834103032423]",2017_Feb_20_1713,60.1164555403,famFaceFilter,001,20,
14,./img/edges5_AngelaMerkel4_1.png,0,71,71,13,,,1.ja,1.4,None,None,None,None,None,polit,0.939,None,Angela Merkel,"['lshift', 'a', 'n', 'g', 'e', 'l', 'a', 'space', 'lshift', 'm', 'e', 'r', 'k', 'e', 'l', 'return']","[0.2334016906825127, 1.1665067598733003, 1.4495478823810117, 1.7497655929983011, 1.88291678976384, 2.132775568166835, 2.266151308074768, 2.41609544495077, 2.482762945634022, 2.6657142829644727, 2.8159660439450818, 2.9160054673047853, 3.165755502672255, 3.2657118450697453, 3.59892424588179, 4.265381766646897]",2017_Feb_20_1713,60.1164555403,famFaceFilter,001,20,
61,./img/gray_AlysonHannigan(Lily)8_3.png,0,0,0,60,,,1.ja,2.81,None,dummy,1.039,None,None,None,None,None,Lilly aus Himym,"['lshift', 'l', 'i', 'l', 'l', 'y', 'space', 'a', 'u', 's', 'space', 'lshift', 'h', 'i', 'm', 'y', 'm', 'return']","[0.8666351664724061, 1.033168550744449, 1.2333272706709977, 1.466563440975733, 1.599704052139714, 1.8997161453917215, 2.0995836007823527, 2.2661147396211163, 2.4821893982916663, 2.632654154480406, 2.8659474229025363, 2.9491239770068205, 3.1991652769065695, 3.5489836054657644, 3.915449562638969, 4.548533556851908, 4.681719718191744, 5.198238555276475]",2017_Feb_20_1713,60.1164555403,famFaceFilter,001,20,
64,./img/gray_LisaEdelstein(DrLisaCuddy)2_2.png,0,1,1,63,,,1.ja,5.18,None,act,1.033,None,None,None,None,None,Klinikleitende Aerztin aus Dr House,"['lshift', 'k', 'l', 'i', 'n', 'i', 'k', 'l', 'e', 'i', 't', 'e', 'n', 'd', 'e', 'space', 'lshift', 'a', 'e', 't', 'backspace', 'r', 'z', 't', 'i', 'n', 'space', 'a', 'u', 's', 'space', 'lshift', 'd', 'r', 'space', 'lshift', 'h', 'o', 'u', 's', 'e', 'return']","[1.7996016604629403, 3.349110376108001, 3.4822391185589368, 3.682191579569917, 3.8821251147965086, 4.082173487808177, 4.281976788013708, 4.498564688154147, 4.664729180120048, 4.765089058622834, 5.164845782164775, 5.314955439414916, 5.414813624378439, 5.581472432037117, 5.7314608359884005, 5.831379647603171, 5.997914314979425, 6.4810474360238, 6.730864192777517, 7.130652031584759, 7.630756444148574, 7.730642857393832, 8.063800726300542, 8.263752545757598, 8.580100794210011, 8.763358151765715, 8.946708855117322, 9.213332345345407, 9.479869226073788, 10.646018962346716, 11.362403971717868, 11.462301932901028, 11.662406441693747, 11.895613421391317, 11.97858788666781, 12.162081976854097, 12.51181946988072, 12.778362445351377, 12.99499172558717, 13.16165181634642, 13.344996745727258, 13.778095239013055]",2017_Feb_20_1713,60.1164555403,famFaceFilter,001,20,
45,./img/gray_NicoleKidman7_1.png,0,2,2,44,,,1.ja,2.949,None,None,None,host,0.622,None,None,None,,['return'],[0.5503199579397915],2017_Feb_20_1713,60.1164555403,famFaceFilter,001,20,
52,./img/gray_EmilyDeschanel5_1.png,0,3,3,51,,,1.ja,4.754,None,act,1.466,None,None,None,None,None,,['return'],[0.8167128102832066],2017_Feb_20_1713,60.1164555403,famFaceFilter,001,20,
26,./img/gray_BarackObama1_3.png,0,4,4,25,,,1.ja,1.022,None,None,None,None,None,polit,0.623,None,Barak Obama,"['lshift', 'b', 'a', 'r', 'a', 'k', 'space', 'lshift', 'o', 'b', 'a', 'm', 'a', 'return']","[0.4334985008536023, 0.6501422159999493, 0.7831660647279932, 1.0666280452460342, 1.2831043153637438, 1.4164479776809458, 1.5497383911970246, 1.6329434943581873, 1.7996141707226343, 2.1328390817980107, 2.265971352782799, 2.415963285267935, 2.4660354438128707, 2.765586261295539]",2017_Feb_20_1713,60.1164555403,famFaceFilter,001,20,
57,./img/gray_UrsulavonderLeyen5_1.png,0,5,5,56,,,1.ja,1.272,None,None,None,None,None,polit,0.955,None,Ursular von der Leyen,"['lshift', 'u', 'r', 's', 'u', 'a', 'backspace', 'l', 'a', 'r', 'space', 'v', 'o', 'n', 'space', 'd', 'e', 'r', 'space', 'lshift', 'l', 'e', 'y', 'e', 'n', 'return']","[0.2170055503884214, 0.6335334012765088, 0.8834367675299291, 1.416474281311821, 1.566405266370566, 1.949796964883717, 2.7826406337771914, 3.482478096619161, 3.5824771022162167, 3.8322851980228734, 3.9823246053420007, 4.182104168132355, 4.3320925720836385, 4.515018247340777, 4.698738163770031, 4.748341027145216, 4.965042802738026, 5.048472769816726, 5.165186766967963, 5.331655996058544, 5.498249044649128, 5.881500564086309, 6.164759493443853, 6.414721240915242, 6.697766533514368, 7.24759089266081]",2017_Feb_20_1713,60.1164555403,famFaceFilter,001,20,
34,./img/gray_RobertSeanLeonard(Wilson)2_6.png,0,6,6,33,,,1.ja,1.316,None,act,3.404,None,None,None,None,None,Wilson aus Dr House,"['lshift', 'w', 'i', 'l', 's', 'o', 'n', 'space', 'a', 'u', 's', 'space', 'lshift', 'd', 'r', 'space', 'lshift', 'h', 'o', 'u', 's', 'e', 'return']","[0.4501762824038451, 0.7666845980384096, 0.9334062777743384, 1.149989687051857, 1.2999065579715534, 1.7829838640063826, 1.9995611785416258, 2.1827537393619423, 2.5157621266916976, 2.7156494701885094, 2.915471054624504, 3.165782768621284, 4.531667479830503, 4.731857315022353, 4.9313889180230035, 5.031683358240116, 5.21492980941548, 5.48147214333585, 5.76480485115826, 5.981249364460382, 6.081287183940731, 6.2478513627029315, 6.380998710159474]",2017_Feb_20_1713,60.1164555403,famFaceFilter,001,20,
17,./img/gray_JasonSegel(Marshall)6_1.png,0,7,7,16,,,1.ja,1.415,None,act,0.805,None,None,None,None,None,Sportlehrer aus Bad Teacher,"['lshift', 'period', 'period', 'period', 'lshift', 'lshift', 'lshift', 's', 'p', 'o', 'r', 't', 'l', 'e', 'h', 'r', 'e', 'r', 'space', 'a', 'u', 's', 'space', 'lshift', 'b', 'a', 'd', 'space', 'lshift', 't', 'e', 'a', 'c', 'h', 'e', 'r', 'return']","[0.3168380732786318, 5.098042914043617, 5.298192331465543, 5.481700535790878, 6.647693412640365, 11.51235805264514, 11.59551086933061, 13.494988998987537, 13.728296381552354, 13.92808909615269, 14.561042534565786, 14.760785849673994, 14.894353734358447, 15.02771311469769, 15.22741601204325, 15.444179055833956, 15.577401144077157, 15.710646007413743, 15.94375771666455, 16.160508250195562, 16.29373996171853, 16.726879835096042, 16.87685861576756, 17.01010829074221, 17.176501495938282, 17.276615660088282, 17.50966128949949, 17.69326829280908, 18.092884516499907, 18.2427545541359, 18.426235171729786, 18.609441205142502, 18.842600068452157, 19.025991510345193, 19.07575893176545, 19.19238311166191, 19.45912817596036]",2017_Feb_20_1713,60.1164555403,famFaceFilter,001,20,
38,./img/gray_MariskaHargitay(Liv)4_4.png,0,8,8,37,,,2.nein,4.277,None,None,None,music,0.5,None,None,None,,['return'],[0.5002102686157741],2017_Feb_20_1713,60.1164555403,famFaceFilter,001,20,
15,./img/gray_GeorgeClooney11_1.png,0,9,9,14,,,1.ja,1.123,None,act,1.689,None,None,None,None,None,George Clooney,"['lshift', 'g', 'e', 'o', 'r', 'g', 'e', 'space', 'lshift', 'c', 'l', 'o', 'o', 'n', 'e', 'y', 'return']","[1.049969189472904, 1.299909124183614, 1.5164838725104346, 2.599517681330326, 3.06586363623137, 3.2491306170668395, 3.365894334488985, 3.5489970780508884, 3.6988546054271865, 3.932019563482754, 4.232190120037558, 4.531960348245775, 4.665158057523513, 4.865164729661046, 4.998484013009147, 5.281698675291409, 5.448293969315273]",2017_Feb_20_1713,60.1164555403,famFaceFilter,001,20,
4,./img/gray_AngelaMerkel1_1.png,0,10,10,3,,,1.ja,1.794,None,None,None,None,None,polit,0.739,None,Angela Merkel,"['lshift', 'a', 'n', 'g', 'e', 'l', 'a', 'space', 'lshift', 'm', 'e', 'r', 'k', 'e', 'l', 'return']","[0.2667726510298962, 0.7668600624674582, 0.9002858434214431, 1.4332916003877472, 1.5832944392532227, 1.683233138974174, 1.8827329851628747, 2.0496673393354286, 2.1495749237910786, 2.2827803316904465, 2.532805913568154, 2.6493277659465093, 2.982620681515982, 3.3992518222476065, 3.7823692573510925, 5.498351372167235]",2017_Feb_20_1713,60.1164555403,famFaceFilter,001,20,
59,./img/gray_AlysonHannigan(Lily)5_4.png,0,11,11,58,,,1.ja,1.893,None,dummy,0.723,None,None,None,None,None,Lilly aus Himym,"['lshift', 'l', 'i', 'l', 'l', 'y', 'space', 'a', 'u', 's', 'space', 'lshift', 'h', 'i', 'm', 'y', 'm', 'return']","[0.46688389611881576, 0.8670162482630985, 1.1000111950779683, 1.3832511986583995, 1.5331642202691, 1.6165556942360126, 1.7830069598749105, 1.966436253322172, 2.1661670581743238, 2.33298015904802, 2.499519317287195, 2.815847356854647, 3.449318206821772, 3.7490351862288662, 4.032474070878379, 4.648681081693212, 4.765157063116931, 5.1651861254140385]",2017_Feb_20_1713,60.1164555403,famFaceFilter,001,20,
68,./img/gray_Ice-T(OdafinFinTutuola)7_1.png,0,12,12,67,,,2.nein,1.747,None,None,None,None,None,sport,1.788,None,,['return'],[1.1668054022484284],2017_Feb_20_1713,60.1164555403,famFaceFilter,001,20,
9,./img/gray_RobertSeanLeonard(Wilson)8_1.png,0,13,13,8,,,1.ja,1.739,None,act,0.823,None,None,None,None,None,Wilson aus Dr House,"['lshift', 'w', 'i', 'l', 's', 'o', 'n', 'space', 'a', 'u', 's', 'space', 'lshift', 'd', 'r', 'space', 'lshift', 'h', 'o', 'u', 's', 'e', 'return']","[0.6168896219678572, 0.8667400601952977, 1.0333741681060928, 1.2331534101213038, 1.5999574651141302, 1.833115686873498, 1.9995916522566404, 2.182786458510236, 2.2494475436760695, 2.449243786810257, 2.582729552861565, 2.782365087263315, 2.9658521203782584, 3.549023702453269, 3.7821864150755573, 4.231991880518763, 4.415267843080073, 4.665076259661873, 4.965148338011204, 5.148270969682926, 5.231734939010494, 5.481647928540042, 5.598020299341442]",2017_Feb_20_1713,60.1164555403,famFaceFilter,001,20,
