num,pic,trials.thisRepN,trials.thisTrialN,trials.thisN,trials.thisIndex,key_resp_2.keys,key_resp_2.rt,ratingBekannt.response,ratingBekannt.rt,key_resp_5.keys,ratingK1.response,ratingK1.rt,ratingK2.response,ratingK2.rt,ratingK3.response,ratingK3.rt,key_resp_6.keys,inputText,key_resp_4.keys,key_resp_4.rt,date,frameRate,expName,session,participant,
,,,,,,space,19.1070390747,,,,,,,,,,,,,,2017_Feb_22_1111,60.0069873115,famFaceFilter,001,21,
7,./img/smoo15_LisaEdelstein(DrLisaCuddy)2_2.png,0,0,0,6,,,2.nein,11.406,None,dummy,4.598,None,None,None,None,None,,['return'],[1.1996124385332223],2017_Feb_22_1111,60.0069873115,famFaceFilter,001,21,
14,./img/smoo15_BritneySpears7_1.png,0,1,1,13,,,1.ja,1.679,None,None,None,music,1.607,None,None,None,Breatny Speers,"['lshift', 'b', 'r', 'e', 'a', 't', 'n', 'y', 'space', 'lshift', 's', 'p', 'e', 'e', 'r', 's', 'return']","[6.314460482186405, 6.6643025481607765, 8.246999381866772, 8.4802647428005, 8.663346635934431, 9.612808069185121, 10.079618507617852, 10.262931038654642, 10.496144754637498, 11.262557976238895, 11.495809864572948, 12.345306294504553, 12.795223389955936, 12.978584678930929, 13.34493740220205, 13.512899522407679, 14.244463648239616]",2017_Feb_22_1111,60.0069873115,famFaceFilter,001,21,
71,./img/smoo15_AngelaMerkel1_1.png,0,2,2,70,,,1.ja,1.785,None,None,None,None,None,polit,2.074,None,Angela Merkel,"['lshift', 'a', 'n', 'g', 'e', 'l', 'a', 'space', 'lshift', 'm', 'e', 'r', 'k', 'e', 'l', 'return']","[0.9001158321916591, 1.299995092122117, 2.1164759814273566, 2.549648894724669, 2.7828138527693227, 3.149349097540835, 3.349207571212901, 3.615776529535651, 4.248684096994111, 4.665303369023604, 5.14846503912122, 5.38160016501206, 5.948045207594987, 6.11446407486801, 6.3148348276736215, 6.864228384773014]",2017_Feb_22_1111,60.0069873115,famFaceFilter,001,21,
22,./img/smoo15_WillSmith1_1.png,0,3,3,21,,,1.ja,1.586,None,None,None,music,1.34,None,None,None,Will Smith,"['lshift', 'w', 'i', 'l', 'l', 'space', 'lshift', 's', 'm', 'i', 't', 'h', 'return']","[0.7668029643537011, 1.2165285565715749, 1.8828657863778062, 2.1995081863424275, 2.3160338880261406, 2.6326884774898645, 2.832448152184952, 3.165728557476541, 3.7986848828732036, 4.132096164743416, 4.531937252380885, 4.865149653167464, 5.3816078636155]",2017_Feb_22_1111,60.0069873115,famFaceFilter,001,21,
39,./img/smoo15_BarackObama2_1.png,0,4,4,38,,,1.ja,1.866,None,None,None,None,None,polit,1.175,None,Barak Obama,"['lshift', 'b', 'a', 'r', 'a', 'k', 'space', 'lshift', 'o', 'b', 'a', 'm', 'a', 'return']","[0.7333248648501467, 1.1331945015117526, 1.4330494145688135, 1.6164180813648272, 1.7830823422118556, 2.232761421939358, 2.466072653827723, 2.732582910131896, 2.965818759665126, 3.665655580960447, 3.8653709885838907, 4.165453973313561, 4.29875176466885, 4.715253632690292]",2017_Feb_22_1111,60.0069873115,famFaceFilter,001,21,
5,./img/smoo15_BarackObama1_3.png,0,5,5,4,,,1.ja,1.499,None,None,None,None,None,polit,1.124,None,Barak Obama,"['lshift', 'b', 'a', 'r', 'a', 'k', 'space', 'lshift', 'o', 'b', 'a', 'm', 'a', 'return']","[0.9666771560441703, 1.2995575537788682, 1.5997832838038448, 1.8162868198705837, 1.9828898125269916, 2.4326651250303257, 2.6827362570911646, 3.448952843056759, 3.716963047598256, 4.3819440368097275, 4.565280626004096, 4.94850070940447, 5.081740119552705, 5.6148174095433205]",2017_Feb_22_1111,60.0069873115,famFaceFilter,001,21,
57,./img/smoo15_UrsulavonderLeyen5_1.png,0,6,6,56,,,1.ja,3.534,None,None,None,None,None,polit,1.874,None,van Davart,"['v', 'a', 'n', 'space', 'd', 'backspace', 'lshift', 'd', 'a', 'v', 'a', 'r', 't', 'return']","[1.3499883398180827, 1.533210732799489, 2.0496984546189196, 2.316334775881842, 2.915875873848563, 3.88221268664347, 4.648421253223205, 5.2817176010867115, 5.531673253804911, 5.797935550363036, 5.931443770707119, 6.181392045604298, 6.3812444245268125, 7.080795434478205]",2017_Feb_22_1111,60.0069873115,famFaceFilter,001,21,
67,./img/smoo15_GeorgeClooney4_2.png,0,7,7,66,,,1.ja,1.951,None,dummy,0.758,None,None,None,None,None,Georg Clooni,"['lshift', 'g', 'e', 'o', 'r', 'g', 'space', 'lshift', 'c', 'l', 'o', 'o', 'n', 'i', 'return']","[1.0997471964801662, 1.7996087175270077, 2.2991755096591078, 3.315674939774908, 3.8653931221051607, 4.132094240107108, 4.465247618150897, 4.715131417062366, 5.2483344512293115, 5.931069745973218, 6.231274625548394, 6.364586210285779, 7.747227934683906, 8.446607008751016, 9.263321422913577]",2017_Feb_22_1111,60.0069873115,famFaceFilter,001,21,
48,./img/smoo15_JoshRadnor(Ted)6_2.png,0,8,8,47,,,1.ja,2.248,None,dummy,1.08,None,None,None,None,None,Ted Mosby,"['lshift', 't', 'e', 'd', 'space', 'lshift', 'm', 'o', 's', 'b', 'y', 'return']","[0.8500337295990903, 1.166601067990996, 1.566498932952527, 1.749724854453234, 2.4162750794785097, 2.7159840394742787, 2.949360388854984, 3.2657246761082206, 5.148304971924517, 6.447815692430595, 6.614311225130223, 7.064062800229294]",2017_Feb_22_1111,60.0069873115,famFaceFilter,001,21,
27,./img/smoo15_JasonSegel(Marshall)9_1.png,0,9,9,26,,,1.ja,2.167,None,dummy,1.074,None,None,None,None,None,Murshel,"['lshift', 'm', 'u', 'r', 's', 'h', 'e', 'l', 'return']","[0.9666633626620751, 1.3665188851882704, 1.916450704273302, 2.3995058767613955, 2.8658810222987086, 3.09913066518493, 3.3156925824587233, 3.5988764502690174, 5.081691361585399]",2017_Feb_22_1111,60.0069873115,famFaceFilter,001,21,
10,./img/smoo15_KatjaBurkard5_3.png,0,10,10,9,,,1.ja,2.734,None,None,None,host,1.24,None,None,None,Punkt 12,"['lshift', 'p', 'u', 'n', 'k', 't', 'space', '1', '2', 'return']","[0.8667692508315668, 1.3997618559806142, 1.8663512798084412, 2.4995324691117276, 2.715951641119318, 3.148870179109508, 3.4489765804901253, 3.7989277102751657, 3.982135668338742, 4.631913162127603]",2017_Feb_22_1111,60.0069873115,famFaceFilter,001,21,
41,./img/smoo15_AngelaMerkel3_1.png,0,11,11,40,,,1.ja,1.833,None,None,None,None,None,polit,1.424,None,Angela Merkel,"['lshift', 'a', 'n', 'g', 'e', 'l', 'a', 'space', 'lshift', 'm', 'e', 'r', 'k', 'e', 'l', 'return']","[2.6825845300627407, 3.049181043053977, 3.9651284498977475, 4.481680647673784, 4.731759157584747, 5.131640021427302, 5.3482381863868795, 5.564548294583801, 6.0978943947993685, 6.380708407959901, 6.930783293093555, 7.197419935138896, 7.764017346285982, 7.9304256279428955, 8.096926934609655, 8.680215599917574]",2017_Feb_22_1111,60.0069873115,famFaceFilter,001,21,
54,./img/smoo15_LisaEdelstein(DrLisaCuddy)6_3.png,0,12,12,53,,,2.nein,1.668,None,dummy,0.708,None,None,None,None,None,,['return'],[1.0668314171780366],2017_Feb_22_1111,60.0069873115,famFaceFilter,001,21,
17,./img/smoo15_GeorgeClooney11_1.png,0,13,13,16,,,1.ja,1.607,None,dummy,0.841,None,None,None,None,None,Georg Clooni,"['lshift', 'g', 'e', 'o', 'r', 'g', 'space', 'lshift', 'c', 'l', 'o', 'o', 'n', 'i', 'return']","[0.8333883463928942, 1.316509598720586, 1.8329960374394432, 2.4825066456687637, 2.898855503590312, 3.1491768408741336, 3.4990994216059335, 3.7155721631716006, 4.2987065352499485, 4.881764241872588, 5.248230199038517, 5.364686933928169, 5.714819943648763, 7.064150051272009, 7.614088606642326]",2017_Feb_22_1111,60.0069873115,famFaceFilter,001,21,
31,./img/smoo15_BritneySpears1_1.png,0,14,14,30,,,1.ja,1.418,None,None,None,music,0.957,None,None,None,Breatny Speers,"['lshift', 'b', 'r', 'e', 'a', 't', 'n', 'y', 'space', 'lshift', 's', 'p', 'e', 'e', 'r', 's', 'return']","[0.7668411367048975, 1.250001844484359, 1.5831516939797439, 1.8664587397361174, 2.033024522359483, 2.5326670176000334, 3.365974849264603, 4.448766151472228, 4.732059724628925, 5.131674023665255, 5.298370682896348, 6.048058006563224, 6.481662684236653, 6.681165417423472, 6.93101040244801, 7.097706099331845, 7.5973781059728935]",2017_Feb_22_1111,60.0069873115,famFaceFilter,001,21,
52,./img/smoo15_BastianSchweinsteiger3_1.png,0,15,15,51,,,1.ja,1.718,None,None,None,None,None,sport,1.074,None,Sebastian Schweinsteiger,"['lshift', 's', 'e', 'b', 'a', 's', 't', 'i', 'a', 'n', 'space', 'lshift', 's', 'c', 'h', 'w', 'e', 'i', 'n', 's', 't', 'e', 'i', 'g', 'e', 'r', 'return']","[0.8333533818367869, 1.2165981649886817, 1.4331017010554206, 2.0493715839402284, 2.2160682431713212, 2.5825277848052792, 2.882459042535629, 3.348712293198332, 3.64886937715346, 3.9321696866245475, 4.148529515077826, 4.481816015118966, 4.648579074972076, 5.081624960992485, 5.414760375599144, 5.714698048832361, 6.014550074905856, 6.147799749858677, 6.480763870116789, 6.914205593639053, 7.263925443985499, 7.414039271330694, 7.847117234952748, 8.646920984232565, 8.863574001879897, 9.079999268637039, 9.696315343258902]",2017_Feb_22_1111,60.0069873115,famFaceFilter,001,21,
42,./img/smoo15_OmarEpps(DrEricForeman)1_5.png,0,16,16,41,,,1.ja,1.802,None,act,0.624,None,None,None,None,None,,['return'],[0.733436174079543],2017_Feb_22_1111,60.0069873115,famFaceFilter,001,21,
45,./img/smoo15_RobertSeanLeonard(Wilson)2_6.png,0,17,17,44,,,2.nein,3.107,None,dummy,1.441,None,None,None,None,None,,['return'],[0.9165867132833228],2017_Feb_22_1111,60.0069873115,famFaceFilter,001,21,
28,./img/smoo15_HughLaurie(DrHouse)5_3.png,0,18,18,27,,,1.ja,1.457,None,dummy,0.724,None,None,None,None,None,Arzt,"['lshift', 'a', 'r', 'z', 't', 'return']","[0.949956390511943, 2.3327649184211623, 3.2325291801826097, 3.632309320382774, 3.8322059663769323, 4.91509959610994]",2017_Feb_22_1111,60.0069873115,famFaceFilter,001,21,
1,./img/smoo15_Ice-T(OdafinFinTutuola)6_1.png,0,19,19,0,,,1.ja,1.945,None,dummy,0.858,None,None,None,None,None,,['return'],[0.6667510307161137],2017_Feb_22_1111,60.0069873115,famFaceFilter,001,21,
43,./img/smoo15_JoachimLoew1_1.png,0,20,20,42,,,1.ja,1.941,None,None,None,None,None,sport,1.007,None,Löwi,"['lshift', 'l', u'\xf6', 'w', 'i', 'return']","[0.7999019067210611, 2.0826937863603234, 2.2993634843442123, 2.9658938212669455, 3.248956435767468, 3.882170985772973]",2017_Feb_22_1111,60.0069873115,famFaceFilter,001,21,
70,./img/smoo15_JasonSegel(Marshall)7_1.png,0,21,21,69,,,1.ja,2.24,None,dummy,0.99,None,None,None,None,None,Murshel,"['lshift', 'm', 'u', 'r', 's', 'h', 'e', 'l', 'return']","[0.7997832196415402, 1.1998510958219413, 1.5997560178511776, 2.132957127352711, 2.5327116054540966, 2.8991826950514223, 3.099239087459864, 3.3657705149962567, 4.048688010458136]",2017_Feb_22_1111,60.0069873115,famFaceFilter,001,21,
58,./img/smoo15_EmilyDeschanel3_1.png,0,22,22,57,,,2.nein,3.067,None,dummy,0.924,None,None,None,None,None,,['return'],[0.6998974479502067],2017_Feb_22_1111,60.0069873115,famFaceFilter,001,21,
53,./img/smoo15_GuentherJauch4_1.png,0,23,23,52,,,1.ja,1.708,None,None,None,host,1.457,None,None,None,wer wird Millioner,"['w', 'e', 'r', 'space', 'w', 'i', 'r', 'd', 'space', 'lshift', 'm', 'i', 'l', 'l', 'i', 'o', 'n', 'e', 'r', 'return']","[0.9667143660481088, 1.233229113247944, 1.5164720038010273, 1.7998085609287955, 2.0163239657122176, 2.3492768588184845, 2.732619799382519, 2.915930084971478, 3.3157945892307907, 3.582065867492929, 3.8319249666819815, 4.298703648295486, 4.765068208187586, 4.8983480361057445, 5.164988527452806, 5.331430169811938, 5.714743919786997, 6.081130003760336, 6.347764079575427, 6.964236051309854]",2017_Feb_22_1111,60.0069873115,famFaceFilter,001,21,
9,./img/smoo15_EmilyDeschanel6_12.png,0,24,24,8,,,2.nein,3.5,None,dummy,1.108,None,None,None,None,None,,['return'],[0.8826319407380652],2017_Feb_22_1111,60.0069873115,famFaceFilter,001,21,
37,./img/smoo15_Ice-T(OdafinFinTutuola)5_1.png,0,25,25,36,,,1.ja,1.475,None,dummy,1.191,None,None,None,None,None,,['return'],[0.7663522741931956],2017_Feb_22_1111,60.0069873115,famFaceFilter,001,21,
40,./img/smoo15_NeilPatrickHarris(Barney)2_2.png,0,26,26,39,,,1.ja,2.241,None,act,1.058,None,None,None,None,None,Steven,"['lshift', 's', 't', 'e', 'v', 'e', 'n', 'return']","[0.8334938816842623, 1.1334825583035126, 1.916146287927404, 2.099692985386355, 2.3995308972953353, 2.499469276255695, 2.949122693913523, 3.515590511582559]",2017_Feb_22_1111,60.0069873115,famFaceFilter,001,21,
60,./img/smoo15_LeonardoDiCaprio2_1.png,0,27,27,59,,,1.ja,1.641,None,act,0.625,None,None,None,None,None,Leonardo,"['lshift', 'l', 'e', 'o', 'n', 'a', 'r', 'd', 'o', 'return']","[0.8167567565687932, 1.2998885945125949, 1.7664924532582518, 1.999364222137956, 2.4161663364211563, 2.682841792353429, 3.0325590764987282, 3.24916878939257, 3.8323159925057553, 4.798365390073741]",2017_Feb_22_1111,60.0069873115,famFaceFilter,001,21,
2,./img/smoo15_WillSmith5_1.png,0,28,28,1,,,1.ja,2.105,None,act,1.24,None,None,None,None,None,Will Smith,"['lshift', 'w', 'i', 'l', 'l', 'space', 'lshift', 's', 'm', 'i', 't', 'h', 'return']","[1.000089817243861, 1.416327365936013, 2.0330347871640697, 2.3661086127976887, 2.4828030426288024, 3.2990186502283905, 3.5321829667373095, 3.8489110138616525, 4.498499570647255, 4.83164909936022, 6.314370985695859, 6.497701800923096, 7.014212297828635]",2017_Feb_22_1111,60.0069873115,famFaceFilter,001,21,
18,./img/smoo15_HughLaurie(DrHouse)4_1.png,0,29,29,17,,,1.ja,1.736,None,act,1.023,None,None,None,None,None,Arzt,"['lshift', 'a', 'r', 'z', 't', 'return']","[0.8166996584914159, 1.250014354736777, 2.2829458520864137, 3.232357565080747, 3.4159260752785485, 3.9655537987709977]",2017_Feb_22_1111,60.0069873115,famFaceFilter,001,21,
24,./img/smoo15_BastianSchweinsteiger1_1.png,0,30,30,23,,,1.ja,1.508,None,None,None,None,None,sport,1.506,None,Sebastian Schweisteiger,"['lshift', 's', 'e', 'b', 'a', 's', 't', 'i', 'o', 'backspace', 'a', 'n', 'space', 'lshift', 's', 'c', 'h', 'w', 'e', 'i', 's', 't', 'e', 'i', 'g', 'e', 'r', 'return']","[0.9001126244256739, 1.200020786258392, 1.4164864707854576, 2.032850661809789, 2.2492695130349603, 2.8159038134035654, 3.0487435046816245, 3.5483253732672893, 3.764963314461056, 4.3998956195137, 4.798347747389926, 5.098206509748707, 5.3315417998237535, 5.8476840459916275, 6.014127292204648, 6.514274688757723, 6.830535365385003, 7.0969359163427725, 7.396832530270331, 7.56388910007081, 8.113669833692256, 8.396899572428083, 8.54696752881864, 8.863335665373597, 9.21332496748073, 9.379889146250207, 9.59637536041555, 10.662428896001074]",2017_Feb_22_1111,60.0069873115,famFaceFilter,001,21,
33,./img/smoo15_Ice-T(OdafinFinTutuola)7_1.png,0,31,31,32,,,1.ja,3.234,None,act,1.241,None,None,None,None,None,,['return'],[0.6835863132728264],2017_Feb_22_1111,60.0069873115,famFaceFilter,001,21,
26,./img/smoo15_TomCruise4_1.png,0,32,32,25,,,1.ja,1.808,None,dummy,0.642,None,None,None,None,None,Tom Crueso,"['lshift', 't', 'o', 'm', 'space', 'lshift', 'c', 'r', 'u', 'e', 's', 'o', 'return']","[0.8667747039871756, 1.2832756096904632, 1.7664090515172575, 2.0329661411233246, 2.2994638872041833, 2.4826513156003784, 2.815986573608825, 3.2157368816260714, 3.7988539318030234, 4.015464927797439, 4.43191611324437, 5.89780015082215, 7.930466366466135]",2017_Feb_22_1111,60.0069873115,famFaceFilter,001,21,
21,./img/smoo15_NeilPatrickHarris(Barney)3_7.png,0,33,33,20,,,1.ja,1.751,None,act,0.708,None,None,None,None,None,Steven,"['lshift', 's', 't', 'e', 'v', 'e', 'n', 'return']","[0.733209064725088, 1.0497244374419097, 1.7830153000541031, 1.9329462850873824, 2.2491941306798253, 2.366068515810184, 2.732510414789431, 3.349104281369364]",2017_Feb_22_1111,60.0069873115,famFaceFilter,001,21,
61,./img/smoo15_OmarEpps(DrEricForeman)3_1.png,0,34,34,60,,,1.ja,1.873,None,dummy,0.625,None,None,None,None,None,,['return'],[0.7502076222153846],2017_Feb_22_1111,60.0069873115,famFaceFilter,001,21,
4,./img/smoo15_UrsulavonderLeyen1_1.png,0,35,35,3,,,1.ja,1.824,None,None,None,None,None,polit,1.641,None,van Davart,"['v', 'a', 'n', 'space', 'lshift', 'd', 'a', 'v', 'a', 'r', 't', 'return']","[1.1997080297733191, 1.3499184106476605, 1.566638149699429, 1.799775200226577, 2.3161673308350146, 2.5494230684707873, 2.849441256461432, 3.282547127600992, 3.5157784862676635, 3.798984808381647, 3.9989571574842557, 4.598593205126235]",2017_Feb_22_1111,60.0069873115,famFaceFilter,001,21,
12,./img/smoo15_MariskaHargitay(Liv)8_8.png,0,36,36,11,,,2.nein,2.15,None,dummy,1.091,None,None,None,None,None,,['return'],[0.750219490902964],2017_Feb_22_1111,60.0069873115,famFaceFilter,001,21,
69,./img/smoo15_BritneySpears5_1.png,0,37,37,68,,,1.ja,1.757,None,None,None,music,1.024,None,None,None,Breatny Speers,"['lshift', 'b', 'r', 'e', 'a', 't', 'n', 'y', 'space', 'lshift', 's', 'p', 'e', 'e', 'r', 's', 'return']","[0.7500834819220472, 1.183278207987314, 1.5332505090045743, 1.766363180562621, 1.9497401875560172, 2.999308086349629, 4.73192307408317, 4.881809150509071, 5.098320385208353, 5.831307152257068, 6.03096032931353, 6.76385695830686, 7.147503994463477, 7.33072125504259, 7.697216723579913, 7.830602407542756, 8.3636697534821]",2017_Feb_22_1111,60.0069873115,famFaceFilter,001,21,
11,./img/smoo15_LeonardoDiCaprio3_1.png,0,38,38,10,,,1.ja,2.083,None,dummy,0.592,None,None,None,None,None,Leonardo,"['lshift', 'l', 'e', 'o', 'n', 'a', 'r', 'd', 'o', 'return']","[0.7500918221194297, 1.2331890162604395, 1.7830323011730798, 1.9329376241657883, 2.3993714716634713, 2.682600248081144, 3.0158341408823617, 3.665528232930228, 3.99869380047312, 4.648435688111931]",2017_Feb_22_1111,60.0069873115,famFaceFilter,001,21,
30,./img/smoo15_KatjaBurkard4_1.png,0,39,39,29,,,1.ja,2.097,None,None,None,host,0.957,None,None,None,Punkt 12,"['lshift', 'p', 'u', 'n', 'k', 't', 'space', '1', '2', 'return']","[0.916758969950024, 1.3165381478029303, 2.3995254441106226, 2.8159317209210712, 3.032324268540833, 3.5156055880652275, 3.8154791061242577, 4.382073309505358, 4.631977958866628, 5.148269045050256]",2017_Feb_22_1111,60.0069873115,famFaceFilter,001,21,
47,./img/smoo15_BarackObama4_1.png,0,40,40,46,,,1.ja,1.55,None,None,None,None,None,polit,1.058,None,Barak Obama,"['lshift', 'b', 'a', 'r', 'a', 'k', 'space', 'lshift', 'o', 'b', 'a', 'm', 'a', 'return']","[0.7167208617320284, 1.0666636513487902, 1.3665461511409376, 1.5662144046800677, 1.7328793070919346, 2.166221269289963, 2.4326397837139666, 2.715729984920472, 2.932522860879544, 3.3823883114382625, 3.565593382518273, 3.915484527213266, 4.06515600453713, 4.448432223725831]",2017_Feb_22_1111,60.0069873115,famFaceFilter,001,21,
8,./img/smoo15_AngelaMerkel4_1.png,0,41,41,7,,,1.ja,1.364,None,None,None,None,None,polit,1.074,None,Angela Merkel,"['lshift', 'a', 'n', 'g', 'e', 'l', 'a', 'space', 'lshift', 'm', 'e', 'r', 'k', 'e', 'l', 'return']","[0.6333621069497894, 1.016830791690154, 1.9162675412371755, 2.4161384289327543, 2.7327227684727404, 3.115761292690877, 3.3323504759464413, 3.5322978045151103, 3.7987807948957197, 3.998797090316657, 4.481989234132925, 4.731823954352876, 5.2316521788307, 6.281117108563194, 6.514455606404226, 8.197060666105244]",2017_Feb_22_1111,60.0069873115,famFaceFilter,001,21,
25,./img/smoo15_JasonSegel(Marshall)6_1.png,0,42,42,24,,,1.ja,2.783,None,dummy,1.041,None,None,None,None,None,Murshel,"['lshift', 'm', 'u', 'r', 's', 'h', 'e', 'l', 'return']","[0.9168542403785978, 1.3333484097965993, 1.8998714009358082, 2.4161377873679157, 2.9826530798745807, 3.1662604039593134, 3.39893617873895, 3.7324417687486857, 4.332131385977846]",2017_Feb_22_1111,60.0069873115,famFaceFilter,001,21,
63,./img/smoo15_RobertSeanLeonard(Wilson)8_1.png,0,43,43,62,,,1.ja,3.533,None,act,0.858,None,None,None,None,None,,['return'],[0.7001364259922411],2017_Feb_22_1111,60.0069873115,famFaceFilter,001,21,
35,./img/smoo15_KatjaBurkard1_1.png,0,44,44,34,,,2.nein,8.122,None,None,None,host,1.101,None,None,None,,['return'],[1.0667893955251202],2017_Feb_22_1111,60.0069873115,famFaceFilter,001,21,
72,./img/smoo15_HughLaurie(DrHouse)2_1.png,0,45,45,71,,,1.ja,1.974,None,dummy,0.624,None,None,None,None,None,Arzt,"['lshift', 'a', 'r', 'z', 't', 'return']","[1.1328281754394993, 1.5165884454618208, 2.615926973434398, 3.4490519628161564, 3.6490041030629072, 4.1653657599235885]",2017_Feb_22_1111,60.0069873115,famFaceFilter,001,21,
55,./img/smoo15_MariskaHargitay(Liv)4_4.png,0,46,46,54,,,2.nein,1.717,None,dummy,0.891,None,None,None,None,None,,['return'],[0.7503009680076502],2017_Feb_22_1111,60.0069873115,famFaceFilter,001,21,
13,./img/smoo15_GeorgeClooney3_1.png,0,47,47,12,,,1.ja,1.69,None,act,0.559,None,None,None,None,None,Georg Clooni,"['lshift', 'g', 'e', 'o', 'r', 'g', 'space', 'lshift', 'c', 'l', 'o', 'o', 'n', 'i', 'return']","[0.8834938656364102, 1.4329945618810598, 1.8995095657010097, 2.416148693737341, 3.3158375731727574, 3.515558754763333, 3.865231771807885, 4.099786972714355, 4.4819228334818035, 5.081427683791844, 5.448239758174168, 5.581611969566438, 6.048054478014819, 6.6807310867880005, 7.2141920248104725]",2017_Feb_22_1111,60.0069873115,famFaceFilter,001,21,
20,./img/smoo15_NicoleKidman5_1.png,0,48,48,19,,,1.ja,2.816,None,act,1.691,None,None,None,None,None,Nickole Kidmann,"['lshift', 'n', 'i', 'c', 'k', 'o', 'l', 'e', 'space', 'lshift', 'k', 'i', 'n', 'backspace', 'd', 'm', 'a', 'n', 'n', 'return']","[0.8500609955226537, 1.166666827048175, 1.6331292235990986, 2.5494339748402126, 2.7827227523957845, 3.0159666213439777, 3.265783057315275, 3.532361959689297, 3.7989575424289797, 4.331832102034241, 4.598390795523301, 4.865018776617944, 6.731208706100006, 7.713991058699321, 8.197097876109183, 8.880151701334398, 9.029979075770825, 9.246642999816686, 9.379949772905093, 9.779712911957176]",2017_Feb_22_1111,60.0069873115,famFaceFilter,001,21,
50,./img/smoo15_OmarEpps(DrEricForeman)2_2.png,0,49,49,49,,,1.ja,2.068,None,dummy,0.708,None,None,None,None,None,,['return'],[0.7167186163424049],2017_Feb_22_1111,60.0069873115,famFaceFilter,001,21,
32,./img/smoo15_TomCruise1_1.png,0,50,50,31,,,1.ja,1.808,None,dummy,0.675,None,None,None,None,None,Tom Crueso,"['lshift', 't', 'o', 'm', 'space', 'lshift', 'c', 'r', 'u', 'e', 's', 'o', 'return']","[1.0000728161248844, 1.3832508778723422, 1.8828208777704276, 2.182889748364687, 2.432850854267599, 2.61596161723719, 3.0323255516414065, 3.715606807003496, 4.165381477941992, 4.348351420281688, 4.981763889052672, 5.214865975023713, 7.830670732830185]",2017_Feb_22_1111,60.0069873115,famFaceFilter,001,21,
34,./img/smoo15_EmilyDeschanel5_1.png,0,51,51,33,,,2.nein,2.899,None,dummy,0.725,None,None,None,None,None,,['return'],[0.70025992472074],2017_Feb_22_1111,60.0069873115,famFaceFilter,001,21,
19,./img/smoo15_NicoleKidman7_1.png,0,52,52,18,,,1.ja,1.758,None,dummy,0.941,None,None,None,None,None,Nickole Kidmann,"['lshift', 'n', 'i', 'c', 'k', 'o', 'l', 'e', 'space', 'lshift', 'k', 'i', 'd', 'm', 'a', 'n', 'n', 'return']","[0.9164901597250719, 1.2165795599867124, 1.7497168350673746, 2.3496014840493444, 2.6659808477561455, 2.882605957915075, 3.0826405375555623, 3.2491386364854407, 3.465694779792102, 4.048775261529954, 4.498559234983986, 4.8150518325855955, 5.5150509664963465, 5.748107181512751, 6.6476728830020875, 6.914355075219646, 7.064199771557469, 7.4642856112041045]",2017_Feb_22_1111,60.0069873115,famFaceFilter,001,21,
3,./img/smoo15_JoshRadnor(Ted)3_1.png,0,53,53,2,,,1.ja,1.867,None,act,0.942,None,None,None,None,None,Ted Mosby,"['lshift', 't', 'e', 'd', 'space', 'lshift', 'm', 'o', 'o', 's', 'b', 'y', 'backspace', 'backspace', 'backspace', 'backspace', 's', 'b', 'y', 'return']","[0.9333555951889139, 1.432834494713461, 1.832937014696654, 2.032968707353575, 2.4660585396923125, 2.715935281536076, 3.0489192898967303, 4.631913803663338, 4.7652157651027665, 5.364960876584519, 6.197977443691343, 6.347722057951614, 9.479809561773436, 9.679670601617545, 9.846465418289881, 9.99634989083279, 11.279180584329879, 12.495155160926515, 12.695028390269727, 13.611424562666798]",2017_Feb_22_1111,60.0069873115,famFaceFilter,001,21,
56,./img/smoo15_MariskaHargitay(Liv)6_5.png,0,54,54,55,,,2.nein,2.917,None,dummy,0.941,None,None,None,None,None,,['return'],[0.8332953213830478],2017_Feb_22_1111,60.0069873115,famFaceFilter,001,21,
68,./img/smoo15_AlysonHannigan(Lily)8_3.png,0,55,55,67,,,1.ja,1.574,None,dummy,0.674,None,None,None,None,None,Lilly,"['lshift', 'l', 'i', 'l', 'l', 'y', 'return']","[0.9832971979340073, 1.3332470446184743, 1.6828780400392134, 2.432738582690945, 2.549467335542431, 2.732758053782163, 3.1323652957507875]",2017_Feb_22_1111,60.0069873115,famFaceFilter,001,21,
65,./img/smoo15_UrsulavonderLeyen4_1.png,0,56,56,64,,,1.ja,1.758,None,None,None,None,None,polit,1.373,None,van Davart,"['v', 'a', 'n', 'space', 'lshift', 'd', 'a', 'v', 'a', 'r', 't', 'return']","[1.9996359193173703, 2.149345248239115, 2.349328503711149, 2.599398994236253, 2.8826226382516325, 3.165908191993367, 3.3990247128822375, 3.7321707130759023, 3.8820709036663175, 4.131979723111726, 4.332086477341363, 5.048247905884637]",2017_Feb_22_1111,60.0069873115,famFaceFilter,001,21,
29,./img/smoo15_GuentherJauch3_1.png,0,57,57,28,,,1.ja,1.983,None,None,None,host,1.474,None,None,None,wer wird Millioner,"['w', 'e', 'r', 'space', 'w', 'i', 'r', 'd', 'space', 'lshift', 'm', 'i', 'l', 'l', 'i', 'o', 'n', 'e', 'r', 'return']","[0.7665460228454322, 1.050019551301375, 1.349809667590307, 1.6330105365195777, 2.932497519592289, 3.5987952939467505, 3.99874095452833, 4.198792856070213, 4.56498198362533, 5.264807898522122, 5.481509674107656, 5.914321714517428, 6.214521140878787, 6.3644091419701, 6.847655817691702, 7.047578767320374, 7.780534739868017, 7.996971233777003, 8.246975965215825, 10.995929674361832]",2017_Feb_22_1111,60.0069873115,famFaceFilter,001,21,
51,./img/smoo15_LeonardoDiCaprio1_1.png,0,58,58,50,,,1.ja,2.568,None,act,1.074,None,None,None,None,None,Leonardo,"['lshift', 'l', 'e', 'o', 'n', 'a', 'r', 'd', 'o', 'return']","[0.7167006528761704, 1.0666033455054276, 1.7994425556098577, 1.966232239821693, 2.2993676544283517, 2.549117689806735, 2.8659438943723217, 3.3324046870402526, 3.5320129554893356, 4.132049973035464]",2017_Feb_22_1111,60.0069873115,famFaceFilter,001,21,
49,./img/smoo15_TomCruise5_1.png,0,59,59,48,,,1.ja,1.833,None,act,1.774,None,None,None,None,None,Tom Crueso,"['lshift', 't', 'o', 'm', 'space', 'lshift', 'c', 'r', 'u', 'e', 's', 'o', 'return']","[0.5669140169629827, 0.9501687441661488, 1.466659032186726, 1.7331121904135216, 1.949728318839334, 2.132873404829297, 3.216018522885861, 3.8322637060191482, 4.465243448066758, 4.731918262434192, 5.065092811681097, 5.214992681489093, 5.798029858444352]",2017_Feb_22_1111,60.0069873115,famFaceFilter,001,21,
15,./img/smoo15_LisaEdelstein(DrLisaCuddy)1_1.png,0,60,60,14,,,2.nein,1.867,None,act,0.841,None,None,None,None,None,,['return'],[0.7335503703216091],2017_Feb_22_1111,60.0069873115,famFaceFilter,001,21,
23,./img/smoo15_JoachimLoew4_1.png,0,61,61,22,,,1.ja,1.807,None,None,None,None,None,sport,1.308,None,Löwi,"['lshift', 'l', u'\xf6', 'w', 'i', 'return']","[1.4992306189669762, 1.8991576745174825, 2.099464913684642, 2.6825582264282275, 2.982440726220375, 3.532135171117261]",2017_Feb_22_1111,60.0069873115,famFaceFilter,001,21,
44,./img/smoo15_GuentherJauch2_1.png,0,62,62,43,,,1.ja,1.791,None,None,None,host,0.774,None,None,None,wer wird Millioner,"['w', 'e', 'r', 'space', 'w', 'i', 'r', 'd', 'space', 'lshift', 'm', 'i', 'l', 'l', 'i', 'o', 'n', 'e', 'r', 'return']","[0.8501553036621772, 1.1166604275931604, 1.3997939335531555, 2.615949427767191, 3.299161395523697, 3.865525923349196, 4.465331340674311, 4.748547927621985, 5.0816637748794165, 5.581077877664939, 5.8312224674155, 6.214627638517413, 6.58098709807382, 6.7144064635213, 7.3307475586479995, 7.897194846678758, 8.380418105749413, 8.680262753972784, 8.813712593109813, 9.413251124875387]",2017_Feb_22_1111,60.0069873115,famFaceFilter,001,21,
36,./img/smoo15_BastianSchweinsteiger6_2.png,0,63,63,35,,,1.ja,2.651,None,None,None,None,None,sport,1.007,None,Sebastian Scweilsteiger,"['lshift', 's', 'e', 'b', 'a', 's', 't', 'i', 'a', 'n', 'space', 'lshift', 's', 'c', 'w', 'e', 'i', 'l', 's', 't', 'e', 'i', 'g', 'e', 'r', 'return']","[0.8001043163239956, 1.1001115979452152, 1.399999230139656, 1.949590064410586, 2.133068436582107, 2.482769040390849, 2.716090537083801, 3.1324416404240765, 3.515786505653523, 3.832165869389428, 4.048849681508727, 4.382019419135759, 4.532040221442003, 4.81525424218853, 5.315086636779597, 5.58145158161642, 5.798239645926515, 6.181367987388512, 6.581288948218571, 7.647326124220854, 7.831213485682383, 8.063997361954534, 8.51376850437373, 8.696895947679877, 8.930131155648269, 9.92951686977176]",2017_Feb_22_1111,60.0069873115,famFaceFilter,001,21,
59,./img/smoo15_JoshRadnor(Ted)1_2.png,0,64,64,58,,,1.ja,1.602,None,act,1.224,None,None,None,None,None,Ted Mosby,"['lshift', 't', 'e', 'd', 'space', 'lshift', 'm', 'o', 's', 'b', 'y', 'return']","[0.7000161350297276, 1.2333818025654182, 1.783075926679885, 1.9661616691446397, 2.3160957978107035, 2.5160598067450337, 2.8492163925548084, 3.4322773069143295, 4.165478352282662, 4.64848316294956, 4.798351596691646, 5.31494389148429]",2017_Feb_22_1111,60.0069873115,famFaceFilter,001,21,
38,./img/smoo15_AlysonHannigan(Lily)5_4.png,0,65,65,37,,,1.ja,1.65,None,act,1.024,None,None,None,None,None,Lilly,"['lshift', 'l', 'i', 'l', 'l', 'y', 'return']","[1.1831771635916084, 1.6330172728339676, 2.0163772145169787, 2.549304060608847, 2.682798487599939, 2.915942274441477, 3.365728172560921]",2017_Feb_22_1111,60.0069873115,famFaceFilter,001,21,
66,./img/smoo15_NicoleKidman3_1.png,0,66,66,65,,,1.ja,2.807,None,act,1.058,None,None,None,None,None,Nickole Kidmann,"['lshift', 'n', 'i', 'c', 'k', 'o', 'l', 'e', 'space', 'lshift', 'k', 'i', 'd', 'n', 'a', 'm', 'm', 'backspace', 'backspace', 'backspace', 'backspace', 'm', 'a', 'n', 'n', 'return']","[1.116506455146009, 1.516494778887136, 2.099427382898284, 2.466087088745553, 3.0823807090637274, 3.3990317699790467, 3.5989518326241523, 3.8488375562010333, 4.0488759851432405, 4.815088721807115, 5.098212604498258, 5.331515175435925, 6.597673540585674, 7.197346477449173, 7.530564010667149, 7.84691739155096, 7.997108846640913, 10.546131907554809, 10.71267844364047, 10.862587936717318, 11.029156285570934, 11.99554859258933, 12.228692700213287, 12.478585480857873, 12.628483105218038, 12.994450897385832]",2017_Feb_22_1111,60.0069873115,famFaceFilter,001,21,
6,./img/smoo15_AlysonHannigan(Lily)1_1.png,0,67,67,5,,,1.ja,2.008,None,dummy,1.091,None,None,None,None,None,Lilly,"['lshift', 'l', 'i', 'l', 'l', 'y', 'return']","[0.7500363278668374, 1.1998883058258798, 1.599738054384943, 2.0328984574007336, 2.1661336974648293, 2.3327097449509893, 2.7658900360693224]",2017_Feb_22_1111,60.0069873115,famFaceFilter,001,21,
62,./img/smoo15_RobertSeanLeonard(Wilson)1_1.png,0,68,68,61,,,1.ja,2.024,None,act,0.807,None,None,None,None,None,,['return'],[1.1331329125678167],2017_Feb_22_1111,60.0069873115,famFaceFilter,001,21,
64,./img/smoo15_JoachimLoew8_1.png,0,69,69,63,,,1.ja,1.241,None,None,None,None,None,sport,1.091,None,Löwi,"['lshift', 'l', u'\xf6', 'w', 'i', 'return']","[0.9332603247312363, 1.3165012585523073, 2.0663784815697, 2.832342616893584, 3.065681756270351, 3.648977799428394]",2017_Feb_22_1111,60.0069873115,famFaceFilter,001,21,
46,./img/smoo15_NeilPatrickHarris(Barney)1_1.png,0,70,70,45,,,1.ja,1.991,None,act,1.106,None,None,None,None,None,Steven,"['lshift', 's', 't', 'e', 'v', 'e', 'n', 'return']","[0.76675356485066, 1.1164884916797746, 1.8329944335564505, 2.016357005632017, 2.332883284718264, 2.4661079391662497, 2.7992568263434805, 3.4822853102814406]",2017_Feb_22_1111,60.0069873115,famFaceFilter,001,21,
16,./img/smoo15_WillSmith4_1.png,0,71,71,15,,,1.ja,2.023,None,act,0.874,None,None,None,None,None,Will Smith,"['lshift', 'w', 'i', 'l', 'l', 'space', 'lshift', 's', 'm', 'i', 't', 'h', 'return']","[1.8329405432159547, 2.2995068711752538, 2.932304412504891, 3.315765719366027, 3.449140496959444, 3.7486303670157213, 4.032134369190317, 4.248701739648823, 5.231669500702992, 5.564948943705531, 5.9480051106074825, 6.314591037953505, 6.897493168275105]",2017_Feb_22_1111,60.0069873115,famFaceFilter,001,21,
39,./img/edges5_AlysonHannigan(Lily)8_3.png,0,0,0,38,,,1.ja,2.178,None,act,0.988,None,None,None,None,None,Lilly,"['lshift', 'l', 'i', 'l', 'l', 'y', 'return']","[0.9667194984504022, 1.6497993065277115, 3.0492654070840217, 3.51583205582574, 3.6489521373296157, 3.8655762851412874, 4.24880502949236]",2017_Feb_22_1111,60.0069873115,famFaceFilter,001,21,
16,./img/edges5_BritneySpears7_1.png,0,1,1,15,,,1.ja,1.8,None,None,None,music,1.089,None,None,None,Bratny Speers,"['lshift', 'b', 'r', 'a', 'n', 'backspace', 't', 'n', 'y', 'space', 'lshift', 's', 'p', 'e', 'e', 'r', 's', 'return']","[0.7502053767966572, 1.1001260328630451, 1.4832601483212784, 1.7165069042239338, 3.0327874689537566, 4.148840346955694, 4.915121729660314, 5.34833473994513, 5.548431229341077, 5.714795564708766, 6.181413858343149, 6.381274898216361, 7.2642539185180794, 7.880647300131386, 8.030589833128033, 8.263848457747372, 8.463845827413024, 8.896654980810126]",2017_Feb_22_1111,60.0069873115,famFaceFilter,001,21,
6,./img/edges5_GuentherJauch3_1.png,0,2,2,5,,,1.ja,1.551,None,None,None,host,1.438,None,None,None,wer wird Millioner,"['w', 'e', 'r', 'space', 'w', 'i', 'r', 'd', 'space', 'lshift', 'm', 'i', 'l', 'l', 'i', 'o', 'n', 'e', 'r', 'return']","[0.7669566160184331, 1.0332923702371772, 1.3333397488459013, 1.6498932938848156, 1.8498210551333614, 2.149653513886733, 2.5494269177725073, 2.749424287409056, 2.9826896483427845, 3.81558271672111, 4.01601281305193, 4.631727753614541, 4.9318033604940865, 5.0816897577024065, 5.365065770281944, 5.548215026356047, 6.76449177385075, 6.964342228107853, 7.1142061710124835, 7.79722278623376]",2017_Feb_22_1111,60.0069873115,famFaceFilter,001,21,
52,./img/edges5_BarackObama4_1.png,0,3,3,51,,,1.ja,1.952,None,None,None,None,None,polit,1.289,None,Barak Obama,"['lshift', 'b', 'a', 'r', 'a', 'k', 'space', 'lshift', 'o', 'b', 'a', 'm', 'a', 'return']","[0.7002859075728338, 1.666360967210494, 2.0164487475412898, 2.19969712337479, 2.366224733676063, 2.8993267234181985, 3.165877397521399, 3.5823532827198505, 3.898917413345771, 4.5486599425494205, 4.74855498468969, 5.048410539282486, 5.181766070309095, 5.56479465047596]",2017_Feb_22_1111,60.0069873115,famFaceFilter,001,21,
11,./img/edges5_RobertSeanLeonard(Wilson)1_1.png,0,4,4,10,,,1.ja,2.85,None,act,0.671,None,None,None,None,None,,['return'],[0.7002801336057018],2017_Feb_22_1111,60.0069873115,famFaceFilter,001,21,
14,./img/edges5_AngelaMerkel4_1.png,0,5,5,13,,,1.ja,1.423,None,None,None,None,None,polit,2.238,None,Angela Merkel,"['lshift', 'a', 'n', 'g', 'e', 'l', 'a', 'space', 'lshift', 'm', 'e', 'r', 'k', 'e', 'l', 'return']","[0.7832215589587577, 1.2165907871094532, 1.932958474586485, 2.3161323662498035, 2.6160703602654394, 2.9659759398782626, 3.1321660939138383, 3.5156120035680942, 3.8155483937007375, 3.9987175378773827, 4.532055618707091, 4.748212075210176, 5.398178826784715, 5.564684303564718, 5.748125465732301, 6.264538767543854]",2017_Feb_22_1111,60.0069873115,famFaceFilter,001,21,
21,./img/edges5_JoshRadnor(Ted)3_1.png,0,6,6,20,,,1.ja,1.401,None,dummy,1.154,None,None,None,None,None,Ted Mosby,"['lshift', 't', 'e', 'd', 'space', 'lshift', 'm', 'o', 's', 'b', 'y', 'return']","[1.016717557766242, 2.1662613663065713, 2.582708381669363, 2.7658711103140377, 3.1323656165623106, 3.4820630126050673, 3.7488635711197276, 4.0487736576469615, 5.431473121716408, 6.297867706249235, 6.514412622404052, 6.9976419762242585]",2017_Feb_22_1111,60.0069873115,famFaceFilter,001,21,
60,./img/edges5_TomCruise1_1.png,0,7,7,59,,,1.ja,1.834,None,dummy,0.856,None,None,None,None,None,Tom Crueso,"['lshift', 't', 'o', 'm', 'space', 'lshift', 'c', 'r', 'u', 'e', 's', 'o', 'return']","[0.7333723396877758, 1.1498539988242555, 1.6498301010287832, 1.9164192682364956, 2.132844214211218, 2.3494882501254324, 2.666070023435168, 3.132478850428015, 3.5822461435454898, 3.7821110327204224, 4.132023348618532, 4.281993468350265, 6.2811754897702485]",2017_Feb_22_1111,60.0069873115,famFaceFilter,001,21,
4,./img/edges5_LeonardoDiCaprio1_1.png,0,8,8,3,,,1.ja,1.833,None,dummy,2.038,None,None,None,None,None,Leonardo,"['lshift', 'l', 'e', 'o', 'n', 'a', 'r', 'd', 'o', 'return']","[0.6834426056593657, 1.066434617358027, 1.7331631937995553, 1.899672199098859, 2.2495363985945005, 2.482643296214519, 2.8157629928027745, 3.4823754483368248, 3.61570499651134, 4.148716206662357]",2017_Feb_22_1111,60.0069873115,famFaceFilter,001,21,
38,./img/edges5_GeorgeClooney11_1.png,0,9,9,37,,,1.ja,1.566,None,dummy,0.891,None,None,None,None,None,Georg Clooni,"['lshift', 'g', 'e', 'o', 'r', 'g', 'space', 'lshift', 'c', 'l', 'o', 'o', 'n', 'i', 'return']","[0.7501903003139887, 1.299765095784096, 1.9329850990034174, 2.63275968976086, 3.3157981177500915, 3.882235461700475, 4.198683792259544, 4.531921855144901, 6.064779092848767, 6.5810932749009226, 7.047458155575441, 7.180950337147806, 7.647416583029553, 9.279929275333416, 9.812839441059623]",2017_Feb_22_1111,60.0069873115,famFaceFilter,001,21,
32,./img/edges5_Ice-T(OdafinFinTutuola)7_1.png,0,10,10,31,,,1.ja,2.017,None,act,0.955,None,None,None,None,None,,['return'],[0.7335943166108336],2017_Feb_22_1111,60.0069873115,famFaceFilter,001,21,
44,./img/edges5_EmilyDeschanel5_1.png,0,11,11,43,,,2.nein,2.072,None,dummy,1.637,None,None,None,None,None,,['return'],[0.8500382204656489],2017_Feb_22_1111,60.0069873115,famFaceFilter,001,21,
18,./img/edges5_JoshRadnor(Ted)6_2.png,0,12,12,17,,,1.ja,1.706,None,act,0.957,None,None,None,None,None,Ted Mosby,"['lshift', 't', 'e', 'd', 'space', 'lshift', 'm', 'o', 's', 'b', 'y', 'return']","[0.7668546092754696, 1.166716226551216, 1.6332251356216148, 1.8332590737263672, 2.149751992110396, 2.4160110808734316, 2.6827118781220634, 3.3493243336561136, 3.7824815289350227, 4.981981054326752, 5.181780505226925, 5.565061215282185]",2017_Feb_22_1111,60.0069873115,famFaceFilter,001,21,
70,./img/edges5_BastianSchweinsteiger1_1.png,0,13,13,69,,,1.ja,1.585,None,None,None,None,None,sport,1.455,None,Sebastian Schweinsteiger,"['lshift', 's', 'e', 'b', 'a', 's', 't', 'i', 'a', 'n', 'space', 'lshift', 's', 'c', 'h', 'w', 'e', 'i', 'n', 's', 't', 'e', 'i', 'g', 'e', 'r', 'return']","[0.7168251139228232, 1.0333315049065277, 1.2833522751461715, 1.9496888633875642, 2.116275175678311, 2.4826978281198535, 2.699416284041945, 3.1491813317406923, 3.3824521458300296, 3.665685413114261, 3.88217066496145, 4.315368919575121, 4.415375623764703, 5.031650639080908, 5.397916752874153, 5.9313395185163245, 6.181199259241112, 6.364524621312739, 6.6311311104218476, 6.997265385289211, 7.297491115285084, 7.44733324542176, 7.880388433957705, 8.363633185043, 8.563631837780122, 8.830058050807565, 10.646037246566266]",2017_Feb_22_1111,60.0069873115,famFaceFilter,001,21,
48,./img/edges5_GeorgeClooney3_1.png,0,14,14,47,,,1.ja,2.202,None,dummy,0.69,None,None,None,None,None,George Clooni,"['lshift', 'g', 'e', 'o', 'r', 'g', 'e', 'space', 'lshift', 'c', 'l', 'o', 'o', 'n', 'i', 'return']","[1.0501590888306964, 2.582679191051284, 3.2324268526863307, 3.782198925357079, 4.265317290701205, 4.931729261297733, 5.1315392977849115, 5.348220543732168, 5.781345661409432, 6.047803952038521, 6.564423512754729, 6.931007194682024, 7.064202658541035, 7.397389397287043, 8.680192504049046, 9.2464309669449]",2017_Feb_22_1111,60.0069873115,famFaceFilter,001,21,
25,./img/edges5_JoachimLoew8_1.png,0,15,15,24,,,1.ja,1.517,None,None,None,None,None,sport,0.838,None,Löwi,"['lshift', 'l', u'\xf6', 'w', 'i', 'return']","[0.7167054645251483, 1.233403936115792, 1.4831741803791374, 2.282827164977789, 2.6659336937009357, 3.215852360968711]",2017_Feb_22_1111,60.0069873115,famFaceFilter,001,21,
64,./img/edges5_EmilyDeschanel3_1.png,0,16,16,63,,,2.nein,1.871,None,dummy,1.055,None,None,None,None,None,,['return'],[1.0499666232790332],2017_Feb_22_1111,60.0069873115,famFaceFilter,001,21,
19,./img/edges5_HughLaurie(DrHouse)2_1.png,0,17,17,18,,,1.ja,1.639,None,act,0.672,None,None,None,None,None,Arzt,"['lshift', 'a', 'r', 'z', 't', 'return']","[1.0665683809202164, 1.5830221005016938, 3.3989579915069044, 3.8320580886793323, 4.015862369182287, 4.865094800508814]",2017_Feb_22_1111,60.0069873115,famFaceFilter,001,21,
26,./img/edges5_NicoleKidman7_1.png,0,18,18,25,,,1.ja,1.651,None,act,0.839,None,None,None,None,None,Nockole Kidmann,"['lshift', 'n', 'o', 'c', 'k', 'o', 'l', 'e', 'space', 'lshift', 'k', 'i', 'd', 'm', 'a', 'n', 'n', 'return']","[0.7499651156249456, 1.1663800533860922, 1.566573352960404, 2.366160257719457, 2.8992715499771293, 3.349150793888839, 3.582088963361457, 3.898936018376844, 4.115416137792636, 4.565302438772051, 4.998563565459335, 5.448383786570048, 7.863912420492852, 9.33009445888456, 9.979626559099415, 10.212817820778582, 10.362910797673976, 11.595840306195896]",2017_Feb_22_1111,60.0069873115,famFaceFilter,001,21,
2,./img/edges5_OmarEpps(DrEricForeman)1_5.png,0,19,19,1,,,1.ja,2.035,None,dummy,0.855,None,None,None,None,None,,['return'],[1.266428458475275],2017_Feb_22_1111,60.0069873115,famFaceFilter,001,21,
36,./img/edges5_AngelaMerkel1_1.png,0,20,20,35,,,1.ja,1.973,None,None,None,None,None,polit,2.439,None,Angela Merkel,"['lshift', 'a', 'n', 'g', 'e', 'l', 'a', 'space', 'lshift', 'm', 'e', 'r', 'k', 'e', 'l', 'return']","[0.8334358212305233, 1.2497965478687547, 1.9663178870105185, 2.4328723462531343, 2.699440342228627, 3.0991146263841074, 3.332321926864097, 3.5322997291514184, 3.765362038917374, 3.965576253074687, 4.482021311705466, 4.665210343984654, 5.381549803161761, 5.598121985298349, 5.7481212956190575, 6.264443497086177]",2017_Feb_22_1111,60.0069873115,famFaceFilter,001,21,
43,./img/edges5_BarackObama1_3.png,0,21,21,42,,,1.ja,1.935,None,None,None,None,None,polit,0.822,None,Barak Obama,"['lshift', 'b', 'a', 'r', 'a', 'k', 'space', 'lshift', 'o', 'b', 'a', 'm', 'a', 'return']","[0.6833957723574713, 1.0498950902256183, 1.3498622748593334, 1.5329826610977761, 1.7331272668670863, 2.1329385223216377, 2.382738598738797, 2.599312705511693, 2.8326957911776844, 3.6322515806823503, 3.8321280178206507, 4.148741227167193, 4.298393137170933, 4.881766166538]",2017_Feb_22_1111,60.0069873115,famFaceFilter,001,21,
72,./img/edges5_EmilyDeschanel6_12.png,0,22,22,71,,,2.nein,1.699,None,dummy,0.821,None,None,None,None,None,,['return'],[1.3332114384975284],2017_Feb_22_1111,60.0069873115,famFaceFilter,001,21,
13,./img/edges5_MariskaHargitay(Liv)6_5.png,0,23,23,12,,,2.nein,4.904,None,dummy,0.937,None,None,None,None,None,,['return'],[0.7167144462291617],2017_Feb_22_1111,60.0069873115,famFaceFilter,001,21,
54,./img/edges5_KatjaBurkard5_3.png,0,24,24,53,,,1.ja,1.356,None,None,None,host,1.105,None,None,None,Punkt 12,"['lshift', 'p', 'u', 'n', 'k', 't', 'space', '1', '2', 'return']","[1.149967553501483, 1.649739000655245, 2.282943285856163, 2.6327513495634776, 3.099169479071861, 3.498933901224518, 3.798705412540585, 4.131974911462748, 4.465183783730026, 5.115048528561601]",2017_Feb_22_1111,60.0069873115,famFaceFilter,001,21,
24,./img/edges5_JasonSegel(Marshall)7_1.png,0,25,25,23,,,1.ja,1.532,None,act,1.605,None,None,None,None,None,Murshel,"['lshift', 'm', 'u', 'r', 's', 'h', 'e', 'l', 'return']","[0.8499843300960492, 1.2498902144434396, 1.7330621493747458, 2.149508843955118, 2.9158008122758474, 3.199110424204264, 3.4323728981544264, 3.6822682450001594, 4.282013035699492]",2017_Feb_22_1111,60.0069873115,famFaceFilter,001,21,
10,./img/edges5_GuentherJauch4_1.png,0,26,26,9,,,1.ja,2.151,None,None,None,host,0.855,None,None,None,wer wird Mllioner,"['w', 'e', 'r', 'space', 'w', 'i', 'r', 'd', 'space', 'lshift', 'm', 'l', 'l', 'i', 'o', 'n', 'e', 'r', 'return']","[1.3334472087735776, 1.6166920239920728, 1.9162091600010172, 2.3995600879134145, 2.9493430669535883, 4.08234317827737, 4.782118731352966, 5.015284972498193, 5.33182600728469, 5.664825092128012, 5.964896528923418, 8.413790990744019, 8.58034169691382, 8.830147226515692, 9.09685476004961, 9.62979155019275, 9.97997652561753, 10.26316039339872, 10.862765325786313]",2017_Feb_22_1111,60.0069873115,famFaceFilter,001,21,
30,./img/edges5_MariskaHargitay(Liv)8_8.png,0,27,27,29,,,2.nein,1.735,None,dummy,0.804,None,None,None,None,None,,['return'],[0.7166217420017347],2017_Feb_22_1111,60.0069873115,famFaceFilter,001,21,
65,./img/edges5_LisaEdelstein(DrLisaCuddy)1_1.png,0,28,28,64,,,2.nein,1.77,None,dummy,0.911,None,None,None,None,None,,['return'],[0.7334441934945062],2017_Feb_22_1111,60.0069873115,famFaceFilter,001,21,
55,./img/edges5_JoachimLoew1_1.png,0,29,29,54,,,1.ja,1.237,None,None,None,None,None,sport,1.838,None,Löwi,"['lshift', 'l', u'\xf6', 'w', 'i', 'return']","[1.0334296623477712, 1.4998176388908178, 2.4994667100545485, 2.8658646627154667, 3.1658578302012756, 3.7822521741327364]",2017_Feb_22_1111,60.0069873115,famFaceFilter,001,21,
57,./img/edges5_BritneySpears5_1.png,0,30,30,56,,,1.ja,1.855,None,None,None,music,0.806,None,None,None,Breatny Speers,"['lshift', 'b', 'r', 'e', 'a', 't', 'n', 'y', 'space', 'lshift', 's', 'p', 'e', 'e', 'r', 's', 'return']","[0.7166948789090384, 1.0496772833866999, 1.4166648222017102, 1.8331259516999125, 1.999602879426675, 2.5326930004521273, 3.2156868405872956, 3.3657220778113697, 3.5988677893183194, 4.015345278399764, 4.215377291839104, 5.281590573809808, 5.698011606320506, 5.914596619462827, 6.14798868689104, 6.331182530790102, 6.864255971478997]",2017_Feb_22_1111,60.0069873115,famFaceFilter,001,21,
69,./img/edges5_GuentherJauch2_1.png,0,31,31,68,,,1.ja,1.651,None,None,None,host,0.839,None,None,None,wer wird Millioner,"['w', 'e', 'r', 'space', 'w', 'i', 'r', 'd', 'space', 'lshift', 'm', 'i', 'l', 'l', 'i', 'o', 'n', 'e', 'r', 'return']","[0.8000578038336243, 1.0832747115346137, 1.3665381317550782, 1.6665778117312584, 1.8997539969568606, 2.249525171442656, 2.6661191021848936, 2.8825812581635546, 3.2820800778572448, 3.482321557967225, 3.765510878962232, 4.164921164512634, 4.481797730899416, 4.615258476434974, 4.931271834822837, 5.18179173237877, 5.848142755567096, 6.097681078827009, 6.247828587627737, 6.81432752055116]",2017_Feb_22_1111,60.0069873115,famFaceFilter,001,21,
5,./img/edges5_AlysonHannigan(Lily)1_1.png,0,32,32,4,,,1.ja,2.201,None,dummy,1.004,None,None,None,None,None,Lilly,"['lshift', 'l', 'i', 'l', 'l', 'y', 'return']","[0.8503275603288785, 1.183483183820499, 1.4999103431473486, 1.949736979790032, 2.0665096789307427, 2.216365602449514, 2.6496450133272447]",2017_Feb_22_1111,60.0069873115,famFaceFilter,001,21,
68,./img/edges5_MariskaHargitay(Liv)4_4.png,0,33,33,67,,,2.nein,1.59,None,dummy,0.807,None,None,None,None,None,,['return'],[0.6668572075723205],2017_Feb_22_1111,60.0069873115,famFaceFilter,001,21,
27,./img/edges5_OmarEpps(DrEricForeman)2_2.png,0,34,34,26,,,1.ja,1.656,None,dummy,0.656,None,None,None,None,None,,['return'],[0.7334695347817615],2017_Feb_22_1111,60.0069873115,famFaceFilter,001,21,
15,./img/edges5_LisaEdelstein(DrLisaCuddy)6_3.png,0,35,35,14,,,2.nein,1.772,None,act,0.74,None,None,None,None,None,,['return'],[0.6335321181686595],2017_Feb_22_1111,60.0069873115,famFaceFilter,001,21,
23,./img/edges5_UrsulavonderLeyen1_1.png,0,36,36,22,,,1.ja,1.689,None,None,None,None,None,polit,1.789,None,van Davart,"['v', 'a', 'n', 'space', 'lshift', 'd', 'a', 'v', 'a', 'r', 't', 'return']","[6.181300624477444, 6.380895741109271, 6.91430246795062, 7.147443688591011, 7.414067499601515, 8.130308801366482, 8.396626271365676, 8.647011763823684, 8.813205767190084, 8.996682214696193, 9.379884655412752, 9.979533534089569]",2017_Feb_22_1111,60.0069873115,famFaceFilter,001,21,
61,./img/edges5_NeilPatrickHarris(Barney)2_2.png,0,37,37,60,,,1.ja,1.985,None,act,0.606,None,None,None,None,None,Steven,"['lshift', 's', 't', 'e', 'b', 'backspace', 'v', 'e', 'n', 'return']","[0.7834640655783005, 1.2165837300708517, 1.59964246317395, 1.7662775334028993, 1.9996137857961003, 2.749379058019258, 3.1824611917545553, 3.3322696404065937, 3.5321656448359136, 4.148642428219318]",2017_Feb_22_1111,60.0069873115,famFaceFilter,001,21,
20,./img/edges5_JoshRadnor(Ted)1_2.png,0,38,38,19,,,1.ja,1.917,None,act,0.872,None,None,None,None,None,Ted Mosby,"['lshift', 't', 'e', 'd', 'space', 'lshift', 'm', 'o', 's', 'b', 'y', 'return']","[0.9832554970635101, 1.416685031086672, 1.6828254327992909, 1.8831134253996424, 2.549500054708915, 2.8159249846357852, 3.0659643598773982, 3.732378255110234, 6.381191175722051, 7.264204839797458, 7.430728600797011, 9.246669945016038]",2017_Feb_22_1111,60.0069873115,famFaceFilter,001,21,
37,./img/edges5_JasonSegel(Marshall)9_1.png,0,39,39,36,,,1.ja,1.917,None,act,0.839,None,None,None,None,None,Murshel,"['lshift', 'm', 'u', 'r', 's', 'h', 'e', 'l', 'return']","[1.1165548923017923, 1.5498224344919436, 2.082780395867303, 2.6326923268206883, 2.882658885937417, 3.632123911898816, 3.8822354617295787, 4.431784595130011, 5.181357401801506]",2017_Feb_22_1111,60.0069873115,famFaceFilter,001,21,
12,./img/edges5_UrsulavonderLeyen4_1.png,0,40,40,11,,,1.ja,1.969,None,None,None,None,None,polit,1.556,None,van Davart,"['v', 'a', 'n', 'space', 'lshift', 'd', 'a', 'v', 'a', 'r', 't', 'return']","[1.116713997151237, 1.2665509948856197, 1.516651317535434, 1.7165024133573752, 1.966375305899419, 2.216367206303403, 2.432550608034944, 2.8159118328185286, 2.9493741822370794, 3.399077320151264, 3.5823766993707977, 4.232093566504773]",2017_Feb_22_1111,60.0069873115,famFaceFilter,001,21,
56,./img/edges5_NeilPatrickHarris(Barney)1_1.png,0,41,41,55,,,1.ja,1.618,None,dummy,0.572,None,None,None,None,None,Steven,"['lshift', 's', 't', 'e', 'v', 'e', 'n', 'return']","[0.7500661600497551, 1.1664323398726992, 1.6164203268126585, 1.7997960506763775, 2.032886588713154, 2.1661381883604918, 2.4326927117654122, 2.999093808030011]",2017_Feb_22_1111,60.0069873115,famFaceFilter,001,21,
1,./img/edges5_BastianSchweinsteiger6_2.png,0,42,42,0,,,1.ja,1.355,None,None,None,None,None,sport,1.022,None,Sebastian Schweinsteiger,"['lshift', 's', 'e', 'b', 'a', 's', 't', 'i', 'a', 'n', 'space', 'lshift', 's', 'c', 'h', 'w', 'e', 'i', 'b', 'backspace', 'n', 's', 't', 'e', 'g', 'e', 'r', 'backspace', 'backspace', 'backspace', 'backspace', 'e', 'i', 'g', 'e', 'r', 'return']","[0.7167583925183862, 0.9665690545516554, 1.2996967705257703, 1.8996240826963913, 2.0992897700343747, 2.4161685818398837, 2.632682382740313, 3.0320702139870264, 3.3157621908467263, 3.6490291235677432, 3.832157208409626, 4.515074703900609, 4.715185948967701, 5.1484762662730645, 5.531483354454394, 5.814570668677334, 6.114548118144739, 6.247908140037907, 6.581139145855559, 8.063624941074522, 9.379907751252176, 10.029679791856324, 10.246213160076877, 10.429441968590254, 12.178501212998526, 12.328751370107057, 12.495302397059277, 14.494618182012346, 14.660999518499011, 14.81098696013214, 14.960915378993377, 17.343324540852336, 17.693250008567702, 18.05973040065146, 18.225930177984992, 18.459339246503077, 19.025959432736272]",2017_Feb_22_1111,60.0069873115,famFaceFilter,001,21,
62,./img/edges5_AlysonHannigan(Lily)5_4.png,0,43,43,61,,,1.ja,2.701,None,act,1.954,None,None,None,None,None,Lilly,"['lshift', 'l', 'i', 'l', 'l', 'y', 'return']","[1.5830602728528902, 1.7662534752162173, 2.4827780221239664, 2.9325860537646804, 3.0491688535548747, 3.2324371175200213, 3.632330812368309]",2017_Feb_22_1111,60.0069873115,famFaceFilter,001,21,
46,./img/edges5_TomCruise5_1.png,0,44,44,45,,,1.ja,1.588,None,act,0.706,None,None,None,None,None,Tom Crueso,"['lshift', 't', 'o', 'm', 'space', 'lshift', 'c', 'r', 'u', 'e', 's', 'o', 'return']","[0.6168148811848368, 0.9999368071439676, 1.483236410887912, 1.7829107271099929, 2.0164651071245316, 2.249521322140936, 3.1657872594951186, 4.148825591255445, 4.531967405317118, 4.715237593918573, 5.048040363879409, 5.648194464622065, 6.231147919083014]",2017_Feb_22_1111,60.0069873115,famFaceFilter,001,21,
40,./img/edges5_NicoleKidman3_1.png,0,45,45,39,,,1.ja,1.968,None,dummy,0.906,None,None,None,None,None,Nickole Kidmann,"['lshift', 'n', 'i', 'c', 'k', 'o', 'l', 'e', 'space', 'lshift', 'k', 'i', 'd', 'm', 'a', 'n', 'n', 'return']","[0.6837499089888297, 1.050274568144232, 1.8167477748647798, 2.266414023557445, 2.6161755747743882, 2.8162249101151247, 3.032625477120746, 3.2327963865245692, 4.133745594561333, 4.998418895498617, 5.298502201010706, 5.715004069061251, 6.664503033098299, 7.597295666550053, 7.764171960268868, 7.930816653795773, 8.097411627037218, 8.596997665736126]",2017_Feb_22_1111,60.0069873115,famFaceFilter,001,21,
8,./img/edges5_LeonardoDiCaprio3_1.png,0,46,46,7,,,1.ja,2.218,None,act,0.855,None,None,None,None,None,Leonardo,"['lshift', 'l', 'e', 'o', 'n', 'a', 'r', 'd', 'o', 'return']","[0.7168164529721253, 1.0499919645662885, 1.6164876897528302, 1.799744405754609, 2.1494857480865903, 2.4326696158968844, 2.7660080816422123, 3.132546534150606, 3.3324826355965342, 3.932180592993973]",2017_Feb_22_1111,60.0069873115,famFaceFilter,001,21,
71,./img/edges5_HughLaurie(DrHouse)4_1.png,0,47,47,70,,,1.ja,3.371,None,act,0.756,None,None,None,None,None,Arzt,"['lshift', 'a', 'r', 'z', 't', 'return']","[0.8999894464795943, 1.6832379506086, 2.5162750473828055, 3.01605194772128, 3.199255414918298, 3.7655965261219535]",2017_Feb_22_1111,60.0069873115,famFaceFilter,001,21,
41,./img/edges5_OmarEpps(DrEricForeman)3_1.png,0,48,48,40,,,1.ja,1.371,None,act,0.772,None,None,None,None,None,,['return'],[0.717017258721171],2017_Feb_22_1111,60.0069873115,famFaceFilter,001,21,
42,./img/edges5_JoachimLoew4_1.png,0,49,49,41,,,1.ja,1.272,None,None,None,None,None,sport,1.871,None,Löwi,"['lshift', 'l', u'\xf6', 'w', 'i', 'return']","[0.8333851386269089, 1.2499008000304457, 1.4663443510071374, 2.0825699668494053, 2.3328435085131787, 2.898899129126221]",2017_Feb_22_1111,60.0069873115,famFaceFilter,001,21,
28,./img/edges5_Ice-T(OdafinFinTutuola)5_1.png,0,50,50,27,,,1.ja,2.523,None,act,2.105,None,None,None,None,None,,['return'],[0.8002444954181556],2017_Feb_22_1111,60.0069873115,famFaceFilter,001,21,
35,./img/edges5_WillSmith1_1.png,0,51,51,34,,,1.ja,1.706,None,act,0.64,None,None,None,None,None,Will Smith,"['lshift', 'w', 'i', 'l', 'l', 'space', 'lshift', 's', 'm', 'i', 't', 'h', 'return']","[1.0167124253639486, 1.5498628522618674, 2.166208759037545, 2.532514007471036, 2.649390317237703, 2.949111787514994, 3.1158341088157613, 3.4823869962710887, 4.182006331480807, 4.51485048152972, 4.865100895258365, 5.0649779739324, 5.664762861590134]",2017_Feb_22_1111,60.0069873115,famFaceFilter,001,21,
22,./img/edges5_JasonSegel(Marshall)6_1.png,0,52,52,21,,,1.ja,2.1,None,dummy,0.889,None,None,None,None,None,Murshel,"['lshift', 'm', 'u', 'r', 's', 'h', 'e', 'l', 'return']","[0.7501261451398022, 1.1998668138403445, 1.7996154538413975, 2.29945875480189, 2.715948433353333, 2.99887054800638, 3.232547143648844, 3.4823295773821883, 6.630735593731515]",2017_Feb_22_1111,60.0069873115,famFaceFilter,001,21,
31,./img/edges5_GeorgeClooney4_2.png,0,53,53,30,,,1.ja,2.133,None,act,0.805,None,None,None,None,None,George Clooni,"['lshift', 'g', 'e', 'o', 'r', 'g', 'e', 'space', 'lshift', 'c', 'l', 'o', 'o', 'n', 'i', 'return']","[0.5831856962176971, 1.3166286065825261, 1.7661466568242759, 2.416110842168564, 2.8493010773672722, 3.365784308349248, 3.5323154471698217, 3.7821257884206716, 4.1817865999473725, 5.2314225032459944, 5.781249428604497, 6.1811190652661026, 6.314477483276278, 6.630728536634706, 7.530676602997119, 8.130357880058]",2017_Feb_22_1111,60.0069873115,famFaceFilter,001,21,
50,./img/edges5_WillSmith5_1.png,0,54,54,49,,,1.ja,1.934,None,act,0.79,None,None,None,None,None,Will Smith,"['lshift', 'w', 'i', 'l', 'l', 'space', 'lshift', 's', 'm', 'i', 't', 'h', 'return']","[0.8001245252089575, 1.4163424423895776, 2.049404944613343, 2.4660373684600927, 2.599289609643165, 2.9158877425361425, 3.099070680065779, 3.7988683667208534, 4.815152556198882, 5.214861163374735, 5.747715193312615, 6.197685537597863, 6.880990851146635]",2017_Feb_22_1111,60.0069873115,famFaceFilter,001,21,
34,./img/edges5_KatjaBurkard1_1.png,0,55,55,33,,,1.ja,1.901,None,None,None,host,0.955,None,None,None,Punkt 12,"['lshift', 'p', 'u', 'n', 'k', 't', 'space', '1', '2', 'return']","[0.9833292755065486, 1.3165846602933016, 1.7829444085655268, 2.0995117469574325, 3.199190938961692, 3.5323414300219156, 3.8488975412619766, 4.1487399440666195, 4.431841372454073, 5.08171606133692]",2017_Feb_22_1111,60.0069873115,famFaceFilter,001,21,
63,./img/edges5_LisaEdelstein(DrLisaCuddy)2_2.png,0,56,56,62,,,2.nein,1.982,None,dummy,0.839,None,None,None,None,None,,['return'],[0.7335632013564464],2017_Feb_22_1111,60.0069873115,famFaceFilter,001,21,
49,./img/edges5_RobertSeanLeonard(Wilson)2_6.png,0,57,57,48,,,2.nein,1.638,None,act,1.172,None,None,None,None,None,,['return'],[0.9166271310241427],2017_Feb_22_1111,60.0069873115,famFaceFilter,001,21,
33,./img/edges5_BarackObama2_1.png,0,58,58,32,,,1.ja,1.406,None,None,None,None,None,polit,1.555,None,Barak Obama,"['lshift', 'b', 'a', 'r', 'a', 'k', 'space', 'lshift', 'o', 'b', 'a', 'm', 'a', 'return']","[0.7334958384162746, 1.8996773315011524, 2.2994141669478267, 2.4496502099209465, 2.6326769295847043, 3.099128740548622, 3.332324172311928, 3.5656161576334853, 3.8321947392250877, 4.3985669656831305, 4.598511728050653, 4.981666373176267, 5.131725347833708, 5.49819643740193]",2017_Feb_22_1111,60.0069873115,famFaceFilter,001,21,
3,./img/edges5_NicoleKidman5_1.png,0,59,59,2,,,1.ja,1.968,None,act,1.156,None,None,None,None,None,Nickole Kidmann,"['lshift', 'n', 'i', 'c', 'k', 'o', 'l', 'e', 'space', 'lshift', 'k', 'i', 'd', 'm', 'a', 'n', 'n', 'return']","[0.716825755458558, 1.0999409451324027, 1.4832094656885602, 1.7831371948705055, 2.1327877576404717, 2.432774188811891, 2.6325851876463275, 2.8492686790123116, 3.0491162462858483, 3.4489300679415464, 3.698920685244957, 3.9321966317656916, 4.765186253702268, 5.381540179892909, 5.64817040640628, 5.998035889031598, 6.164571197965415, 6.597456696035806]",2017_Feb_22_1111,60.0069873115,famFaceFilter,001,21,
53,./img/edges5_KatjaBurkard4_1.png,0,60,60,52,,,1.ja,1.867,None,None,None,host,0.854,None,None,None,Punkt 12,"['lshift', 'p', 'u', 'n', 'k', 't', 'space', '1', '2', 'return']","[1.016538885596674, 1.6331946619029623, 2.149635229667183, 2.4993669487303123, 2.882514857541537, 3.249083783797687, 3.565675501158694, 3.732154032768449, 4.016047136101406, 4.365406755096046]",2017_Feb_22_1111,60.0069873115,famFaceFilter,001,21,
47,./img/edges5_UrsulavonderLeyen5_1.png,0,61,61,46,,,1.ja,1.9,None,None,None,None,None,polit,1.106,None,van Davart,"['v', 'a', 'n', 'space', 'lshift', 'd', 'a', 'v', 'a', 'r', 't', 'return']","[1.4664383383642416, 1.6829489314986859, 1.9329639277711976, 2.1495107685914263, 2.3994612889073323, 2.7326964648091234, 2.9491829997859895, 3.265893083473202, 3.3987860556226224, 3.648914927325677, 3.848790081363404, 4.448646822827868]",2017_Feb_22_1111,60.0069873115,famFaceFilter,001,21,
67,./img/edges5_LeonardoDiCaprio2_1.png,0,62,62,66,,,1.ja,1.582,None,dummy,0.655,None,None,None,None,None,Leonardo,"['lshift', 'l', 'e', 'o', 'n', 'a', 'r', 'd', 'o', 'return']","[0.7333672072854824, 1.1166168020572513, 1.6330644268891774, 1.849391856987495, 2.166106752323685, 2.416007552354131, 2.71585669144406, 3.265815776481759, 3.465408006130019, 4.032476957887411]",2017_Feb_22_1111,60.0069873115,famFaceFilter,001,21,
58,./img/edges5_HughLaurie(DrHouse)5_3.png,0,63,63,57,,,1.ja,1.317,None,act,1.373,None,None,None,None,None,Arzt,"['lshift', 'a', 'r', 'z', 't', 'return']","[0.7334429103939328, 1.6665768494131044, 2.3995369920448866, 2.6993627144838683, 2.899475884216372, 3.4490917390212417]",2017_Feb_22_1111,60.0069873115,famFaceFilter,001,21,
7,./img/edges5_AngelaMerkel3_1.png,0,64,64,6,,,1.ja,1.639,None,None,None,None,None,polit,1.205,None,Angela Merkel,"['lshift', 'a', 'n', 'g', 'e', 'l', 'a', 'space', 'lshift', 'm', 'e', 'r', 'k', 'e', 'l', 'return']","[0.6667850329831708, 1.0166793854441494, 1.7163291943725199, 2.149583905527834, 2.316286659479374, 2.6658785202307627, 2.8158422244596295, 3.1321567914274056, 4.032004454958951, 4.265487622702494, 4.73180406622123, 4.931761338870274, 5.481393232475966, 5.648049473908031, 5.798128978232853, 6.281133788899751]",2017_Feb_22_1111,60.0069873115,famFaceFilter,001,21,
9,./img/edges5_RobertSeanLeonard(Wilson)8_1.png,0,65,65,8,,,2.nein,1.868,None,dummy,0.64,None,None,None,None,None,,['return'],[0.8168279688397888],2017_Feb_22_1111,60.0069873115,famFaceFilter,001,21,
17,./img/edges5_NeilPatrickHarris(Barney)3_7.png,0,66,66,16,,,1.ja,2.071,None,act,0.756,None,None,None,None,None,Steven,"['lshift', 's', 't', 'e', 'v', 'e', 'n', 'return']","[1.3331630013126414, 1.8329363731318153, 2.316049926856067, 2.499286433972884, 2.7992404667893425, 2.9158819685690105, 3.315691299387254, 3.865566661901539]",2017_Feb_22_1111,60.0069873115,famFaceFilter,001,21,
29,./img/edges5_TomCruise4_1.png,0,67,67,28,,,1.ja,1.688,None,dummy,0.839,None,None,None,None,None,Tom Crueso,"['lshift', 't', 'o', 'm', 'space', 'lshift', 'c', 'r', 'u', 'e', 's', 'o', 'return']","[0.8168629334249999, 1.116792266489938, 1.5999507288215682, 1.8996859924518503, 2.1163011585595086, 2.332939420506591, 2.6159253695514053, 3.1158732434851117, 3.715678981592646, 3.8820972073008306, 4.215320193703519, 4.382034495618427, 4.848563934327103]",2017_Feb_22_1111,60.0069873115,famFaceFilter,001,21,
59,./img/edges5_BastianSchweinsteiger3_1.png,0,68,68,58,,,1.ja,2.867,None,None,None,None,None,sport,1.956,None,Sebastian Sweinsteiger,"['lshift', 's', 'e', 'b', 'a', 's', 't', 'i', 'a', 'n', 'space', 'lshift', 's', 'w', 'e', 'i', 'n', 's', 't', 'e', 'i', 'g', 'e', 'r', 'return']","[0.8165562716312706, 1.1499370797828306, 1.3832005160511471, 1.999625012947945, 2.1494693885033485, 2.8322970667213667, 3.0659364523598924, 3.5823125441384036, 3.782233248348348, 4.049100528267445, 4.332061777589843, 4.698510412854375, 5.098451903322712, 5.564494724996621, 5.847926552552963, 6.0641160490049515, 6.397793254145654, 6.714462599280523, 7.064274191536242, 7.264170516777085, 8.79678941797465, 9.696441087406129, 9.879727314779302, 10.062920517171733, 10.729310354217887]",2017_Feb_22_1111,60.0069873115,famFaceFilter,001,21,
66,./img/edges5_BritneySpears1_1.png,0,69,69,65,,,1.ja,3.166,None,None,None,music,4.138,None,None,None,Bratny Speers,"['lshift', 'b', 'r', 'a', 't', 'n', 'y', 'space', 'lshift', 's', 'p', 'e', 'e', 'r', 's', 'return']","[1.3665580198867247, 2.1661879086168483, 2.5161563603032846, 2.7326881246699486, 3.982215541531332, 5.115007469285047, 5.314845092507312, 5.514913995168172, 5.848010595887899, 6.147900794283487, 6.8640577319893055, 7.414112729020417, 7.580706098378869, 8.630181934480788, 8.89666267944267, 10.013124546705512]",2017_Feb_22_1111,60.0069873115,famFaceFilter,001,21,
51,./img/edges5_Ice-T(OdafinFinTutuola)6_1.png,0,70,70,50,,,1.ja,5.614,None,dummy,0.7,None,None,None,None,None,,['return'],[0.7168960054113995],2017_Feb_22_1111,60.0069873115,famFaceFilter,001,21,
45,./img/edges5_WillSmith4_1.png,0,71,71,44,,,1.ja,1.505,None,dummy,0.723,None,None,None,None,None,Will Smith,"['lshift', 'w', 'i', 'l', 'l', 'space', 'lshift', 's', 'm', 'i', 't', 'h', 'return']","[0.7333668864739593, 0.9833950345637277, 1.5998544960457366, 1.9661796325817704, 2.1163742954377085, 2.3828425301180687, 2.666044040612178, 2.866017352032941, 3.565561625699047, 4.165487013204256, 4.515288982191123, 4.731821388122626, 5.3150173491449095]",2017_Feb_22_1111,60.0069873115,famFaceFilter,001,21,
6,./img/gray_NicoleKidman3_1.png,0,0,0,5,,,1.ja,1.693,None,dummy,0.888,None,None,None,None,None,Nickole Kidmann,"['lshift', 'n', 'i', 'c', 'k', 'o', 'l', 'e', 'space', 'lshift', 'k', 'i', 'd', 'm', 'a', 'n', 'n', 'return']","[0.7999814591603354, 1.1333471908583306, 1.5497043889481574, 1.8996391591790598, 2.2993682959931903, 2.5325037426373456, 2.749034223903436, 2.9493170841014944, 3.13242079000338, 3.515443596203113, 3.78215914912289, 4.01565546868369, 4.848406433360651, 5.098319743672619, 5.448242645157734, 5.731339582678629, 5.8979865216242615, 6.331008670240408]",2017_Feb_22_1111,60.0069873115,famFaceFilter,001,21,
15,./img/gray_GeorgeClooney11_1.png,0,1,1,14,,,1.ja,1.383,None,dummy,0.922,None,None,None,None,None,George Clooni,"['lshift', 'g', 'e', 'o', 'r', 'g', 'e', 'space', 'lshift', 'c', 'l', 'o', 'o', 'n', 'i', 'return']","[0.7835256545222364, 1.249588043516269, 1.6497175086697098, 2.3494949864398222, 2.7827230731782038, 3.0660756691067945, 3.2158372844860423, 3.5657730170350987, 4.182152605295414, 4.931718675652519, 5.731444155622739, 6.097942511172732, 6.247891780454665, 6.7476885689247865, 7.514034748368431, 8.096933670924045]",2017_Feb_22_1111,60.0069873115,famFaceFilter,001,21,
71,./img/gray_BritneySpears7_1.png,0,2,2,70,,,1.ja,1.55,None,None,None,music,1.538,None,None,None,Bratny Speers,"['lshift', 'b', 'r', 'a', 't', 'n', 'y', 'space', 'lshift', 's', 'p', 'e', 'e', 'r', 's', 'return']","[1.182647241774248, 1.666354230925208, 2.0497196258220356, 2.299476397485705, 3.6655410639941692, 4.082021760812495, 4.298563148448011, 4.481573829310946, 4.948159083054634, 5.198437115584966, 5.8480211814749055, 6.481121856049867, 6.731028430047445, 7.030857039499097, 7.197434370056726, 7.59742397692753]",2017_Feb_22_1111,60.0069873115,famFaceFilter,001,21,
63,./img/gray_JoshRadnor(Ted)3_1.png,0,3,3,62,,,1.ja,1.565,None,act,0.873,None,None,None,None,None,Ted Mosby,"['lshift', 't', 'e', 'd', 'space', 'lshift', 'm', 'o', 's', 'b', 'y', 'return']","[0.7498865255038254, 1.1832384317822289, 1.4664672081999015, 1.682928722613724, 2.682629117916804, 2.9323775494121946, 3.5487301924731582, 4.515135330555495, 6.131231994455447, 6.630875772796571, 6.7809411629568785, 7.247532832203433]",2017_Feb_22_1111,60.0069873115,famFaceFilter,001,21,
41,./img/gray_RobertSeanLeonard(Wilson)1_1.png,0,4,4,40,,,2.nein,3.164,None,dummy,0.839,None,None,None,None,None,,['return'],[0.6997303236857988],2017_Feb_22_1111,60.0069873115,famFaceFilter,001,21,
57,./img/gray_UrsulavonderLeyen5_1.png,0,5,5,56,,,1.ja,1.273,None,None,None,None,None,polit,1.255,None,van Davart,"['v', 'a', 'n', 'space', 'lshift', 'd', 'a', 'v', 'a', 'r', 't', 'return']","[1.3332047022122424, 1.4994936552247964, 1.816355786693748, 2.032935025898041, 2.9324923871899955, 3.149250940128695, 3.4158728264737874, 3.7654098345374223, 3.8987704979954287, 4.181652836414287, 4.38181989651639, 5.0981397883733734]",2017_Feb_22_1111,60.0069873115,famFaceFilter,001,21,
11,./img/gray_EmilyDeschanel6_12.png,0,6,6,10,,,2.nein,1.666,None,dummy,0.722,None,None,None,None,None,,['return'],[0.8164055069501046],2017_Feb_22_1111,60.0069873115,famFaceFilter,001,21,
7,./img/gray_OmarEpps(DrEricForeman)1_5.png,0,7,7,6,,,1.ja,2.755,None,dummy,0.722,None,None,None,None,None,,['return'],[0.850055542337941],2017_Feb_22_1111,60.0069873115,famFaceFilter,001,21,
27,./img/gray_LeonardoDiCaprio1_1.png,0,8,8,26,,,1.ja,1.422,None,dummy,0.673,None,None,None,None,None,Leonardo,"['lshift', 'l', 'e', 'o', 'n', 'a', 'r', 'd', 'o', 'return']","[0.8333787231240422, 1.1833606474101543, 1.733079792058561, 1.8997113337391056, 2.282965419377433, 2.59938327621785, 2.9491550922684837, 3.532350732537452, 3.7156186756910756, 4.315272045234451]",2017_Feb_22_1111,60.0069873115,famFaceFilter,001,21,
61,./img/gray_AlysonHannigan(Lily)8_3.png,0,9,9,60,,,1.ja,1.865,None,dummy,0.722,None,None,None,None,None,Lilly,"['lshift', 'l', 'i', 'l', 'l', 'y', 'return']","[0.8167288490803912, 1.2999610898841638, 1.5998785542324185, 1.9995108167058788, 2.1329895257076714, 2.3158956336264964, 2.69899414293468]",2017_Feb_22_1111,60.0069873115,famFaceFilter,001,21,
9,./img/gray_RobertSeanLeonard(Wilson)8_1.png,0,10,10,8,,,2.nein,1.506,None,dummy,0.673,None,None,None,None,None,,['return'],[0.6666499863204081],2017_Feb_22_1111,60.0069873115,famFaceFilter,001,21,
45,./img/gray_NicoleKidman7_1.png,0,11,11,44,,,1.ja,1.306,None,dummy,0.723,None,None,None,None,None,Nickole Kidmann,"['lshift', 'n', 'i', 'c', 'k', 'o', 'l', 'e', 'space', 'lshift', 'k', 'i', 'd', 'm', 'a', 'n', 'n', 'return']","[0.8333450416394044, 1.2333404224773403, 1.6330833526444621, 1.9496340106998105, 2.782418015296571, 2.9987425583822187, 3.1991248591220938, 3.449049396585906, 3.682296152517665, 4.215335590939503, 4.515214562183246, 4.747991060605273, 5.514817120827502, 5.83095269484329, 6.097933850222034, 6.347746436891612, 6.49751446780283, 6.88170489834738]",2017_Feb_22_1111,60.0069873115,famFaceFilter,001,21,
4,./img/gray_AngelaMerkel1_1.png,0,12,12,3,,,1.ja,1.316,None,None,None,None,None,polit,1.438,None,Angela Merkel,"['lshift', 'a', 'n', 'g', 'e', 'l', 'a', 'space', 'lshift', 'm', 'e', 'r', 'k', 'e', 'l', 'return']","[0.6667981848004274, 1.1667059617175255, 1.8830749322951306, 2.2329558121564332, 2.532592276809737, 2.98262453082134, 3.115944776509423, 3.36581895215204, 3.9322206899814773, 4.148785173485521, 4.582102115178714, 5.681543612212408, 6.014650477736723, 6.164622522133868, 6.33122006157646, 7.130947786994511]",2017_Feb_22_1111,60.0069873115,famFaceFilter,001,21,
70,./img/gray_WillSmith5_1.png,0,13,13,69,,,1.ja,1.733,None,dummy,1.006,None,None,None,None,None,Will Smith,"['lshift', 'w', 'i', 'l', 'l', 'space', 'lshift', 's', 'm', 'i', 't', 'h', 'return']","[1.2998664609913249, 1.7997306123725139, 2.4660303113923874, 2.8491750124376267, 2.9991791344073135, 3.248999740491854, 3.448723809036892, 4.2652800806681626, 4.898467043967685, 6.04782384011196, 6.431116739666322, 6.681025559111731, 8.097069679904962]",2017_Feb_22_1111,60.0069873115,famFaceFilter,001,21,
62,./img/gray_LisaEdelstein(DrLisaCuddy)1_1.png,0,14,14,61,,,2.nein,1.816,None,dummy,0.755,None,None,None,None,None,,['return'],[1.0001148377778009],2017_Feb_22_1111,60.0069873115,famFaceFilter,001,21,
2,./img/gray_BastianSchweinsteiger1_1.png,0,15,15,1,,,1.ja,1.654,None,None,None,None,None,sport,1.122,None,Sebastian Schweinsteiger,"['lshift', 's', 'e', 'b', 'a', 's', 't', 'i', 'a', 'n', 'space', 'lshift', 's', 'c', 'h', 'w', 'e', 'i', 'n', 's', 't', 'e', 'i', 'g', 'e', 'r', 'return']","[0.7334647231327835, 1.0500586859416217, 1.2832092090975493, 1.9496089901949745, 2.099709344940493, 2.5494134452019352, 2.849221524957102, 3.665538818546338, 3.8821203031693585, 4.2653564253414515, 4.498373505688505, 4.748464205098571, 4.981720584270079, 5.4147892454057, 6.097826069511939, 6.331026633706642, 6.630891170032555, 6.88092220510589, 7.247500113066053, 7.530731134931557, 7.863977217202773, 8.047058789554285, 8.346905362443067, 8.763666738203028, 8.946504841616843, 9.446570440311916, 10.012896475032903]",2017_Feb_22_1111,60.0069873115,famFaceFilter,001,21,
35,./img/gray_JoachimLoew4_1.png,0,16,16,34,,,1.ja,2.033,None,None,None,None,None,sport,0.872,None,Löwi,"['lshift', 'l', u'\xf6', 'w', 'i', 'return']","[0.7666845980565995, 1.549936951516429, 2.0829186502669472, 2.9658938212669455, 3.1990879699296784, 3.831917588831857]",2017_Feb_22_1111,60.0069873115,famFaceFilter,001,21,
53,./img/gray_Ice-T(OdafinFinTutuola)5_1.png,0,17,17,52,,,1.ja,1.856,None,dummy,0.623,None,None,None,None,None,,['return'],[0.6669338730280288],2017_Feb_22_1111,60.0069873115,famFaceFilter,001,21,
30,./img/gray_BarackObama4_1.png,0,18,18,29,,,1.ja,1.256,None,None,None,None,None,polit,1.072,None,Barak Obama,"['lshift', 'b', 'a', 'r', 'a', 'k', 'space', 'lshift', 'o', 'b', 'a', 'm', 'a', 'return']","[0.6667455775314011, 1.3166577972006053, 1.6497434915218037, 1.7997581991076004, 1.9997372844954953, 2.449383645085618, 2.682654459204059, 2.8492394883942325, 3.0992073306115344, 3.715630544407759, 3.8655175831518136, 4.198594937304733, 4.365156229090644, 4.848325277038384]",2017_Feb_22_1111,60.0069873115,famFaceFilter,001,21,
39,./img/gray_UrsulavonderLeyen1_1.png,0,19,19,38,,,1.ja,1.799,None,None,None,None,None,polit,1.988,None,van Davart,"['v', 'a', 'n', 'space', 'lshift', 'd', 'a', 'v', 'a', 'r', 't', 'return']","[1.3999668317846954, 1.5665034238190856, 1.8164353391330224, 2.0329978979716543, 2.216472100059036, 2.5494753549573943, 2.7492430490383413, 3.0989686733519193, 3.2491806581092533, 3.5156431188515853, 3.7154756096424535, 4.298856016859645]",2017_Feb_22_1111,60.0069873115,famFaceFilter,001,21,
48,./img/gray_LeonardoDiCaprio2_1.png,0,20,20,47,,,1.ja,1.365,None,act,0.774,None,None,None,None,None,Leonardo,"['lshift', 'l', 'e', 'o', 'n', 'a', 'r', 'd', 'o', 'return']","[0.6334663591114804, 1.2998869906296022, 1.7497001547017135, 1.933050216495758, 2.2828210702282377, 2.499450671224622, 2.765976645576302, 3.31572401849553, 3.4656835526111536, 3.965527815918904]",2017_Feb_22_1111,60.0069873115,famFaceFilter,001,21,
8,./img/gray_BastianSchweinsteiger6_2.png,0,21,21,7,,,1.ja,1.438,None,None,None,None,None,sport,1.022,None,Sebastian Scweinsteiger,"['lshift', 's', 'e', 'b', 'a', 's', 't', 'i', 'a', 'n', 'space', 'lshift', 's', 'c', 'w', 'e', 'i', 'n', 's', 't', 'e', 'i', 'g', 'e', 'r', 'return']","[0.6666904040903319, 1.1333834385150112, 1.3831889681168832, 1.9662880548567045, 2.099517200171249, 2.8157559357059654, 3.0159399969270453, 3.515742238581879, 3.7157386459002737, 4.065236519294558, 4.281988335947972, 4.548422247607959, 4.7484972450183704, 5.0982296056172345, 5.4481967742030974, 5.747832276538247, 5.931251625937875, 6.247818322764942, 6.5309964166081045, 6.830962959676981, 7.030691198306158, 8.546925827948144, 9.529832000029273, 9.729391510540154, 9.846416660322575, 10.429470838425914]",2017_Feb_22_1111,60.0069873115,famFaceFilter,001,21,
18,./img/gray_JasonSegel(Marshall)7_1.png,0,22,22,17,,,1.ja,1.849,None,act,0.856,None,None,None,None,None,Murshel,"['lshift', 'm', 'u', 'r', 's', 'h', 'e', 'l', 'return']","[0.616811031854013, 1.0833160916226916, 1.4498484494106378, 1.7995657335559372, 2.1160615389235318, 2.6326355494675227, 2.8658964195055887, 3.1324563961243257, 3.682206014462281]",2017_Feb_22_1111,60.0069873115,famFaceFilter,001,21,
21,./img/gray_HughLaurie(DrHouse)4_1.png,0,23,23,20,,,1.ja,1.372,None,dummy,0.523,None,None,None,None,None,Arzt,"['lshift', 'a', 'r', 'z', 't', 'return']","[0.8333273989555892, 1.1666527129127644, 1.9829183615511283, 2.416123352450086, 2.632656079134904, 3.1824454737070482]",2017_Feb_22_1111,60.0069873115,famFaceFilter,001,21,
31,./img/gray_AngelaMerkel3_1.png,0,24,24,30,,,1.ja,1.238,None,None,None,None,None,polit,1.055,None,Angela Merkel,"['lshift', 'a', 'n', 'g', 'e', 'l', 'a', 'space', 'lshift', 'm', 'e', 'r', 'k', 'e', 'l', 'return']","[0.7667760191834532, 1.1832669808354694, 1.849643986846786, 2.282938474207185, 2.5494320502039045, 2.9159159708069637, 3.0824570537079126, 3.332349192816764, 3.632272431132151, 3.8488086863362696, 4.298575658671325, 4.498628201778047, 5.031573973654304, 5.1983941315847915, 5.36460673995316, 5.964654984651133]",2017_Feb_22_1111,60.0069873115,famFaceFilter,001,21,
28,./img/gray_GeorgeClooney4_2.png,0,25,25,27,,,1.ja,1.848,None,dummy,0.489,None,None,None,None,None,Georg Clooni,"['lshift', 'g', 'e', 'o', 'r', 'g', 'space', 'lshift', 'c', 'l', 'o', 'o', 'n', 'y', 'backspace', 'i', 'return']","[0.7667619050189387, 1.1332493541995063, 1.499740331870271, 2.03279645065777, 2.449443630204769, 2.982506485277554, 3.2489362268534023, 3.4654352720535826, 4.315126733737998, 4.964652739203302, 5.381477628601715, 5.514769325207453, 5.831514373479877, 6.131257335742703, 7.047202176385326, 7.713852483488154, 8.263728808320593]",2017_Feb_22_1111,60.0069873115,famFaceFilter,001,21,
56,./img/gray_GuentherJauch2_1.png,0,26,26,55,,,1.ja,1.2,None,None,None,host,1.173,None,None,None,wer wird Millioner,"['w', 'e', 'r', 'space', 'w', 'i', 'r', 'd', 'space', 'lshift', 'm', 'i', 'l', 'l', 'i', 'o', 'n', 'e', 'r', 'return']","[0.9168173511570785, 1.1831415574415587, 1.5164335106965154, 1.8330252280575223, 2.049639752600342, 2.3491803052602336, 2.7492597293748986, 2.965925257274648, 3.282314244279405, 3.4988928419188596, 3.798872857587412, 4.19866550801089, 4.465213615912944, 4.615118618123233, 4.881713238515658, 5.098185017763171, 5.581442920665722, 5.9810363692522515, 6.380830944370246, 6.897612496919464]",2017_Feb_22_1111,60.0069873115,famFaceFilter,001,21,
32,./img/gray_MariskaHargitay(Liv)6_5.png,0,27,27,31,,,2.nein,1.616,None,dummy,1.671,None,None,None,None,None,,['return'],[0.8002454577363096],2017_Feb_22_1111,60.0069873115,famFaceFilter,001,21,
24,./img/gray_JoachimLoew1_1.png,0,28,28,23,,,1.ja,1.339,None,None,None,None,None,sport,1.472,None,Löwi,"['lshift', 'l', u'\xf6', 'w', 'i', 'return']","[0.7999343051051255, 1.3499017303111032, 4.631836817454314, 5.16505396575667, 5.481477275752695, 6.097913641366176]",2017_Feb_22_1111,60.0069873115,famFaceFilter,001,21,
13,./img/gray_NeilPatrickHarris(Barney)2_2.png,0,29,29,12,,,1.ja,1.967,None,act,0.756,None,None,None,None,None,Steven,"['lshift', 's', 't', 'e', 'v', 'e', 'n', 'return']","[0.8999567273131106, 1.3166956487693824, 1.883182713005226, 2.0663297236314975, 2.3827315416710917, 2.5161608511407394, 2.7827519430138636, 3.4157980856543873]",2017_Feb_22_1111,60.0069873115,famFaceFilter,001,21,
72,./img/gray_WillSmith4_1.png,0,30,30,71,,,1.ja,1.388,None,dummy,0.723,None,None,None,None,None,Will Smith,"['lshift', 'w', 'i', 'l', 'l', 'lshift', 'space', 'lshift', 's', 'm', 'i', 't', 'h', 'return']","[1.4998262998415157, 1.6830175775685348, 2.3494250572694, 2.765883941348875, 2.899235623073764, 3.199068081798032, 4.81516378337983, 5.115029602806317, 5.364841868693475, 6.014573491527699, 7.480789852968883, 7.847199032781646, 8.130415940511739, 8.730262417142512]",2017_Feb_22_1111,60.0069873115,famFaceFilter,001,21,
55,./img/gray_Ice-T(OdafinFinTutuola)6_1.png,0,31,31,54,,,1.ja,1.449,None,act,0.606,None,None,None,None,None,,['return'],[0.6501008359191474],2017_Feb_22_1111,60.0069873115,famFaceFilter,001,21,
52,./img/gray_EmilyDeschanel5_1.png,0,32,32,51,,,2.nein,1.305,None,dummy,0.639,None,None,None,None,None,,['return'],[0.7003045125748031],2017_Feb_22_1111,60.0069873115,famFaceFilter,001,21,
38,./img/gray_MariskaHargitay(Liv)4_4.png,0,33,33,37,,,2.nein,1.356,None,dummy,0.756,None,None,None,None,None,,['return'],[0.6335574594559148],2017_Feb_22_1111,60.0069873115,famFaceFilter,001,21,
26,./img/gray_BarackObama1_3.png,0,34,34,25,,,1.ja,1.672,None,None,None,None,None,polit,1.571,None,Barak Obama,"['lshift', 'b', 'a', 'r', 'a', 'k', 'space', 'lshift', 'o', 'b', 'a', 'm', 'a', 'return']","[0.833290830545593, 1.1826068240043242, 1.5329958129150327, 1.7003850273322314, 1.9163188653765246, 2.365874125622213, 2.6327580858778674, 2.8324969101231545, 3.065806538128527, 3.59888190345373, 3.7487002961861435, 4.198549707914935, 4.365299936733209, 4.71514970131102]",2017_Feb_22_1111,60.0069873115,famFaceFilter,001,21,
42,./img/gray_NicoleKidman5_1.png,0,35,35,41,,,1.ja,1.813,None,dummy,0.839,None,None,None,None,None,Nickole Kidmann,"['lshift', 'n', 'i', 'c', 'k', 'o', 'l', 'e', 'space', 'lshift', 'k', 'i', 'd', 'm', 'a', 'n', 'n', 'return']","[0.7834473852126393, 1.0831287585024256, 1.5331369543273468, 1.849209335487103, 2.1495361099077854, 2.366075893660309, 2.6159728444181383, 2.832553366693901, 3.015841197979171, 3.449161988974083, 3.7655666939681396, 3.998826280934736, 4.731633413437521, 5.464597726153443, 5.681571840512333, 5.848025993123883, 5.98130806646077, 6.347720774851041]",2017_Feb_22_1111,60.0069873115,famFaceFilter,001,21,
67,./img/gray_AngelaMerkel4_1.png,0,36,36,66,,,1.ja,1.617,None,None,None,None,None,polit,1.772,None,Angela Merkel,"['lshift', 'a', 'n', 'g', 'e', 'l', 'a', 'space', 'lshift', 'm', 'e', 'r', 'k', 'e', 'l', 'return']","[0.783468235633336, 1.1999960865359753, 1.8829732463345863, 2.382756882958347, 2.616018073807936, 2.9991339050175156, 3.1491903134738095, 3.3656826223887037, 3.748741355491802, 4.015638146811398, 4.365289671870414, 4.681891974847531, 5.264896111912094, 5.431594054214656, 5.59817106401897, 6.047956320573576]",2017_Feb_22_1111,60.0069873115,famFaceFilter,001,21,
51,./img/gray_AlysonHannigan(Lily)1_1.png,0,37,37,50,,,1.ja,1.75,None,dummy,0.521,None,None,None,None,None,Lilly,"['lshift', 'l', 'i', 'l', 'l', 'y', 'return']","[0.7177774976589717, 1.0675335956912022, 1.400626347080106, 1.9004552131227683, 2.0337273424083833, 2.1684355854813475, 2.5501124159491155]",2017_Feb_22_1111,60.0069873115,famFaceFilter,001,21,
23,./img/gray_TomCruise4_1.png,0,38,38,22,,,1.ja,1.389,None,dummy,0.606,None,None,None,None,None,Tom Crueso,"['lshift', 't', 'o', 'm', 'space', 'lshift', 'c', 'r', 'u', 'e', 's', 'p', 'backspace', 'o', 'return']","[0.8162993301230017, 1.6335026067972649, 2.349800044321455, 2.6826329672476277, 2.9161283244902734, 3.0827265054977033, 3.615822721272707, 4.032399330084445, 4.4986028604907915, 4.698658932116814, 5.065282069495879, 5.181744899105979, 5.948153950623237, 6.2647360447153915, 7.09752871026285]",2017_Feb_22_1111,60.0069873115,famFaceFilter,001,21,
59,./img/gray_AlysonHannigan(Lily)5_4.png,0,39,39,58,,,1.ja,1.8,None,dummy,0.405,None,None,None,None,None,Lilly,"['lshift', 'l', 'i', 'l', 'l', 'y', 'return']","[0.8168468946241774, 1.150127941480605, 1.466723828954855, 2.149750388227403, 2.26632709329715, 2.399625205434859, 2.799593641073443]",2017_Feb_22_1111,60.0069873115,famFaceFilter,001,21,
5,./img/gray_OmarEpps(DrEricForeman)2_2.png,0,40,40,4,,,1.ja,2.271,None,dummy,0.405,None,None,None,None,None,,['return'],[0.7501989612646867],2017_Feb_22_1111,60.0069873115,famFaceFilter,001,21,
33,./img/gray_KatjaBurkard4_1.png,0,41,41,32,,,1.ja,1.355,None,None,None,host,1.205,None,None,None,Punkt 12,"['lshift', 'p', 'u', 'n', 'k', 't', 'space', '1', '2', 'return']","[0.7334640815970488, 1.1830620050313883, 1.6330426141212229, 2.749305600329535, 3.648824147763662, 4.298756255535409, 4.615087182086427, 4.831826488458319, 5.181641609262442, 6.014603965246351]",2017_Feb_22_1111,60.0069873115,famFaceFilter,001,21,
40,./img/gray_BritneySpears1_1.png,0,42,42,39,,,1.ja,1.965,None,None,None,music,1.221,None,None,None,Bratny Speers,"['lshift', 'b', 'r', 'a', 't', 'n', 'y', 'space', 'lshift', 's', 'p', 'e', 'e', 'r', 's', 'return']","[0.8665726151666604, 1.5164906088029966, 1.8827916871523485, 2.03292604413582, 2.749317148263799, 3.5490105506323744, 3.7155054417962674, 3.932190216262825, 4.232045129319886, 4.431909376959084, 5.331419584195828, 5.631150036206236, 5.897989729390247, 6.164548422879307, 6.330849565390963, 7.064059913245728]",2017_Feb_22_1111,60.0069873115,famFaceFilter,001,21,
19,./img/gray_JasonSegel(Marshall)9_1.png,0,43,43,18,,,1.ja,1.966,None,dummy,0.505,None,None,None,None,None,Murshel,"['lshift', 'm', 'u', 'r', 's', 'h', 'e', 'l', 'return']","[1.0167419367353432, 1.7665116998250596, 2.2162190078233834, 2.8489726028346922, 3.265771188598592, 3.482212173374137, 3.7487638097954914, 4.031841179996263, 4.815115346194943]",2017_Feb_22_1111,60.0069873115,famFaceFilter,001,21,
49,./img/gray_NeilPatrickHarris(Barney)1_1.png,0,44,44,48,,,1.ja,1.498,None,dummy,1.655,None,None,None,None,None,Steven,"['lshift', 's', 't', 'e', 'v', 'e', 'n', 'return']","[0.950014450965682, 1.2333481211098842, 1.8997652241087053, 2.0659374147071503, 2.5659420659649186, 2.716078347613802, 3.1658565471007023, 3.6988934193213936]",2017_Feb_22_1111,60.0069873115,famFaceFilter,001,21,
10,./img/gray_HughLaurie(DrHouse)2_1.png,0,45,45,9,,,1.ja,1.238,None,dummy,0.405,None,None,None,None,None,Arzt,"['lshift', 'a', 'r', 't', 'backspace', 'z', 't', 'return']","[0.99969365898869, 1.3331957204791252, 1.8994967346661724, 2.2327639881696086, 3.4153762653295416, 3.865500582061941, 4.082141089427751, 4.631551006110385]",2017_Feb_22_1111,60.0069873115,famFaceFilter,001,21,
69,./img/gray_OmarEpps(DrEricForeman)3_1.png,0,46,46,68,,,1.ja,1.882,None,dummy,1.189,None,None,None,None,None,,['return'],[0.9999252592097037],2017_Feb_22_1111,60.0069873115,famFaceFilter,001,21,
14,./img/gray_JoshRadnor(Ted)6_2.png,0,47,47,13,,,1.ja,1.839,None,dummy,0.689,None,None,None,None,None,Ted Mosby,"['lshift', 't', 'e', 'd', 'space', 'lshift', 'm', 'o', 's', 'b', 'y', 'return']","[0.8834245780308265, 1.349742946214974, 1.716374744544737, 1.932956549921073, 2.632679495756747, 2.865866908134194, 3.1325045124976896, 3.4157300811784808, 4.931539682700532, 5.548098905477673, 5.697812404454453, 6.181182578904554]",2017_Feb_22_1111,60.0069873115,famFaceFilter,001,21,
12,./img/gray_BarackObama2_1.png,0,48,48,11,,,1.ja,1.581,None,None,None,None,None,polit,1.338,None,Barak Obama,"['lshift', 'b', 'a', 'r', 'a', 'k', 'space', 'lshift', 'o', 'b', 'a', 'm', 'a', 'return']","[0.9665241459442768, 1.2998590831412002, 1.6499244091683067, 1.8497315586719196, 2.0329331012326293, 2.449287091556471, 2.699299521627836, 2.8825231977098156, 3.149200257525081, 3.8322187974117696, 3.9986777616722975, 4.282112796994625, 4.432048593705986, 4.848613013047725]",2017_Feb_22_1111,60.0069873115,famFaceFilter,001,21,
25,./img/gray_MariskaHargitay(Liv)8_8.png,0,49,49,24,,,2.nein,2.115,None,dummy,1.055,None,None,None,None,None,,['return'],[0.6834785325627308],2017_Feb_22_1111,60.0069873115,famFaceFilter,001,21,
22,./img/gray_GuentherJauch4_1.png,0,50,50,21,,,1.ja,1.439,None,None,None,host,1.306,None,None,None,Wer wird Millioner,"['lshift', 'w', 'e', 'r', 'space', 'w', 'i', 'r', 'd', 'space', 'lshift', 'm', 'i', 'l', 'l', 'i', 'o', 'n', 'e', 'r', 'return']","[0.6834182266902644, 1.483286772709107, 1.666650948667666, 1.8998774956853595, 2.166269064939115, 2.5492168095661327, 2.816021217411617, 3.2158501155499835, 3.4158006518846378, 3.7489351041440386, 4.048523131641559, 4.332031945436029, 5.064584702660795, 5.381406095577404, 5.514876785164233, 5.948054830892943, 6.148010499658994, 6.697751457046252, 6.997674053825904, 7.180861482222099, 7.74723852032912]",2017_Feb_22_1111,60.0069873115,famFaceFilter,001,21,
46,./img/gray_GuentherJauch3_1.png,0,51,51,45,,,1.ja,2.285,None,None,None,host,1.304,None,None,None,wer wird millioner,"['w', 'e', 'r', 'space', 'w', 'i', 'r', 'd', 'space', 'm', 'i', 'l', 'l', 'i', 'o', 'n', 'e', 'r', 'return']","[1.1666241638595238, 1.433179328829283, 1.6997348145523574, 1.9996218052110635, 2.232941056456184, 2.5657746209180914, 2.93262935851817, 3.1325240798469167, 3.4990994216059335, 4.415032714343397, 4.765181762864813, 5.081718306784751, 5.231588344409829, 5.548107245675055, 5.715442569722654, 6.281184471503366, 6.497653684549732, 6.764279420196544, 7.264188801025739]",2017_Feb_22_1111,60.0069873115,famFaceFilter,001,21,
17,./img/gray_JasonSegel(Marshall)6_1.png,0,52,52,16,,,1.ja,1.25,None,dummy,0.521,None,None,None,None,None,Murshel,"['lshift', 'm', 'u', 'r', 's', 'h', 'e', 'l', 'return']","[2.7659067164349835, 2.9824471417232417, 3.549035571166314, 3.9654039964079857, 4.282012394134654, 4.548592579609249, 4.731774234038312, 5.064995616587112, 5.664587717939867]",2017_Feb_22_1111,60.0069873115,famFaceFilter,001,21,
64,./img/gray_LisaEdelstein(DrLisaCuddy)2_2.png,0,53,53,63,,,2.nein,1.998,None,dummy,2.188,None,None,None,None,None,,['return'],[0.7001149340067059],2017_Feb_22_1111,60.0069873115,famFaceFilter,001,21,
47,./img/gray_HughLaurie(DrHouse)5_3.png,0,54,54,46,,,1.ja,1.539,None,dummy,0.656,None,None,None,None,None,Arzt,"['lshift', 'a', 'r', 'z', 't', 'return']","[1.0664378251240123, 1.4499241525190882, 2.2495325492927805, 2.732630384969525, 2.932414438633714, 3.5989675506134517]",2017_Feb_22_1111,60.0069873115,famFaceFilter,001,21,
65,./img/gray_KatjaBurkard5_3.png,0,55,55,64,,,1.ja,1.389,None,None,None,host,1.006,None,None,None,Punkt 12,"['lshift', 'p', 'u', 'n', 'k', 't', 'space', '1', '2', 'return']","[0.9167323455621954, 1.316543600987643, 1.8329706961812917, 2.1495582434581593, 3.0658466351160314, 3.515666856255848, 3.7987176020396873, 3.9654466596257407, 4.248585618799552, 4.498550574033288]",2017_Feb_22_1111,60.0069873115,famFaceFilter,001,21,
54,./img/gray_LeonardoDiCaprio3_1.png,0,56,56,53,,,1.ja,1.731,None,act,0.522,None,None,None,None,None,Leonardo,"['lshift', 'l', 'e', 'o', 'n', 'a', 'r', 'd', 'o', 'return']","[0.816647371975705, 1.233308024093276, 1.9163284886453766, 2.1329324275720865, 2.4494054578535724, 2.69944451234187, 3.515589549235301, 3.7487522618612275, 4.248630527406931, 4.781802767072804]",2017_Feb_22_1111,60.0069873115,famFaceFilter,001,21,
1,./img/gray_JoachimLoew8_1.png,0,57,57,0,,,1.ja,1.715,None,None,None,None,None,sport,0.854,None,Löwi,"['lshift', 'l', u'\xf6', 'w', 'i', 'return']","[0.6835074023983907, 1.1000589907052927, 1.3499610738654155, 2.0329738397849724, 2.3828531157632824, 2.932675550255226]",2017_Feb_22_1111,60.0069873115,famFaceFilter,001,21,
34,./img/gray_RobertSeanLeonard(Wilson)2_6.png,0,58,58,33,,,2.nein,1.555,None,dummy,1.372,None,None,None,None,None,,['return'],[0.7166900672600605],2017_Feb_22_1111,60.0069873115,famFaceFilter,001,21,
44,./img/gray_BritneySpears5_1.png,0,59,59,43,,,1.ja,1.756,None,dummy,0.856,None,None,None,None,None,Breatny Speers,"['lshift', 'b', 'r', 'a', 'backspace', 'e', 'a', 't', 'n', 'y', 'space', 'lshift', 's', 'p', 'e', 'e', 'r', 's', 'return']","[3.132330972730415, 3.5988443726673722, 3.998762125702342, 4.248665171209723, 7.713796668482246, 8.297103297198191, 8.596941209136276, 9.03009487586678, 10.129544071562123, 10.312790201947792, 10.51266824293998, 11.09596428606892, 11.34546828630846, 12.04559059816529, 12.645176604768494, 12.84503475765814, 13.311656900623348, 13.461590131133562, 14.111307960585691]",2017_Feb_22_1111,60.0069873115,famFaceFilter,001,21,
43,./img/gray_LisaEdelstein(DrLisaCuddy)6_3.png,0,60,60,42,,,2.nein,1.833,None,dummy,1.238,None,None,None,None,None,,['return'],[1.4331466096627992],2017_Feb_22_1111,60.0069873115,famFaceFilter,001,21,
60,./img/gray_EmilyDeschanel3_1.png,0,61,61,59,,,2.nein,1.239,None,dummy,1.989,None,None,None,None,None,,['return'],[0.7835028794361278],2017_Feb_22_1111,60.0069873115,famFaceFilter,001,21,
37,./img/gray_TomCruise1_1.png,0,62,62,36,,,1.ja,1.506,None,dummy,0.64,None,None,None,None,None,Tom Crueso,"['lshift', 't', 'o', 'm', 'space', 'lshift', 'c', 'r', 'u', 'e', 's', 'o', 'return']","[1.0502315841731615, 1.2666427367948927, 1.7832318237924483, 2.0831662892887834, 2.3163565886206925, 2.4662160406587645, 2.899564097606344, 3.5325252346519846, 4.215649951365776, 4.3654616077838, 4.798624256247422, 5.115176197403343, 5.764901404705597]",2017_Feb_22_1111,60.0069873115,famFaceFilter,001,21,
66,./img/gray_NeilPatrickHarris(Barney)3_7.png,0,63,63,65,,,1.ja,1.517,None,dummy,0.672,None,None,None,None,None,Steven,"['lshift', 's', 't', 'e', 'v', 'e', 'n', 'return']","[0.7833123385498766, 0.9832587048294954, 1.516363581555197, 1.6830156529031228, 1.9162675412371755, 2.0495492937916424, 2.3160540969402064, 2.8492327521380503]",2017_Feb_22_1111,60.0069873115,famFaceFilter,001,21,
29,./img/gray_UrsulavonderLeyen4_1.png,0,64,64,28,,,1.ja,1.471,None,None,None,None,None,polit,1.605,None,van Davart,"['v', 'a', 'n', 'space', 'lshift', 'd', 'a', 'v', 'a', 'r', 't', 'return']","[0.916773404867854, 1.09992779334425, 1.3665560952213127, 1.6496709961793385, 1.8995384355366696, 2.5825665986922104, 2.8156654768972658, 3.165886379254516, 3.267086369887693, 3.5654945835412946, 3.765576638019411, 4.398616685939487]",2017_Feb_22_1111,60.0069873115,famFaceFilter,001,21,
58,./img/gray_GeorgeClooney3_1.png,0,65,65,57,,,1.ja,1.566,None,dummy,0.54,None,None,None,None,None,George Clooni,"['lshift', 'g', 'e', 'i', 'backspace', 'o', 'r', 'g', 'e', 'space', 'lshift', 'c', 'l', 'o', 'o', 'n', 'i', 'return']","[0.716782450734172, 1.4167559225461446, 1.832616238767514, 2.149581018515164, 2.7992366174585186, 3.165785655583022, 3.615560647333041, 3.898754138412187, 4.115335623035207, 4.2985249760968145, 4.764941822475521, 5.497771730064414, 6.0311823062365875, 6.414488999143941, 6.564376679452835, 6.864314352686051, 8.113799747923622, 8.73000002244953]",2017_Feb_22_1111,60.0069873115,famFaceFilter,001,21,
68,./img/gray_Ice-T(OdafinFinTutuola)7_1.png,0,66,66,67,,,1.ja,1.433,None,dummy,0.69,None,None,None,None,None,,['return'],[0.7168000933888834],2017_Feb_22_1111,60.0069873115,famFaceFilter,001,21,
16,./img/gray_JoshRadnor(Ted)1_2.png,0,67,67,15,,,1.ja,1.039,None,dummy,0.69,None,None,None,None,None,Ted Mosby,"['lshift', 't', 'e', 'd', 'space', 'lshift', 'm', 'o', 's', 'b', 'y', 'return']","[0.816186416981509, 1.1832381109998096, 1.6161884058092255, 1.8162534591683652, 2.1657445962773636, 2.382725126139121, 2.9989645353343803, 3.5323626012541354, 4.681382261915132, 5.498189059551805, 5.647957411216339, 6.097960795392282]",2017_Feb_22_1111,60.0069873115,famFaceFilter,001,21,
50,./img/gray_BastianSchweinsteiger3_1.png,0,68,68,49,,,1.ja,3.416,None,None,None,None,None,sport,1.206,None,Sebastian Schweinsteiger,"['lshift', 's', 'e', 'b', 'a', 's', 't', 'i', 'a', 'n', 'space', 'lshift', 's', 'c', 'h', 'w', 'e', 'i', 'n', 's', 't', 'e', 'i', 'g', 'e', 'r', 'return']","[0.8002640627382789, 1.166892011766322, 1.4666295208153315, 2.0829988442419562, 2.2663206777651794, 2.6162172756448854, 3.149305792816449, 3.565738373232307, 3.8490781381260604, 4.232220914534992, 4.465349304140545, 4.715273200039519, 4.948374323692406, 5.265095955313882, 5.814925446873531, 6.131284922477789, 6.481298603583127, 6.66445170895895, 6.964285450812895, 7.180984980950598, 7.797191029443638, 8.01386265209294, 8.313859989662888, 8.76366481356672, 8.929963389848126, 9.879842473368626, 10.862786497018533]",2017_Feb_22_1111,60.0069873115,famFaceFilter,001,21,
3,./img/gray_KatjaBurkard1_1.png,0,69,69,2,,,1.ja,2.217,None,None,None,host,1.605,None,None,None,Punkt 12,"['lshift', 'p', 'u', 'n', 'k', 't', 'space', '1', '2', 'return']","[0.8168302142585162, 1.3498978809802793, 1.7663086486572865, 2.2328698442142922, 2.632602188794408, 3.04927278496325, 3.3324479917937424, 3.5323581103875767, 3.7988828016386833, 4.431784274347592]",2017_Feb_22_1111,60.0069873115,famFaceFilter,001,21,
20,./img/gray_WillSmith1_1.png,0,70,70,19,,,1.ja,2.128,None,act,1.173,None,None,None,None,None,Will Smith,"['lshift', 'w', 'i', 'l', 'l', 'space', 'lshift', 's', 'm', 'i', 't', 'h', 'return']","[0.7500844442693051, 1.1331784627400339, 1.7496773796156049, 2.0828628352610394, 2.216243066039169, 2.482704243651824, 2.682622381631518, 3.0160448906826787, 3.848767627059715, 4.131955344142625, 4.448481623228872, 4.681672884908039, 5.264942624431569]",2017_Feb_22_1111,60.0069873115,famFaceFilter,001,21,
36,./img/gray_TomCruise5_1.png,0,71,71,35,,,1.ja,1.648,None,act,0.822,None,None,None,None,None,Tom Crueso,"['lshift', 't', 'o', 'm', 'space', 'lshift', 'c', 'r', 'u', 'e', 's', 'o', 'return']","[0.5667193059925921, 0.9166143000184093, 1.3497050946753006, 1.6162175964273047, 1.8329113526269794, 2.016317550209351, 2.532888994552195, 3.865461126610171, 4.2653275555348955, 4.482029651902849, 4.814986715064151, 5.031622090056771, 5.4981797570653725]",2017_Feb_22_1111,60.0069873115,famFaceFilter,001,21,
