num,pic,trials.thisRepN,trials.thisTrialN,trials.thisN,trials.thisIndex,key_resp_2.keys,key_resp_2.rt,ratingBekannt.response,ratingBekannt.rt,key_resp_5.keys,ratingK1.response,ratingK1.rt,ratingK2.response,ratingK2.rt,ratingK3.response,ratingK3.rt,key_resp_6.keys,inputText,key_resp_4.keys,key_resp_4.rt,date,frameRate,expName,session,participant,
,,,,,,space,21.639660155,,,,,,,,,,,,,,2017_Feb_23_1505,60.0567736318,famFaceFilter,001,22,
1,./img/smoo15_Ice-T(OdafinFinTutuola)6_1.png,0,0,0,0,,,2.nein,3.972,None,None,None,music,2.222,None,None,None,,['return'],[0.8833561459941848],2017_Feb_23_1505,60.0567736318,famFaceFilter,001,22,
46,./img/smoo15_NeilPatrickHarris(Barney)1_1.png,0,1,1,45,,,1.ja,1.607,None,dummy,2.724,None,None,None,None,None,barney,"['b', 'a', 'r', 'n', 'e', 'y', 'return']","[1.8165008832620515, 2.0497276434589367, 2.216260813023837, 2.632661421091143, 2.782764021926596, 3.2158033836294635, 3.549140780150992]",2017_Feb_23_1505,60.0567736318,famFaceFilter,001,22,
2,./img/smoo15_WillSmith5_1.png,0,2,2,1,,,1.ja,2.94,None,act,0.458,None,None,None,None,None,will smith,"['w', 'i', 'l', 'l', 'space', 's', 'm', 'i', 't', 'h', 'return']","[0.9834613290922789, 1.1668706279970138, 1.4501426018496204, 1.6167809865910385, 1.7832275461032623, 2.049750739473893, 2.4162398983007733, 2.599686407450463, 2.89918204823789, 3.0993558457457766, 3.365960837500097]",2017_Feb_23_1505,60.0567736318,famFaceFilter,001,22,
23,./img/smoo15_JoachimLoew4_1.png,0,3,3,22,,,1.ja,1.224,None,None,None,None,None,sport,0.541,None,,['return'],[0.5834531171758499],2017_Feb_23_1505,60.0567736318,famFaceFilter,001,22,
51,./img/smoo15_LeonardoDiCaprio1_1.png,0,4,4,50,,,1.ja,1.391,None,act,0.574,None,None,None,None,None,leonardo,"['l', 'e', 'o', 'r', 'backspace', 'n', 'a', 'r', 'd', 'o', 'return']","[0.9168331771679732, 1.1000176107108928, 1.349932845130752, 1.7663318493077895, 2.3327981687425563, 3.2491084778093864, 3.46570546615294, 3.6655889595922417, 4.032249734636025, 4.248683446990071, 4.6651331340872275]",2017_Feb_23_1505,60.0567736318,famFaceFilter,001,22,
33,./img/smoo15_Ice-T(OdafinFinTutuola)7_1.png,0,5,5,32,,,2.nein,1.449,None,None,None,music,2.84,None,None,None,,['return'],[0.8668120218599142],2017_Feb_23_1505,60.0567736318,famFaceFilter,001,22,
41,./img/smoo15_AngelaMerkel3_1.png,0,6,6,40,,,1.ja,1.375,None,None,None,None,None,polit,0.524,None,angela merkel,"['a', 'n', 'g', 'e', 'l', 'a', 'space', 'm', 'e', 'r', 'k', 'e', 'l', 'return']","[0.883436019709734, 1.083336835159571, 1.2997750384047322, 1.516298889369864, 1.7328698946976147, 1.916288175385489, 2.0827664919170275, 2.316084673837395, 2.4492229313909775, 2.666032274754798, 2.8825644659473255, 3.015755651867039, 3.19881113266365, 3.515565270137813]",2017_Feb_23_1505,60.0567736318,famFaceFilter,001,22,
22,./img/smoo15_WillSmith1_1.png,0,7,7,21,,,1.ja,1.541,None,act,0.475,None,None,None,None,None,will smith,"['w', 'i', 'l', 'l', 'space', 's', 'm', 'i', 't', 'h', 'return']","[0.8666407264208829, 1.0499948515134747, 1.2831279445408654, 1.4664208010399307, 1.6829969388154495, 1.949661595273028, 2.2325957899165587, 2.416072131418332, 2.732610064536857, 3.015873056606324, 3.732174768822915]",2017_Feb_23_1505,60.0567736318,famFaceFilter,001,22,
12,./img/smoo15_MariskaHargitay(Liv)8_8.png,0,8,8,11,,,2.nein,3.107,None,dummy,1.974,None,None,None,None,None,,['return'],[1.3499514502527745],2017_Feb_23_1505,60.0567736318,famFaceFilter,001,22,
64,./img/smoo15_JoachimLoew8_1.png,0,9,9,63,,,1.ja,1.208,None,None,None,None,None,sport,1.174,None,,['return'],[0.5668615179029075],2017_Feb_23_1505,60.0567736318,famFaceFilter,001,22,
72,./img/smoo15_HughLaurie(DrHouse)2_1.png,0,10,10,71,,,1.ja,1.274,None,act,0.44,None,None,None,None,None,dr house,"['d', 'r', 'space', 'h', 'o', 'u', 's', 'e', 'return']","[1.6330402598814544, 1.8494925773575233, 2.049145431431498, 2.632672327542423, 2.9658255975055, 3.182512403682267, 3.432386578520891, 3.632308886095416, 3.8487961683713365]",2017_Feb_23_1505,60.0567736318,famFaceFilter,001,22,
38,./img/smoo15_AlysonHannigan(Lily)5_4.png,0,11,11,37,,,1.ja,1.341,None,act,0.491,None,None,None,None,None,lily,"['l', 'i', 'l', 'y', 'return']","[1.1999761982742712, 1.416510634912811, 1.633211876099267, 1.7831329166001524, 2.0996127889047784]",2017_Feb_23_1505,60.0567736318,famFaceFilter,001,22,
49,./img/smoo15_TomCruise5_1.png,0,12,12,48,,,1.ja,1.224,None,act,0.408,None,None,None,None,None,tom cruise,"['t', 'o', 'm', 'space', 'c', 'r', 'u', 'i', 's', 'e', 'return']","[0.9333904531986263, 1.3330467716741623, 1.5496479301318686, 1.7495179508960064, 2.032806284425533, 2.282697139718948, 2.649210998450144, 3.099135150498114, 3.3156310937793023, 3.531934570274643, 4.664970820431336]",2017_Feb_23_1505,60.0567736318,famFaceFilter,001,22,
69,./img/smoo15_BritneySpears5_1.png,0,13,13,68,,,1.ja,1.168,None,act,0.425,None,None,None,None,None,britney spears,"['b', 'r', 'i', 't', 'n', 'e', 'y', 'space', 's', 'p', 'e', 'a', 'r', 's', 'return']","[0.9500927208737266, 1.2333326169291468, 1.6164284515944018, 1.8994864665373825, 2.4825434229123857, 2.7157730701110268, 3.0825111526482942, 3.299049759400077, 4.282120701695021, 4.631922348633452, 4.881713121198118, 5.165047005200904, 5.431542290886682, 5.631308058808827, 6.181170589406975]",2017_Feb_23_1505,60.0567736318,famFaceFilter,001,22,
65,./img/smoo15_UrsulavonderLeyen4_1.png,0,14,14,64,,,1.ja,1.779,None,None,None,None,None,polit,1.54,None,von der leyen,"['v', 'o', 'n', 'space', 'd', 'e', 'r', 'space', 'l', 'e', 'y', 'e', 'n', 'return']","[4.148700480301159, 4.3153581117212525, 4.531856942004197, 4.715079548126596, 4.84825982759412, 5.048275802338139, 5.2313059416737815, 5.381431638524191, 6.031003832976239, 6.447551998911877, 6.747609321936579, 6.964327243576918, 7.1808196583006065, 7.647339579735672]",2017_Feb_23_1505,60.0567736318,famFaceFilter,001,22,
24,./img/smoo15_BastianSchweinsteiger1_1.png,0,15,15,23,,,1.ja,1.335,None,None,None,None,None,sport,0.707,None,schweini,"['s', 'c', 'h', 'w', 'e', 'i', 'n', 'i', 'return']","[1.3667088917409274, 1.8496645143532078, 2.032927859278061, 2.4494455513067805, 2.6659068505668984, 2.8326411479229137, 3.0491810377870934, 3.249206315092124, 3.5157856446085134]",2017_Feb_23_1505,60.0567736318,famFaceFilter,001,22,
20,./img/smoo15_NicoleKidman5_1.png,0,16,16,19,,,1.ja,3.04,None,act,1.241,None,None,None,None,None,kylie ,"['k', 'y', 'l', 'i', 'e', 'space', 'return']","[0.8833545421039162, 1.8331547134630455, 2.0330042044370202, 2.2329874598262904, 2.399512930720448, 2.566087480645365, 3.8822789735486367]",2017_Feb_23_1505,60.0567736318,famFaceFilter,001,22,
15,./img/smoo15_LisaEdelstein(DrLisaCuddy)1_1.png,0,17,17,14,,,1.ja,1.224,None,act,0.408,None,None,None,None,None,,['return'],[0.666732533078175],2017_Feb_23_1505,60.0567736318,famFaceFilter,001,22,
56,./img/smoo15_MariskaHargitay(Liv)6_5.png,0,18,18,55,,,2.nein,2.591,None,dummy,2.673,None,None,None,None,None,,['return'],[0.6674132239440951],2017_Feb_23_1505,60.0567736318,famFaceFilter,001,22,
58,./img/smoo15_EmilyDeschanel3_1.png,0,19,19,57,,,2.nein,1.441,None,None,None,host,1.308,None,None,None,,['return'],[0.600129081058185],2017_Feb_23_1505,60.0567736318,famFaceFilter,001,22,
68,./img/smoo15_AlysonHannigan(Lily)8_3.png,0,20,20,67,,,1.ja,1.357,None,act,0.408,None,None,None,None,None,lily,"['l', 'i', 'l', 'y', 'return']","[0.9002444648958772, 1.1500451815782071, 1.3500361356391295, 1.6166199560466339, 2.0331864063273315]",2017_Feb_23_1505,60.0567736318,famFaceFilter,001,22,
25,./img/smoo15_JasonSegel(Marshall)6_1.png,0,21,21,24,,,1.ja,1.124,None,act,0.427,None,None,None,None,None,marshall,"['m', 'a', 'r', 's', 'h', 'a', 'l', 'l', 'return']","[0.8666513120942909, 1.1496920050258268, 1.3498032508277902, 1.6830473009576963, 2.1327109812882554, 2.3163066521974542, 2.566031023720825, 2.716086149415787, 2.982518562619589]",2017_Feb_23_1505,60.0567736318,famFaceFilter,001,22,
30,./img/smoo15_KatjaBurkard4_1.png,0,22,22,29,,,1.ja,1.224,None,None,None,host,0.758,None,None,None,,['return'],[1.0990491819993622],2017_Feb_23_1505,60.0567736318,famFaceFilter,001,22,
6,./img/smoo15_AlysonHannigan(Lily)1_1.png,0,23,23,5,,,1.ja,1.041,None,act,0.408,None,None,None,None,None,lily,"['l', 'i', 'l', 'y', 'return']","[0.799978892809122, 1.0330959469383743, 1.2661324857954241, 1.499566468564808, 1.7994804038344228]",2017_Feb_23_1505,60.0567736318,famFaceFilter,001,22,
31,./img/smoo15_BritneySpears1_1.png,0,24,24,30,,,1.ja,1.325,None,None,None,music,0.957,None,None,None,britney,"['b', 'r', 'i', 't', 'n', 'e', 'y', 'return']","[0.9834908406655813, 1.2508859085764925, 1.449918057265677, 1.7497062475677012, 2.5990608903957764, 2.7820227040238024, 3.0825416265561216, 3.5490804738919906]",2017_Feb_23_1505,60.0567736318,famFaceFilter,001,22,
8,./img/smoo15_AngelaMerkel4_1.png,0,25,25,7,,,1.ja,1.341,None,None,None,None,None,polit,0.575,None,angela merkel,"['a', 'n', 'g', 'e', 'l', 'a', 'space', 'm', 'e', 'r', 'k', 'e', 'l', 'return']","[0.8000895612112799, 0.9667808743188289, 1.1997288784541524, 1.3664846679357652, 1.5827717847541862, 1.7829811886176685, 2.882425569084262, 3.115834531172368, 3.2822198220901555, 3.482456171303056, 3.648972660414074, 3.766545166661672, 3.9156389207619213, 4.1488656809588065]",2017_Feb_23_1505,60.0567736318,famFaceFilter,001,22,
10,./img/smoo15_KatjaBurkard5_3.png,0,26,26,9,,,1.ja,1.484,None,None,None,host,0.607,None,None,None,,['return'],[0.5667668883988881],2017_Feb_23_1505,60.0567736318,famFaceFilter,001,22,
53,./img/smoo15_GuentherJauch4_1.png,0,27,27,52,,,1.ja,1.375,None,None,None,host,0.508,None,None,None,,['return'],[4.315459798339361],2017_Feb_23_1505,60.0567736318,famFaceFilter,001,22,
27,./img/smoo15_JasonSegel(Marshall)9_1.png,0,28,28,26,,,1.ja,1.517,None,act,2.341,None,None,None,None,None,marshall,"['m', 'a', 'r', 's', 'h', 'a', 'l', 'l', 'return']","[0.9000972278045083, 1.1332492467327029, 1.3332167840017064, 1.6497672274608703, 1.9331097724689243, 2.116205350512246, 2.3662011002043073, 2.53238718799912, 2.7825603279115967]",2017_Feb_23_1505,60.0567736318,famFaceFilter,001,22,
50,./img/smoo15_OmarEpps(DrEricForeman)2_2.png,0,29,29,49,,,1.ja,1.308,None,act,0.709,None,None,None,None,None,,['return'],[1.1501276215176404],2017_Feb_23_1505,60.0567736318,famFaceFilter,001,22,
19,./img/smoo15_NicoleKidman7_1.png,0,30,30,18,,,1.ja,2.622,None,act,1.046,None,None,None,None,None,kylie,"['k', 'y', 'l', 'i', 'e', 'return']","[0.9500314522802, 1.36642179545197, 1.5161583886165317, 1.7164261740708753, 1.8663616495814495, 2.0662586156950056]",2017_Feb_23_1505,60.0567736318,famFaceFilter,001,22,
29,./img/smoo15_GuentherJauch3_1.png,0,31,31,28,,,1.ja,1.308,None,None,None,host,0.741,None,None,None,,['return'],[1.0168440515408292],2017_Feb_23_1505,60.0567736318,famFaceFilter,001,22,
5,./img/smoo15_BarackObama1_3.png,0,32,32,4,,,1.ja,1.141,None,None,None,None,None,polit,0.574,None,barack obama,"['b', 'a', 'r', 'a', 'c', 'k', 'space', 'o', 'n', 'backspace', 'b', 'a', 'm', 'a', 'return']","[0.8166718579232111, 1.5165205469520515, 1.7164739699901475, 1.882755328843814, 2.549282564016721, 2.71596297067299, 2.915873088684748, 3.0489558516474062, 3.3657658044903656, 3.9487730402788657, 4.248481998421084, 4.431961868480357, 4.581875531087462, 4.665303467192643, 4.965163190983731]",2017_Feb_23_1505,60.0567736318,famFaceFilter,001,22,
70,./img/smoo15_JasonSegel(Marshall)7_1.png,0,33,33,69,,,1.ja,1.634,None,act,0.525,None,None,None,None,None,marshall,"['m', 'a', 'r', 's', 'h', 'a', 'l', 'l', 'return']","[0.7164088520612495, 1.4831503348441402, 1.766494804519425, 1.9996102547593182, 2.4494487590864082, 2.582822146896433, 2.8326825282829304, 3.0159567796590636, 3.299223621063902]",2017_Feb_23_1505,60.0567736318,famFaceFilter,001,22,
45,./img/smoo15_RobertSeanLeonard(Wilson)2_6.png,0,34,34,44,,,1.ja,1.175,None,act,0.475,None,None,None,None,None,wilson,"['w', 'i', 'l', 's', 'o', 'n', 'return']","[0.7666247196002587, 0.9499506162301259, 1.1332431519513193, 1.3497387744546359, 1.4998724907545693, 1.7330100746739845, 2.082977563825807]",2017_Feb_23_1505,60.0567736318,famFaceFilter,001,22,
44,./img/smoo15_GuentherJauch2_1.png,0,35,35,43,,,1.ja,1.524,None,None,None,host,0.507,None,None,None,,['return'],[0.6000838513627968],2017_Feb_23_1505,60.0567736318,famFaceFilter,001,22,
9,./img/smoo15_EmilyDeschanel6_12.png,0,36,36,8,,,2.nein,3.39,None,dummy,2.974,None,None,None,None,None,,['return'],[0.7666930453087843],2017_Feb_23_1505,60.0567736318,famFaceFilter,001,22,
28,./img/smoo15_HughLaurie(DrHouse)5_3.png,0,37,37,27,,,1.ja,1.957,None,act,0.408,None,None,None,None,None,dr house,"['d', 'r', 'period', 'space', 'h', 'o', 'u', 's', 'e', 'return']","[1.8331239187773463, 2.5160124346375596, 2.7993315628527853, 3.665430816049593, 4.132083218788466, 4.465079949099163, 4.681851761440157, 5.131817614624197, 5.298398259330497, 5.548303549632692]",2017_Feb_23_1505,60.0567736318,famFaceFilter,001,22,
54,./img/smoo15_LisaEdelstein(DrLisaCuddy)6_3.png,0,38,38,53,,,2.nein,1.668,None,act,1.191,None,None,None,None,None,,['return'],[1.0166849456654745],2017_Feb_23_1505,60.0567736318,famFaceFilter,001,22,
48,./img/smoo15_JoshRadnor(Ted)6_2.png,0,39,39,47,,,1.ja,1.591,None,act,0.408,None,None,None,None,None,ted,"['t', 'e', 'd', 'return']","[0.7835322851806268, 0.9499631265716744, 1.6497309795504407, 2.115899328323394]",2017_Feb_23_1505,60.0567736318,famFaceFilter,001,22,
71,./img/smoo15_AngelaMerkel1_1.png,0,40,40,70,,,1.ja,1.208,None,None,None,None,None,polit,0.658,None,angela,"['a', 'n', 'g', 'e', 'l', 'a', 'return']","[0.9333006353654127, 1.1167160290515312, 1.299933823504034, 1.7996953250785737, 2.0664347228048427, 2.1994777092986624, 2.516151010723661]",2017_Feb_23_1505,60.0567736318,famFaceFilter,001,22,
57,./img/smoo15_UrsulavonderLeyen5_1.png,0,41,41,56,,,1.ja,1.874,None,None,None,None,None,polit,0.774,None,von der leyen,"['v', 'o', 'n', 'space', 'd', 'e', 'r', 'space', 'l', 'e', 'y', 'e', 'n', 'return']","[0.8332191898361998, 1.016618865401142, 1.2334442476649201, 1.4331712014509321, 1.5498522657026115, 1.716322562784626, 1.89964428930125, 2.0492724595105756, 2.599315267330894, 2.8157823405945237, 3.132427734335579, 3.332303529102319, 3.548931632910353, 3.948876972342987]",2017_Feb_23_1505,60.0567736318,famFaceFilter,001,22,
13,./img/smoo15_GeorgeClooney3_1.png,0,42,42,12,,,1.ja,3.674,None,act,0.908,None,None,None,None,None,george clooney,"['g', 'e', 'o', 'r', 'g', 'e', 'space', 'c', 'l', 'o', 'o', 'n', 'e', 'y', 'return']","[0.8666541990960468, 1.049899901232493, 1.2998773665794943, 1.6496703525126577, 1.8997161435690941, 2.099591296781, 2.3161943799059372, 3.0324999414578997, 3.315778330870671, 3.565481851826007, 3.7488452794796103, 3.9485523450321125, 4.181997234252776, 4.51524802071981, 5.06503099838028]",2017_Feb_23_1505,60.0567736318,famFaceFilter,001,22,
21,./img/smoo15_NeilPatrickHarris(Barney)3_7.png,0,43,43,20,,,1.ja,2.101,None,act,0.675,None,None,None,None,None,barney,"['b', 'a', 'r', 'n', 'e', 'y', 'return']","[0.7834751867003433, 1.1999354594709075, 1.366518991178964, 1.716435476632796, 1.8496879311451266, 2.549455784123893, 3.2489843367320645]",2017_Feb_23_1505,60.0567736318,famFaceFilter,001,22,
37,./img/smoo15_Ice-T(OdafinFinTutuola)5_1.png,0,44,44,36,,,2.nein,1.924,None,None,None,music,0.625,None,None,None,,['return'],[0.6501284234627747],2017_Feb_23_1505,60.0567736318,famFaceFilter,001,22,
43,./img/smoo15_JoachimLoew1_1.png,0,45,45,42,,,1.ja,1.224,None,None,None,None,None,sport,1.641,None,,['return'],[0.5668320063286956],2017_Feb_23_1505,60.0567736318,famFaceFilter,001,22,
4,./img/smoo15_UrsulavonderLeyen1_1.png,0,46,46,3,,,1.ja,1.941,None,None,None,None,None,polit,0.808,None,von der leyen,"['v', 'o', 'n', 'space', 'd', 'e', 'r', 'space', 'l', 'e', 'y', 'e', 'n', 'return']","[0.9499897511441304, 1.133272984303403, 1.3498779920973902, 1.5329979492671555, 1.6496790135179253, 1.8330122880424824, 1.9996635039033208, 2.1828395972188446, 2.3661937223114364, 2.5660919715373893, 2.8826610201194853, 3.1492089133935224, 3.3325476411437194, 3.5990114905880546]",2017_Feb_23_1505,60.0567736318,famFaceFilter,001,22,
14,./img/smoo15_BritneySpears7_1.png,0,47,47,13,,,1.ja,1.358,None,act,2.39,None,None,None,None,None,britney,"['b', 'r', 'i', 't', 'n', 'e', 's', 'backspace', 'y', 'return']","[1.3832000875081576, 1.6831938964933215, 2.3327275975880184, 2.582996008560258, 2.816080022556889, 2.9659750800419715, 3.199237446594452, 3.7157435585377243, 4.14879543058214, 4.398582674589306]",2017_Feb_23_1505,60.0567736318,famFaceFilter,001,22,
34,./img/smoo15_EmilyDeschanel5_1.png,0,48,48,33,,,2.nein,1.617,None,dummy,0.875,None,None,None,None,None,,['return'],[1.3499739047119874],2017_Feb_23_1505,60.0567736318,famFaceFilter,001,22,
17,./img/smoo15_GeorgeClooney11_1.png,0,49,49,16,,,1.ja,1.391,None,act,0.558,None,None,None,None,None,george clooney,"['g', 'e', 'o', 'r', 'g', 'e', 'space', 'c', 'l', 'o', 'o', 'n', 'e', 'y', 'return']","[0.9832528234073834, 1.1666361392963154, 1.4498025771945322, 1.782984717175168, 2.0829130874526527, 2.249414499998238, 2.649383897779444, 3.1323472190633765, 3.482202756701554, 3.98210379669581, 4.14879895913964, 4.415261204694616, 4.681528096461989, 5.015138154262786, 5.264988591531619]",2017_Feb_23_1505,60.0567736318,famFaceFilter,001,22,
42,./img/smoo15_OmarEpps(DrEricForeman)1_5.png,0,50,50,41,,,1.ja,1.352,None,act,0.408,None,None,None,None,None,,['return'],[0.6169195626771398],2017_Feb_23_1505,60.0567736318,famFaceFilter,001,22,
3,./img/smoo15_JoshRadnor(Ted)3_1.png,0,51,51,2,,,1.ja,1.358,None,act,0.458,None,None,None,None,None,ted,"['t', 'e', 'd', 'return']","[0.8334735667722271, 1.0667198944256597, 1.6996985649357157, 1.9162070185584525]",2017_Feb_23_1505,60.0567736318,famFaceFilter,001,22,
63,./img/smoo15_RobertSeanLeonard(Wilson)8_1.png,0,52,52,62,,,1.ja,1.224,None,dummy,0.408,None,None,None,None,None,wilson,"['w', 'i', 'l', 's', 'o', 'n', 'return']","[1.599845834104599, 1.8666131395157208, 2.0829281640180852, 2.4655765134066314, 2.63234064311564, 2.865462829691751, 3.165473639909578]",2017_Feb_23_1505,60.0567736318,famFaceFilter,001,22,
35,./img/smoo15_KatjaBurkard1_1.png,0,53,53,34,,,1.ja,2.941,None,None,None,host,0.79,None,None,None,,['return'],[0.6500947417753196],2017_Feb_23_1505,60.0567736318,famFaceFilter,001,22,
52,./img/smoo15_BastianSchweinsteiger3_1.png,0,54,54,51,,,1.ja,1.258,None,None,None,None,None,sport,0.925,None,schweini,"['s', 'c', 'h', 'w', 'e', 'i', 'n', 'i', 'return']","[0.866611856403324, 1.0332508827013953, 1.216610781797499, 1.4665215253253336, 1.649724884769057, 1.8329856634700263, 2.016175229460714, 2.2162845505954465, 2.532694172522497]",2017_Feb_23_1505,60.0567736318,famFaceFilter,001,22,
40,./img/smoo15_NeilPatrickHarris(Barney)2_2.png,0,55,55,39,,,1.ja,1.491,None,act,0.459,None,None,None,None,None,barney,"['b', 'a', 'r', 'n', 'e', 'y', 'return']","[0.8001136195598519, 1.033298678619758, 1.1999155712373977, 1.6163966945759967, 1.7995971670179642, 2.1329262233111876, 2.699404732309631]",2017_Feb_23_1505,60.0567736318,famFaceFilter,001,22,
32,./img/smoo15_TomCruise1_1.png,0,56,56,31,,,1.ja,1.624,None,act,0.407,None,None,None,None,None,tom cruise,"['t', 'o', 'm', 'space', 'c', 'r', 'u', 'i', 's', 'e', 'return']","[1.150042615354323, 1.3500672511027005, 1.566586931954589, 1.7665984158056744, 2.0163436378979895, 2.2494895620448006, 2.7160338626063094, 2.899245241499557, 3.1156449513873667, 3.315810087889986, 3.53223064834674]",2017_Feb_23_1505,60.0567736318,famFaceFilter,001,22,
59,./img/smoo15_JoshRadnor(Ted)1_2.png,0,57,57,58,,,1.ja,1.142,None,act,0.424,None,None,None,None,None,ted,"['t', 'e', 'd', 'return']","[0.7667219153263432, 1.0001000827287498, 2.099482232268201, 2.3326166084079887]",2017_Feb_23_1505,60.0567736318,famFaceFilter,001,22,
66,./img/smoo15_NicoleKidman3_1.png,0,58,58,65,,,1.ja,1.292,None,act,0.975,None,None,None,None,None,kylie,"['k', 'y', 'l', 'i', 'e', 'return']","[1.249870004724471, 1.5830139721265368, 2.032863062127035, 2.2662245490737405, 2.4327387927387463, 2.7327130342673627]",2017_Feb_23_1505,60.0567736318,famFaceFilter,001,22,
55,./img/smoo15_MariskaHargitay(Liv)4_4.png,0,59,59,54,,,2.nein,3.756,None,None,None,host,2.224,None,None,None,,['return'],[0.7334488989463352],2017_Feb_23_1505,60.0567736318,famFaceFilter,001,22,
18,./img/smoo15_HughLaurie(DrHouse)4_1.png,0,60,60,17,,,1.ja,2.357,None,act,0.758,None,None,None,None,None,dr house,"['d', 'r', 'space', 'h', 'o', 'u', 's', 'e', 'return']","[1.3832292783035882, 1.983290033652338, 2.1662082214752445, 2.9825089392797963, 3.3824318242541267, 3.5822883723431005, 3.8821904388269104, 4.098785502503233, 4.565221700886468]",2017_Feb_23_1505,60.0567736318,famFaceFilter,001,22,
7,./img/smoo15_LisaEdelstein(DrLisaCuddy)2_2.png,0,61,61,6,,,1.ja,1.867,None,act,0.408,None,None,None,None,None,,['return'],[0.6002256352294353],2017_Feb_23_1505,60.0567736318,famFaceFilter,001,22,
39,./img/smoo15_BarackObama2_1.png,0,62,62,38,,,1.ja,1.074,None,None,None,None,None,polit,0.708,None,barack,"['b', 'a', 'r', 'a', 'c', 'k', 'return']","[0.783395633762666, 1.0000198882344193, 1.1831398454041846, 1.4332064870286558, 2.0663500374184878, 2.232873262866633, 2.5160496448825143]",2017_Feb_23_1505,60.0567736318,famFaceFilter,001,22,
16,./img/smoo15_WillSmith4_1.png,0,63,63,15,,,1.ja,1.474,None,dummy,0.941,None,None,None,None,None,will smith,"['w', 'i', 'l', 'l', 'space', 's', 'm', 'i', 't', 'h', 'return']","[0.9666916980422684, 1.1498764523630598, 1.4332417726063795, 1.5830175006840363, 1.7661939147783414, 1.9329580444864405, 2.1496047534164973, 2.349443337939192, 2.649086215817988, 2.8325352911915616, 3.748809993902796]",2017_Feb_23_1505,60.0567736318,famFaceFilter,001,22,
67,./img/smoo15_GeorgeClooney4_2.png,0,64,64,66,,,1.ja,3.64,None,act,0.608,None,None,None,None,None,george clooney,"['g', 'e', 'o', 'r', 'g', 'e', 'space', 'c', 'l', 'o', 'o', 'n', 'e', 'y', 'return']","[0.9667667600879213, 1.13346897964675, 1.3996707534852249, 1.799433570248766, 2.0329086125993854, 2.199559828460224, 2.3829139535528157, 3.0325798151743584, 3.4155056375120694, 3.682382969768696, 3.832239533896427, 4.065894211914383, 4.232070676369403, 4.631677915815089, 6.197823136496481]",2017_Feb_23_1505,60.0567736318,famFaceFilter,001,22,
47,./img/smoo15_BarackObama4_1.png,0,65,65,46,,,1.ja,1.151,None,None,None,None,None,polit,0.791,None,barack,"['b', 'a', 'r', 'a', 'c', 'k', 'return']","[0.9499429175593832, 1.3830352076283816, 1.5828856609359718, 1.7662715430478784, 2.399416376550107, 2.565918430651436, 2.932510559208822]",2017_Feb_23_1505,60.0567736318,famFaceFilter,001,22,
36,./img/smoo15_BastianSchweinsteiger6_2.png,0,66,66,35,,,1.ja,1.341,None,None,None,None,None,sport,1.258,None,schweini,"['s', 'c', 'h', 'w', 'e', 'i', 'n', 'i', 'return']","[0.7335996645952036, 0.8667712830574601, 1.0667769929059432, 1.2668641803593346, 1.500077788659837, 1.6664723821395455, 1.8830267070125046, 2.9327107246663218, 3.349173242882898]",2017_Feb_23_1505,60.0567736318,famFaceFilter,001,22,
61,./img/smoo15_OmarEpps(DrEricForeman)3_1.png,0,67,67,60,,,1.ja,1.358,None,act,0.458,None,None,None,None,None,,['return'],[1.0834404464458203],2017_Feb_23_1505,60.0567736318,famFaceFilter,001,22,
26,./img/smoo15_TomCruise4_1.png,0,68,68,25,,,1.ja,1.091,None,dummy,0.475,None,None,None,None,None,tom cruise,"['t', 'o', 'm', 'space', 'c', 'r', 'u', 'i', 's', 'e', 'return']","[1.0167106079034056, 1.4163925886177822, 1.6331063401448773, 1.8164380107791658, 2.066179704313072, 2.2995998936303295, 2.616036140129836, 2.832627996026531, 2.982577906544975, 3.1657424518534754, 3.499097491163411]",2017_Feb_23_1505,60.0567736318,famFaceFilter,001,22,
62,./img/smoo15_RobertSeanLeonard(Wilson)1_1.png,0,69,69,61,,,1.ja,1.489,None,act,0.425,None,None,None,None,None,wilson,"['w', 'i', 'l', 's', 'o', 'n', 'return']","[0.6833985528419362, 0.9165406276533759, 1.1164504248863523, 1.3664477784677729, 1.5162642453487933, 1.7496953411164213, 2.116277846334924]",2017_Feb_23_1505,60.0567736318,famFaceFilter,001,22,
60,./img/smoo15_LeonardoDiCaprio2_1.png,0,70,70,59,,,1.ja,2.124,None,act,0.408,None,None,None,None,None,leonardo,"['l', 'e', 'o', 'n', 'a', 'r', 'd', 'o', 'return']","[0.9498678555128208, 1.1665678135868802, 1.3665385586355114, 1.9658602415265705, 2.1993939862468324, 2.416232841184865, 2.8658737462792487, 3.082538418776494, 3.5156829956558795]",2017_Feb_23_1505,60.0567736318,famFaceFilter,001,22,
11,./img/smoo15_LeonardoDiCaprio3_1.png,0,71,71,10,,,1.ja,1.557,None,act,0.408,None,None,None,None,None,leonardo,"['l', 'e', 'o', 'n', 'a', 'r', 'd', 'o', 'return']","[0.7835608344203138, 1.0334552182721382, 1.233298293685948, 1.4999757812629468, 1.7331226677442828, 1.9660539914248147, 2.2329672508139993, 2.499564223118796, 2.8994457277349284]",2017_Feb_23_1505,60.0567736318,famFaceFilter,001,22,
60,./img/edges5_TomCruise1_1.png,0,0,0,59,,,1.ja,4.101,None,act,2.0,None,None,None,None,None,tom cruise,"['t', 'o', 'm', 'space', 'c', 'r', 'u', 'i', 's', 'e', 'return']","[0.8502595574991574, 1.0334622753871372, 1.2499954289132802, 1.4165603554984045, 1.6664775145864041, 1.8664165026148112, 2.166113271194263, 2.3830313582921008, 2.566268720201151, 2.766068169810751, 3.082673466304186]",2017_Feb_23_1505,60.0567736318,famFaceFilter,001,22,
36,./img/edges5_AngelaMerkel1_1.png,0,1,1,35,,,1.ja,1.306,None,None,None,None,None,polit,0.657,None,angela,"['a', 'n', 'g', 'e', 'l', 'a', 'return']","[0.7668098084923258, 0.9666426190105994, 1.1666098355017311, 1.3332167840017064, 1.533068520420784, 1.683013940048113, 2.5661920542652297]",2017_Feb_23_1505,60.0567736318,famFaceFilter,001,22,
18,./img/edges5_JoshRadnor(Ted)6_2.png,0,2,2,17,,,1.ja,1.173,None,dummy,0.457,None,None,None,None,None,ted,"['t', 'e', 'd', 'return']","[0.7834184089988412, 1.0165765227093289, 1.283207818257324, 1.6163296519780488]",2017_Feb_23_1505,60.0567736318,famFaceFilter,001,22,
65,./img/edges5_LisaEdelstein(DrLisaCuddy)1_1.png,0,3,3,64,,,1.ja,1.173,None,act,0.407,None,None,None,None,None,,['return'],[0.5668759529116869],2017_Feb_23_1505,60.0567736318,famFaceFilter,001,22,
3,./img/edges5_NicoleKidman5_1.png,0,4,4,2,,,1.ja,1.822,None,act,0.89,None,None,None,None,None,kylie,"['k', 'y', 'l', 'i', 'e', 'return']","[0.9165829703470081, 1.216744225435832, 1.416610396863689, 1.6333077887138643, 1.8331948107106655, 2.066352924421153]",2017_Feb_23_1505,60.0567736318,famFaceFilter,001,22,
26,./img/edges5_NicoleKidman7_1.png,0,5,5,25,,,1.ja,1.322,None,act,0.407,None,None,None,None,None,kylie,"['k', 'y', 'l', 'i', 'e', 'return']","[0.9334905359264667, 1.2164882446095362, 1.4164496870971561, 1.699701451936562, 1.8497206504989663, 2.0829660158187835]",2017_Feb_23_1505,60.0567736318,famFaceFilter,001,22,
71,./img/edges5_HughLaurie(DrHouse)4_1.png,0,6,6,70,,,1.ja,1.173,None,act,0.406,None,None,None,None,None,dr house,"['d', 'r', 'space', 'h', 'o', 'u', 's', 'e', 'return']","[0.7341404962635352, 0.9501231947824635, 1.1341608977427313, 1.5672772461603017, 2.0336454396119734, 2.2167872096842984, 2.4000149482544657, 2.566804740200496, 2.816640100904806]",2017_Feb_23_1505,60.0567736318,famFaceFilter,001,22,
40,./img/edges5_NicoleKidman3_1.png,0,7,7,39,,,1.ja,1.956,None,act,0.689,None,None,None,None,None,kylie,"['k', 'y', 'l', 'i', 'e', 'return']","[0.9168428005077658, 1.2167009204085844, 1.3999026759620392, 1.5999112728122782, 1.7496892463359472, 1.9829387817690076]",2017_Feb_23_1505,60.0567736318,famFaceFilter,001,22,
64,./img/edges5_EmilyDeschanel3_1.png,0,8,8,63,,,2.nein,2.223,None,dummy,1.756,None,None,None,None,None,,['return'],[1.083317909258767],2017_Feb_23_1505,60.0567736318,famFaceFilter,001,22,
67,./img/edges5_LeonardoDiCaprio2_1.png,0,9,9,66,,,1.ja,1.374,None,act,0.407,None,None,None,None,None,leonardo,"['l', 'e', 'o', 'n', 'a', 'r', 's', 'backspace', 'd', 'o', 'return']","[0.7169589862905923, 0.8666875600056301, 1.0999855329137063, 1.3665642208734425, 1.6164297347067986, 1.8163674396237184, 1.9830241087101967, 2.4826813574427433, 2.6993688051761637, 2.982233390998772, 3.332336248457068]",2017_Feb_23_1505,60.0567736318,famFaceFilter,001,22,
45,./img/edges5_WillSmith4_1.png,0,10,10,44,,,1.ja,2.472,None,act,0.507,None,None,None,None,None,will smith,"['w', 'i', 'l', 'l', 'space', 's', 'm', 'i', 't', 'h', 'return']","[1.0333679666618991, 1.2165238509651317, 1.5331050891099949, 1.6994044115308498, 2.2828912103950643, 2.4995119363084086, 2.9491611816301884, 3.182286896764708, 3.432260512776338, 3.6656935332121066, 3.9488567633306957]",2017_Feb_23_1505,60.0567736318,famFaceFilter,001,22,
17,./img/edges5_NeilPatrickHarris(Barney)3_7.png,0,11,11,16,,,1.ja,1.356,None,act,0.406,None,None,None,None,None,barney,"['b', 'a', 'r', 'n', 'e', 'y', 'return']","[0.8667478662646317, 1.0999547382270976, 1.2828264132431286, 1.7330825704966628, 1.8996487801932744, 2.2494164246663786, 3.282258315447507]",2017_Feb_23_1505,60.0567736318,famFaceFilter,001,22,
57,./img/edges5_BritneySpears5_1.png,0,12,12,56,,,1.ja,1.09,None,None,None,music,0.873,None,None,None,britney,"['b', 'r', 'i', 't', 'n', 'e', 'y', 'return']","[0.7501142771543527, 1.016395283152633, 1.283215837706848, 1.5996998801256268, 1.9496497264890422, 2.149544447156586, 2.482888580015242, 2.7826709963137546]",2017_Feb_23_1505,60.0567736318,famFaceFilter,001,22,
59,./img/edges5_BastianSchweinsteiger3_1.png,0,13,13,58,,,1.ja,1.406,None,None,None,None,None,sport,0.523,None,schweini,"['s', 'c', 'h', 'w', 'e', 'i', 'n', 'i', 'return']","[1.0335466399956204, 1.233360845390962, 1.449999855650276, 1.6664281147786824, 1.8677413156583498, 2.066353565976897, 2.2662887046699325, 2.4661157411846943, 2.76613713707593]",2017_Feb_23_1505,60.0567736318,famFaceFilter,001,22,
8,./img/edges5_LeonardoDiCaprio3_1.png,0,14,14,7,,,1.ja,1.289,None,act,0.473,None,None,None,None,None,leonardo,"['l', 'e', 'o', 'n', 'a', 'r', 'd', 'o', 'return']","[0.9166785621837334, 1.2164940186139575, 1.3831234215722361, 1.6493871055599811, 1.8663898780432646, 2.0994017169969084, 2.499267824268827, 3.0825583070109133, 3.432329159263645]",2017_Feb_23_1505,60.0567736318,famFaceFilter,001,22,
10,./img/edges5_GuentherJauch4_1.png,0,15,15,9,,,1.ja,6.305,None,None,None,host,1.216,None,None,None,,['return'],[0.6504703727860033],2017_Feb_23_1505,60.0567736318,famFaceFilter,001,22,
49,./img/edges5_RobertSeanLeonard(Wilson)2_6.png,0,16,16,48,,,1.ja,1.939,None,act,0.406,None,None,None,None,None,wilson,"['w', 'i', 'l', 's', 'o', 'n', 'return']","[0.8169021765106663, 1.01680780362949, 1.2167657175596105, 1.4501198266125357, 1.5999545778386164, 1.8498428669081477, 2.133034646266424]",2017_Feb_23_1505,60.0567736318,famFaceFilter,001,22,
31,./img/edges5_GeorgeClooney4_2.png,0,17,17,30,,,1.ja,1.156,None,act,1.106,None,None,None,None,None,george clooney,"['g', 'e', 'o', 'r', 'g', 'e', 'space', 'c', 'l', 'o', 'o', 'n', 'e', 'y', 'return']","[1.0334151210245182, 1.2999925258736766, 1.5328943379799966, 1.7998133713736024, 2.782672600204023, 2.8992458830553005, 3.249226524104415, 4.049104371851172, 4.431939414022054, 4.748294824472396, 4.898507452153353, 5.16478236337025, 5.331535586627979, 5.81474430306389, 5.998028819335559]",2017_Feb_23_1505,60.0567736318,famFaceFilter,001,22,
55,./img/edges5_JoachimLoew1_1.png,0,18,18,54,,,1.ja,1.366,None,None,None,None,None,sport,24.428,None,,['return'],[0.9334270218869278],2017_Feb_23_1505,60.0567736318,famFaceFilter,001,22,
38,./img/edges5_GeorgeClooney11_1.png,0,19,19,37,,,1.ja,1.539,None,act,0.54,None,None,None,None,None,george clooney,"['g', 'e', 'o', 'r', 'g', 'e', 'space', 'c', 'l', 'o', 'o', 'n', 'e', 'y', 'return']","[0.9833602840299136, 1.133320459443894, 1.6327249351306818, 1.999709375153543, 2.782688959880943, 2.9159192807137515, 3.1157562613452683, 3.848789752812081, 4.165466262015798, 4.465160143593494, 4.6319281226378735, 4.814597065972521, 5.015059242880852, 5.348271215212662, 5.564807255741471]",2017_Feb_23_1505,60.0567736318,famFaceFilter,001,22,
48,./img/edges5_GeorgeClooney3_1.png,0,20,20,47,,,1.ja,1.102,None,act,0.407,None,None,None,None,None,george clooney,"['g', 'e', 'o', 'r', 'g', 'e', 'space', 'c', 'l', 'o', 'o', 'n', 'e', 'y', 'return']","[1.0499332621420763, 1.249989654910678, 1.5332664404322713, 1.7331483299813044, 1.9996878830288551, 2.0662958259408697, 2.266313404574248, 2.9324986904239267, 3.4657962463206786, 3.798902361920227, 3.9657640081341015, 4.182289783766464, 4.382175201873906, 4.815277115281788, 5.031812193476981]",2017_Feb_23_1505,60.0567736318,famFaceFilter,001,22,
52,./img/edges5_BarackObama4_1.png,0,21,21,51,,,1.ja,1.567,None,None,None,None,None,polit,0.79,None,barack obama,"['b', 'a', 'r', 'a', 'c', 'k', 'space', 'o', 'b', 'a', 'm', 'a', 'return']","[1.5997245800299424, 1.8330851046430325, 1.9996817882474716, 2.1828421634427286, 2.6158799212553276, 2.8159619762618604, 3.0321759557018595, 3.2491575568392363, 3.6322527499496573, 3.832040651551324, 4.015562543525448, 4.148730954208986, 4.548535472110416]",2017_Feb_23_1505,60.0567736318,famFaceFilter,001,22,
44,./img/edges5_EmilyDeschanel5_1.png,0,22,22,43,,,2.nein,1.516,None,dummy,0.956,None,None,None,None,None,,['return'],[1.6663585059568504],2017_Feb_23_1505,60.0567736318,famFaceFilter,001,22,
6,./img/edges5_GuentherJauch3_1.png,0,23,23,5,,,1.ja,1.323,None,None,None,host,2.372,None,None,None,,['return'],[11.67902570746719],2017_Feb_23_1505,60.0567736318,famFaceFilter,001,22,
35,./img/edges5_WillSmith1_1.png,0,24,24,34,,,1.ja,1.717,None,dummy,0.491,None,None,None,None,None,will smith,"['w', 'i', 'l', 'l', 'space', 's', 'm', 'i', 't', 'h', 'return']","[0.7334104055889838, 0.9667536081906292, 1.3166293548420072, 1.4830252314332029, 1.6997412284063103, 1.8995259222283494, 2.0828591967529064, 2.299257944307101, 2.632666874316783, 2.8159048777824864, 3.5322142886698202]",2017_Feb_23_1505,60.0567736318,famFaceFilter,001,22,
53,./img/edges5_KatjaBurkard4_1.png,0,25,25,52,,,1.ja,4.455,None,None,None,host,1.001,None,None,None,,['return'],[0.7168306750991178],2017_Feb_23_1505,60.0567736318,famFaceFilter,001,22,
16,./img/edges5_BritneySpears7_1.png,0,26,26,15,,,1.ja,1.29,None,act,0.407,None,None,None,None,None,britney,"['b', 'r', 'i', 't', 'n', 'e', 'y', 'return']","[0.9834853874399414, 1.3334175910149497, 1.7831739761804783, 2.083075080330673, 2.499595017804495, 2.716111811653718, 3.0993237679476806, 3.515821892518943]",2017_Feb_23_1505,60.0567736318,famFaceFilter,001,22,
66,./img/edges5_BritneySpears1_1.png,0,27,27,65,,,1.ja,1.239,None,act,0.407,None,None,None,None,None,britney,"['b', 'r', 'i', 't', 'n', 'e', 'y', 'return']","[1.233228684864116, 1.4997037615385125, 1.6997672114221132, 1.9995088889181716, 2.332704501573062, 2.94927794481373, 3.2324418164880626, 4.248616725170905]",2017_Feb_23_1505,60.0567736318,famFaceFilter,001,22,
5,./img/edges5_AlysonHannigan(Lily)1_1.png,0,28,28,4,,,1.ja,1.082,None,act,0.406,None,None,None,None,None,lily,"['l', 'i', 'l', 'y', 'return']","[0.8166968786053985, 1.0333211330780614, 1.2498850812899036, 1.466439085384991, 1.6996379378979327]",2017_Feb_23_1505,60.0567736318,famFaceFilter,001,22,
72,./img/edges5_EmilyDeschanel6_12.png,0,29,29,71,,,2.nein,1.789,None,act,0.873,None,None,None,None,None,,['return'],[0.6668569949324592],2017_Feb_23_1505,60.0567736318,famFaceFilter,001,22,
37,./img/edges5_JasonSegel(Marshall)9_1.png,0,30,30,36,,,1.ja,1.539,None,act,0.557,None,None,None,None,None,marshall,"['m', 'a', 'r', 's', 'h', 'a', 'l', 'l', 'return']","[0.7833702923026067, 1.0000798737155492, 1.2163785385419033, 1.49990168155, 1.7663530206536961, 1.9330334273099652, 2.182850182891343, 2.3660926772481616, 2.6326206822877793]",2017_Feb_23_1505,60.0567736318,famFaceFilter,001,22,
33,./img/edges5_BarackObama2_1.png,0,31,31,32,,,1.ja,1.322,None,None,None,None,None,polit,0.973,None,barack,"['b', 'a', 'r', 'a', 'c', 'k', 'return']","[0.933505933269771, 1.1333984084922122, 1.3666197154634574, 1.5163210230502955, 1.8664261259546038, 2.0663975125589786, 2.3662145728794712]",2017_Feb_23_1505,60.0567736318,famFaceFilter,001,22,
29,./img/edges5_TomCruise4_1.png,0,32,32,28,,,1.ja,1.473,None,act,1.207,None,None,None,None,None,tom,"['t', 'o', 'm', 'return']","[0.8501986096844121, 0.9999903766611169, 1.216460978482246, 2.2661344104635646]",2017_Feb_23_1505,60.0567736318,famFaceFilter,001,22,
28,./img/edges5_Ice-T(OdafinFinTutuola)5_1.png,0,33,33,27,,,2.nein,1.34,None,None,None,music,2.257,None,None,None,,['return'],[0.8166827643754004],2017_Feb_23_1505,60.0567736318,famFaceFilter,001,22,
70,./img/edges5_BastianSchweinsteiger1_1.png,0,34,34,69,,,1.ja,1.64,None,None,None,None,None,sport,0.656,None,schweini,"['s', 'c', 'h', 'w', 'e', 'i', 'n', 'i', 'return']","[1.1832238892338864, 1.499945948910863, 1.7330549835905913, 2.066097585150601, 2.3003261349686, 2.7493088036553672, 2.949319325172837, 3.165816230787641, 3.4823583340203186]",2017_Feb_23_1505,60.0567736318,famFaceFilter,001,22,
19,./img/edges5_HughLaurie(DrHouse)2_1.png,0,35,35,18,,,1.ja,1.672,None,dummy,0.439,None,None,None,None,None,dr house,"['d', 'r', 'space', 'h', 'o', 'u', 's', 'e', 'return']","[0.7667357087802884, 0.9833615671423104, 1.1665982874947076, 1.516289907587634, 1.8495352408290273, 2.049505344321915, 2.29943982542045, 2.4991330975190067, 2.7157567104350164]",2017_Feb_23_1505,60.0567736318,famFaceFilter,001,22,
7,./img/edges5_AngelaMerkel3_1.png,0,36,36,6,,,1.ja,2.589,None,None,None,None,None,polit,0.756,None,angela,"['a', 'n', 'g', 'e', 'a', 'backspace', 'l', 'a', 'return']","[0.9335777875367057, 1.1167641457477657, 1.3334503103687894, 1.4997627846869364, 1.8665460969186825, 2.549566131748179, 3.0994610609222946, 3.28262464389627, 3.6491785998750856]",2017_Feb_23_1505,60.0567736318,famFaceFilter,001,22,
24,./img/edges5_JasonSegel(Marshall)7_1.png,0,37,37,23,,,1.ja,2.006,None,act,0.873,None,None,None,None,None,marshall,"['m', 'a', 'r', 's', 'a', 'backspace', 'h', 'a', 'l', 'l', 'return']","[0.9834132123951349, 1.216580307888762, 1.399978700342217, 1.616488757854313, 1.8666044785095437, 2.666004046292983, 3.7157288027501636, 3.915542366590671, 4.182101487094769, 4.365552166357702, 4.665312769753655]",2017_Feb_23_1505,60.0567736318,famFaceFilter,001,22,
58,./img/edges5_HughLaurie(DrHouse)5_3.png,0,38,38,57,,,1.ja,1.334,None,act,0.473,None,None,None,None,None,dr house,"['d', 'r', 'space', 'h', 'o', 'u', 's', 'e', 'return']","[0.7333167384185799, 0.9335537291881337, 1.1335183794553814, 1.3834692202299266, 1.699972509327381, 1.9328980590044011, 2.1497584060671215, 2.349445262606423, 2.549519298163432]",2017_Feb_23_1505,60.0567736318,famFaceFilter,001,22,
46,./img/edges5_TomCruise5_1.png,0,39,39,45,,,1.ja,1.256,None,act,0.656,None,None,None,None,None,tom,"['t', 'o', 'm', 'return']","[0.8167267109574823, 0.9666836785918349, 1.1665392643471932, 1.5164211057790453]",2017_Feb_23_1505,60.0567736318,famFaceFilter,001,22,
15,./img/edges5_LisaEdelstein(DrLisaCuddy)6_3.png,0,40,40,14,,,1.ja,1.24,None,act,0.457,None,None,None,None,None,,['return'],[0.999983961100952],2017_Feb_23_1505,60.0567736318,famFaceFilter,001,22,
23,./img/edges5_UrsulavonderLeyen1_1.png,0,41,41,22,,,1.ja,1.573,None,None,None,None,None,polit,0.69,None,von der leyen,"['v', 'o', 'n', 'space', 'd', 'e', 'r', 'space', 'l', 'e', 'y', 'e', 'n', 'return']","[1.183320122627265, 1.3832873391174871, 1.583124961305657, 1.7495721623736245, 1.9663106138050352, 2.1496538324463472, 2.316330389767245, 2.4994185899176955, 3.0492471180505163, 3.2657616664546367, 3.5657763260078355, 3.798879586684052, 3.9986229001469837, 4.298809496695867]",2017_Feb_23_1505,60.0567736318,famFaceFilter,001,22,
47,./img/edges5_UrsulavonderLeyen5_1.png,0,42,42,46,,,1.ja,1.317,None,None,None,None,None,polit,0.824,None,von der leyen,"['v', 'o', 'n', 'space', 'd', 'e', 'r', 'space', 'l', 'e', 'y', 'e', 'n', 'return']","[1.3999896067944064, 1.5343811439015553, 1.7832044500892152, 1.94960930846446, 2.1163160189144037, 2.2992970792211054, 2.4995048791934096, 2.6827050308575053, 3.2491713502931816, 3.4158004324735884, 3.732294419009122, 3.9654858936282835, 4.198801509324767, 4.5819461022429095]",2017_Feb_23_1505,60.0567736318,famFaceFilter,001,22,
4,./img/edges5_LeonardoDiCaprio1_1.png,0,43,43,3,,,1.ja,2.116,None,act,0.439,None,None,None,None,None,leonardo,"['l', 'e', 'o', 'n', 'a', 'r', 'd', 'o', 'return']","[1.0000680049306538, 1.249870004724471, 1.499566468564808, 1.7664120438012105, 1.99957047828957, 2.232854657743701, 2.5327871981353383, 2.866014247032581, 3.1491142838904125]",2017_Feb_23_1505,60.0567736318,famFaceFilter,001,22,
22,./img/edges5_JasonSegel(Marshall)6_1.png,0,44,44,21,,,1.ja,1.173,None,act,0.423,None,None,None,None,None,marshall,"['m', 'a', 'r', 's', 'h', 'a', 'l', 'l', 'return']","[1.0834115764282615, 1.2833111087657016, 1.58323659204234, 2.282830904135153, 2.416400287288525, 2.566339932912342, 2.8496163976569733, 3.0327687534027064, 3.3326842925607707]",2017_Feb_23_1505,60.0567736318,famFaceFilter,001,22,
69,./img/edges5_GuentherJauch2_1.png,0,45,45,68,,,1.ja,1.44,None,None,None,host,0.691,None,None,None,,['return'],[0.6668688637173545],2017_Feb_23_1505,60.0567736318,famFaceFilter,001,22,
34,./img/edges5_KatjaBurkard1_1.png,0,46,46,33,,,2.nein,3.822,None,None,None,host,1.806,None,None,None,,['return'],[0.6669487374338132],2017_Feb_23_1505,60.0567736318,famFaceFilter,001,22,
9,./img/edges5_RobertSeanLeonard(Wilson)8_1.png,0,47,47,8,,,1.ja,2.424,None,dummy,0.542,None,None,None,None,None,wilson,"['w', 'i', 'l', 's', 'o', 'n', 'return']","[0.9003070166008911, 1.1165922087520812, 1.316770497151083, 1.5164207850011735, 1.6831704797004932, 1.949665123831437, 2.332997051087659]",2017_Feb_23_1505,60.0567736318,famFaceFilter,001,22,
14,./img/edges5_AngelaMerkel4_1.png,0,48,48,13,,,1.ja,1.44,None,None,None,None,None,polit,0.522,None,angela,"['a', 'n', 'g', 'e', 'l', 'a', 'return']","[1.316663678085206, 1.516563531200518, 1.7831662775088262, 1.9660764458822086, 2.1664016505947075, 2.3496204073817353, 2.5495067878218833]",2017_Feb_23_1505,60.0567736318,famFaceFilter,001,22,
12,./img/edges5_UrsulavonderLeyen4_1.png,0,49,49,11,,,1.ja,1.357,None,None,None,None,None,polit,0.657,None,von der leyen,"['v', 'o', 'n', 'space', 'd', 'e', 'r', 'space', 'l', 'e', 'y', 'e', 'n', 'return']","[0.9999769039850435, 1.2007130252859497, 1.4165982073000123, 1.6166597325154726, 1.7331399897539086, 1.9494742609349487, 2.116044319967841, 2.2995909118462805, 2.516138821159984, 2.915932753388006, 3.232585525021932, 3.482417357167833, 3.665537955893342, 3.948910654030442]",2017_Feb_23_1505,60.0567736318,famFaceFilter,001,22,
63,./img/edges5_LisaEdelstein(DrLisaCuddy)2_2.png,0,50,50,62,,,1.ja,1.389,None,act,0.423,None,None,None,None,None,,['return'],[0.6169522820309794],2017_Feb_23_1505,60.0567736318,famFaceFilter,001,22,
43,./img/edges5_BarackObama1_3.png,0,51,51,42,,,1.ja,1.372,None,None,None,None,None,polit,0.756,None,barack,"['b', 'a', 'r', 'a', 'c', 'k', 'return']","[0.733390517353655, 0.9499839771397092, 1.1164735209003993, 1.249953727776301, 1.5663771431572968, 1.783062345444705, 2.8658808033942478]",2017_Feb_23_1505,60.0567736318,famFaceFilter,001,22,
13,./img/edges5_MariskaHargitay(Liv)6_5.png,0,52,52,12,,,2.nein,2.322,None,None,None,host,2.555,None,None,None,,['return'],[0.8332156612787003],2017_Feb_23_1505,60.0567736318,famFaceFilter,001,22,
54,./img/edges5_KatjaBurkard5_3.png,0,53,53,53,,,1.ja,2.256,None,None,None,host,0.656,None,None,None,,['return'],[0.9168662172987752],2017_Feb_23_1505,60.0567736318,famFaceFilter,001,22,
30,./img/edges5_MariskaHargitay(Liv)8_8.png,0,54,54,29,,,2.nein,1.289,None,dummy,1.572,None,None,None,None,None,,['return'],[0.6502134296270015],2017_Feb_23_1505,60.0567736318,famFaceFilter,001,22,
1,./img/edges5_BastianSchweinsteiger6_2.png,0,55,55,0,,,1.ja,1.323,None,None,None,None,None,sport,0.907,None,schweini,"['s', 'c', 'h', 'w', 'e', 'i', 'n', 'i', 'return']","[0.7835460786336625, 0.9166689388439409, 1.0999496057793294, 1.3827724904649585, 1.583093845842086, 1.7495994285018241, 1.9496163655785494, 2.1495585613874937, 2.39943690634027]",2017_Feb_23_1505,60.0567736318,famFaceFilter,001,22,
61,./img/edges5_NeilPatrickHarris(Barney)2_2.png,0,56,56,60,,,1.ja,1.907,None,act,0.424,None,None,None,None,None,barney,"['b', 'a', 'r', 'n', 'e', 'y', 'return']","[0.8502643691699632, 1.2662053023959743, 1.4832427189012378, 2.116333020147067, 2.5661689582511826, 2.715899456634361, 3.049311915202452]",2017_Feb_23_1505,60.0567736318,famFaceFilter,001,22,
2,./img/edges5_OmarEpps(DrEricForeman)1_5.png,0,57,57,1,,,1.ja,4.471,None,dummy,0.719,None,None,None,None,None,,['return'],[0.6177080349434618],2017_Feb_23_1505,60.0567736318,famFaceFilter,001,22,
20,./img/edges5_JoshRadnor(Ted)1_2.png,0,58,58,19,,,1.ja,1.107,None,dummy,0.756,None,None,None,None,None,ted,"['t', 'e', 'd', 'return']","[1.2998943678121577, 1.5163838955340907, 1.9330706375558293, 2.8659619602231032]",2017_Feb_23_1505,60.0567736318,famFaceFilter,001,22,
39,./img/edges5_AlysonHannigan(Lily)8_3.png,0,59,59,38,,,1.ja,1.74,None,act,0.44,None,None,None,None,None,lily,"['l', 'i', 'l', 'y', 'return']","[1.0332688462676742, 1.2997718306251045, 1.5324529474846713, 1.6663087853712568, 2.6326822716600873]",2017_Feb_23_1505,60.0567736318,famFaceFilter,001,22,
25,./img/edges5_JoachimLoew8_1.png,0,60,60,24,,,1.ja,1.523,None,None,None,None,None,sport,1.056,None,,['return'],[3.9655048195290874],2017_Feb_23_1505,60.0567736318,famFaceFilter,001,22,
56,./img/edges5_NeilPatrickHarris(Barney)1_1.png,0,61,61,55,,,1.ja,1.69,None,act,0.624,None,None,None,None,None,barney,"['b', 'a', 'r', 'n', 'e', 'y', 'return']","[1.0166612080947743, 1.2500701701828802, 1.4332238090401006, 1.949570815106199, 2.149534823817703, 2.666054408436139, 2.8992863010807923]",2017_Feb_23_1505,60.0567736318,famFaceFilter,001,22,
32,./img/edges5_Ice-T(OdafinFinTutuola)7_1.png,0,62,62,31,,,2.nein,1.456,None,None,None,music,0.707,None,None,None,,['return'],[0.8498293942329838],2017_Feb_23_1505,60.0567736318,famFaceFilter,001,22,
42,./img/edges5_JoachimLoew4_1.png,0,63,63,41,,,1.ja,1.307,None,None,None,None,None,sport,0.755,None,,['return'],[0.6501409338043231],2017_Feb_23_1505,60.0567736318,famFaceFilter,001,22,
51,./img/edges5_Ice-T(OdafinFinTutuola)6_1.png,0,64,64,50,,,2.nein,2.355,None,None,None,music,1.056,None,None,None,,['return'],[0.8166971993841798],2017_Feb_23_1505,60.0567736318,famFaceFilter,001,22,
41,./img/edges5_OmarEpps(DrEricForeman)3_1.png,0,65,65,40,,,1.ja,4.238,None,dummy,0.45,None,None,None,None,None,,['return'],[0.9832367845083354],2017_Feb_23_1505,60.0567736318,famFaceFilter,001,22,
11,./img/edges5_RobertSeanLeonard(Wilson)1_1.png,0,66,66,10,,,1.ja,1.639,None,dummy,0.64,None,None,None,None,None,wilson,"['w', 'i', 'l', 's', 'o', 'n', 'return']","[0.7665903963570599, 0.966704849938651, 1.1666630846466433, 1.366522519737373, 1.5498189047939377, 1.7490332553734333, 2.165585912201095]",2017_Feb_23_1505,60.0567736318,famFaceFilter,001,22,
50,./img/edges5_WillSmith5_1.png,0,67,67,49,,,1.ja,1.912,None,act,0.823,None,None,None,None,None,will smith,"['w', 'i', 'l', 'l', 'space', 's', 'm', 'i', 't', 'h', 'return']","[0.9830889058612229, 1.116589000971544, 1.3998144620181847, 1.5497470505260935, 1.749601673946927, 1.9827184072983073, 2.1828537114488427, 2.399427924556221, 2.682484335608933, 2.8992923958612664, 3.2657135497574927]",2017_Feb_23_1505,60.0567736318,famFaceFilter,001,22,
27,./img/edges5_OmarEpps(DrEricForeman)2_2.png,0,68,68,26,,,1.ja,1.439,None,act,0.457,None,None,None,None,None,,['return'],[0.9333500351731345],2017_Feb_23_1505,60.0567736318,famFaceFilter,001,22,
62,./img/edges5_AlysonHannigan(Lily)5_4.png,0,69,69,61,,,1.ja,1.14,None,act,0.807,None,None,None,None,None,lily,"['l', 'i', 'l', 'y', 'return']","[1.1499630624157362, 1.399797781563393, 1.6164374333784508, 1.816041849978319, 2.0661505135176412]",2017_Feb_23_1505,60.0567736318,famFaceFilter,001,22,
68,./img/edges5_MariskaHargitay(Liv)4_4.png,0,70,70,67,,,2.nein,1.79,None,None,None,host,0.924,None,None,None,,['return'],[1.0498886740033413],2017_Feb_23_1505,60.0567736318,famFaceFilter,001,22,
21,./img/edges5_JoshRadnor(Ted)3_1.png,0,71,71,20,,,1.ja,1.373,None,act,0.607,None,None,None,None,None,ted,"['t', 'e', 'd', 'return']","[1.0000073778937804, 1.2665501387209588, 1.882691173249441, 2.0826426716193964]",2017_Feb_23_1505,60.0567736318,famFaceFilter,001,22,
23,./img/gray_TomCruise4_1.png,0,0,0,22,,,1.ja,2.0,None,act,0.739,None,None,None,None,None,tom,"['t', 'o', 'm', 'return']","[1.899681820324986, 2.3493997121340726, 2.56582989592971, 2.949265434473091]",2017_Feb_23_1505,60.0567736318,famFaceFilter,001,22,
33,./img/gray_KatjaBurkard4_1.png,0,1,1,32,,,1.ja,1.838,None,None,None,host,0.855,None,None,None,,['return'],[0.9501270441178349],2017_Feb_23_1505,60.0567736318,famFaceFilter,001,22,
10,./img/gray_HughLaurie(DrHouse)2_1.png,0,2,2,9,,,1.ja,1.223,None,act,0.64,None,None,None,None,None,dr house,"['d', 'r', 'space', 'h', 'o', 'u', 's', 'e', 'return']","[0.9831315693327269, 1.1833945431180837, 1.982961236227311, 4.431962830814882, 4.91510354231923, 5.181583430662613, 5.681424164397868, 5.8979582802585355, 6.431134902857593]",2017_Feb_23_1505,60.0567736318,famFaceFilter,001,22,
52,./img/gray_EmilyDeschanel5_1.png,0,3,3,51,,,2.nein,2.666,None,act,1.756,None,None,None,None,None,,['return'],[0.916396919120416],2017_Feb_23_1505,60.0567736318,famFaceFilter,001,22,
67,./img/gray_AngelaMerkel4_1.png,0,4,4,66,,,1.ja,1.406,None,None,None,None,None,polit,0.706,None,angela,"['a', 'n', 'g', 'e', 'l', 'a', 'return']","[1.266662090234604, 1.433119556197198, 1.683072000862012, 1.8329596804542234, 2.0829114835632936, 2.2328171267208745, 2.4993736810010887]",2017_Feb_23_1505,60.0567736318,famFaceFilter,001,22,
26,./img/gray_BarackObama1_3.png,0,5,5,25,,,1.ja,1.472,None,None,None,None,None,polit,0.655,None,barack,"['b', 'a', 'r', 'a', 'c', 'k', 'return']","[0.7668091669365822, 1.0001963161221283, 1.3166299963977508, 1.4832606824684262, 1.7997790481304037, 2.032958012408926, 2.2995793638401665]",2017_Feb_23_1505,60.0567736318,famFaceFilter,001,22,
59,./img/gray_AlysonHannigan(Lily)5_4.png,0,6,6,58,,,1.ja,2.155,None,act,0.556,None,None,None,None,None,lily,"['l', 'i', 'l', 'y', 'return']","[0.8500395038072384, 1.1166342306669321, 1.3163242949858613, 1.5165721922057855, 1.716312618667871]",2017_Feb_23_1505,60.0567736318,famFaceFilter,001,22,
60,./img/gray_EmilyDeschanel3_1.png,0,7,7,59,,,2.nein,2.155,None,act,0.439,None,None,None,None,None,,['return'],[0.8497482374059473],2017_Feb_23_1505,60.0567736318,famFaceFilter,001,22,
31,./img/gray_AngelaMerkel3_1.png,0,8,8,30,,,1.ja,1.772,None,None,None,None,None,polit,0.672,None,angela,"['a', 'n', 'g', 'e', 'l', 'a', 'return']","[1.0665601469936519, 1.2166467089309663, 1.4499510973982979, 1.6164297347077081, 1.832892637857185, 1.9831184174354348, 2.299671747897264]",2017_Feb_23_1505,60.0567736318,famFaceFilter,001,22,
6,./img/gray_NicoleKidman3_1.png,0,9,9,5,,,1.ja,1.722,None,act,7.053,None,None,None,None,None,kylie,"['k', 'y', 'l', 'i', 'e', 'return']","[1.3333784561027642, 1.5996463102037524, 1.799623470811639, 2.0829195030128176, 2.382841457731047, 2.582735857620719]",2017_Feb_23_1505,60.0567736318,famFaceFilter,001,22,
63,./img/gray_JoshRadnor(Ted)3_1.png,0,10,10,62,,,1.ja,3.555,None,act,0.473,None,None,None,None,None,ted,"['t', 'e', 'd', 'return']","[0.9999226925074254, 1.166649291192698, 2.4994163444716833, 2.7160595248442405]",2017_Feb_23_1505,60.0567736318,famFaceFilter,001,22,
47,./img/gray_HughLaurie(DrHouse)5_3.png,0,11,11,46,,,1.ja,1.489,None,act,0.406,None,None,None,None,None,dr house,"['d', 'r', 'space', 'h', 'o', 'u', 's', 'e', 'return']","[0.8334081280645478, 1.0500359110938007, 1.3498789544300962, 2.849264824993952, 3.1156449513873667, 3.3657212163516306, 3.715178347742949, 3.898825663905882, 4.065508316008163]",2017_Feb_23_1505,60.0567736318,famFaceFilter,001,22,
61,./img/gray_AlysonHannigan(Lily)8_3.png,0,12,12,60,,,1.ja,1.248,None,act,0.423,None,None,None,None,None,lily,"['l', 'i', 'l', 'y', 'return']","[0.9500359431722245, 1.1666415925219553, 1.366502631502044, 1.4665051656484138, 2.532621035144075]",2017_Feb_23_1505,60.0567736318,famFaceFilter,001,22,
46,./img/gray_GuentherJauch3_1.png,0,13,13,45,,,1.ja,1.506,None,None,None,host,0.622,None,None,None,,['return'],[0.9668694090396457],2017_Feb_23_1505,60.0567736318,famFaceFilter,001,22,
21,./img/gray_HughLaurie(DrHouse)4_1.png,0,14,14,20,,,1.ja,1.239,None,act,0.406,None,None,None,None,None,dr house,"['d', 'r', 'space', 'h', 'o', 'u', 's', 'e', 'return']","[1.400695959897348, 1.5998952339132302, 1.983023467154453, 2.982588812996255, 3.3823532336509743, 3.6490342497854726, 3.9154711538803895, 4.115452805380301, 4.2821120406897535]",2017_Feb_23_1505,60.0567736318,famFaceFilter,001,22,
38,./img/gray_MariskaHargitay(Liv)4_4.png,0,15,15,37,,,2.nein,1.683,None,None,None,host,0.973,None,None,None,,['return'],[0.8001428103552826],2017_Feb_23_1505,60.0567736318,famFaceFilter,001,22,
70,./img/gray_WillSmith5_1.png,0,16,16,69,,,1.ja,1.656,None,act,0.54,None,None,None,None,None,will,"['w', 'i', 'l', 'l', 'return']","[1.333139797287913, 1.4997922962602388, 1.7664280827002585, 1.9497328079851286, 2.1995405817824576]",2017_Feb_23_1505,60.0567736318,famFaceFilter,001,22,
28,./img/gray_GeorgeClooney4_2.png,0,17,17,27,,,1.ja,1.49,None,act,0.822,None,None,None,None,None,george,"['g', 'e', 'o', 'r', 'g', 'e', 'return']","[1.5827727470878017, 1.8497177634972104, 2.1662996431987267, 2.482815763414692, 2.9493793106548765, 3.165845742361853, 3.6489970395396085]",2017_Feb_23_1505,60.0567736318,famFaceFilter,001,22,
35,./img/gray_JoachimLoew4_1.png,0,18,18,34,,,1.ja,8.486,None,None,None,None,None,sport,0.867,None,,['return'],[0.7834601101367298],2017_Feb_23_1505,60.0567736318,famFaceFilter,001,22,
64,./img/gray_LisaEdelstein(DrLisaCuddy)2_2.png,0,19,19,63,,,1.ja,1.539,None,act,0.406,None,None,None,None,None,,['return'],[0.633463366032629],2017_Feb_23_1505,60.0567736318,famFaceFilter,001,22,
14,./img/gray_JoshRadnor(Ted)6_2.png,0,20,20,13,,,1.ja,1.273,None,act,0.555,None,None,None,None,None,ted,"['t', 'e', 'd', 'return']","[0.7834010869883059, 1.2329813650449069, 1.4664060452532794, 1.849779032090737]",2017_Feb_23_1505,60.0567736318,famFaceFilter,001,22,
37,./img/gray_TomCruise1_1.png,0,21,21,36,,,1.ja,1.373,None,act,0.406,None,None,None,None,None,tom,"['t', 'o', 'm', 'return']","[0.8333311413507545, 1.233183455170547, 1.4830913116966258, 1.7830546467739623]",2017_Feb_23_1505,60.0567736318,famFaceFilter,001,22,
20,./img/gray_WillSmith1_1.png,0,22,22,19,,,1.ja,1.19,None,dummy,0.805,None,None,None,None,None,will,"['w', 'i', 'l', 'l', 'return']","[0.8664928477737703, 1.2832742192986188, 1.599864439227531, 1.7496546023139672, 2.0162515746187637]",2017_Feb_23_1505,60.0567736318,famFaceFilter,001,22,
55,./img/gray_Ice-T(OdafinFinTutuola)6_1.png,0,23,23,54,,,1.ja,1.122,None,None,None,music,1.122,None,None,None,,['return'],[1.533220889959921],2017_Feb_23_1505,60.0567736318,famFaceFilter,001,22,
62,./img/gray_LisaEdelstein(DrLisaCuddy)1_1.png,0,24,24,61,,,1.ja,1.64,None,act,1.789,None,None,None,None,None,,['return'],[0.8001110533359679],2017_Feb_23_1505,60.0567736318,famFaceFilter,001,22,
51,./img/gray_AlysonHannigan(Lily)1_1.png,0,25,25,50,,,1.ja,1.139,None,dummy,0.406,None,None,None,None,None,lily,"['l', 'i', 'l', 'y', 'return']","[0.9502091632793963, 1.1831963023287244, 1.3833216623615954, 1.7665053901928331, 2.166309908094263]",2017_Feb_23_1505,60.0567736318,famFaceFilter,001,22,
53,./img/gray_Ice-T(OdafinFinTutuola)5_1.png,0,26,26,52,,,2.nein,2.606,None,None,None,music,0.923,None,None,None,,['return'],[0.8333398023560221],2017_Feb_23_1505,60.0567736318,famFaceFilter,001,22,
50,./img/gray_BastianSchweinsteiger3_1.png,0,27,27,49,,,1.ja,1.24,None,None,None,None,None,sport,0.59,None,schweini,"['s', 'c', 'h', 'w', 'e', 'i', 'n', 'i', 'return']","[2.316113864633735, 2.649273229377286, 2.932733499902497, 3.2991475966828148, 3.5323788477717244, 3.998949452126908, 4.215266722075285, 4.465478996900856, 4.96520489212071]",2017_Feb_23_1505,60.0567736318,famFaceFilter,001,22,
58,./img/gray_GeorgeClooney3_1.png,0,28,28,57,,,1.ja,1.617,None,act,0.623,None,None,None,None,None,george,"['g', 'e', 'o', 'r', 'g', 'e', 'return']","[0.7501919054247992, 0.966694264265243, 1.1999675372690035, 1.566341216024739, 1.7828182334051235, 1.949589420229131, 2.1662486395007363]",2017_Feb_23_1505,60.0567736318,famFaceFilter,001,22,
2,./img/gray_BastianSchweinsteiger1_1.png,0,29,29,1,,,1.ja,1.156,None,None,None,None,None,sport,0.855,None,schweini,"['s', 'c', 'h', 'w', 'e', 'i', 'n', 'i', 'return']","[0.5671107623902572, 0.7335701530209917, 0.9337224584041905, 1.1334465251884467, 1.3502295647585925, 1.483349217189243, 1.7000174182439878, 1.8999631426104315, 2.2330827308860535]",2017_Feb_23_1505,60.0567736318,famFaceFilter,001,22,
72,./img/gray_WillSmith4_1.png,0,30,30,71,,,1.ja,1.505,None,act,0.955,None,None,None,None,None,will,"['w', 'i', 'l', 'l', 'return']","[0.683435442309019, 0.8833266344199728, 1.166508469661494, 1.3164715320772302, 1.5496386275708574]",2017_Feb_23_1505,60.0567736318,famFaceFilter,001,22,
49,./img/gray_NeilPatrickHarris(Barney)1_1.png,0,31,31,48,,,1.ja,1.223,None,act,0.406,None,None,None,None,None,barney,"['b', 'a', 'r', 'n', 'e', 'y', 'return']","[0.9004131941110245, 1.3834188580876798, 1.5665859696200641, 1.999452752772413, 2.1664462387334424, 2.5329177547719155, 2.7660819632637867]",2017_Feb_23_1505,60.0567736318,famFaceFilter,001,22,
16,./img/gray_JoshRadnor(Ted)1_2.png,0,32,32,15,,,1.ja,1.322,None,act,0.489,None,None,None,None,None,ted,"['t', 'e', 'd', 'return']","[0.9334934229291321, 1.1001844152588092, 1.299977770086116, 1.6000152048763994]",2017_Feb_23_1505,60.0567736318,famFaceFilter,001,22,
8,./img/gray_BastianSchweinsteiger6_2.png,0,33,33,7,,,1.ja,1.171,None,None,None,None,None,sport,0.938,None,schweini,"['s', 'c', 'h', 'w', 'e', 'i', 'n', 'i', 'return']","[0.7830260975333658, 0.916728282769327, 1.083048134980345, 1.2998821782493906, 1.49971787576942, 1.6998297631280366, 1.9329266082440881, 2.13289382473522, 2.4161250597853723]",2017_Feb_23_1505,60.0567736318,famFaceFilter,001,22,
27,./img/gray_LeonardoDiCaprio1_1.png,0,34,34,26,,,1.ja,1.439,None,act,0.556,None,None,None,None,None,leonardo,"['l', 'o', 'backspace', 'e', 'o', 'n', 'a', 'r', 'd', 'o', 'return']","[0.8667180339134575, 1.116723727722274, 1.6664245862202733, 1.8496709299124632, 2.099419680562278, 2.4159630669064427, 2.6324740867530636, 2.8325846909992833, 3.0658454536614954, 3.3987600648097214, 3.748928681752659]",2017_Feb_23_1505,60.0567736318,famFaceFilter,001,22,
9,./img/gray_RobertSeanLeonard(Wilson)8_1.png,0,35,35,8,,,1.ja,1.19,None,dummy,0.423,None,None,None,None,None,wilson,"['w', 'i', 'l', 's', 'o', 'n', 'return']","[0.9335277461723308, 1.116603435981233, 1.3500066240649176, 1.5499629341047694, 1.6998987303932154, 1.949516282850709, 2.232991629940443]",2017_Feb_23_1505,60.0567736318,famFaceFilter,001,22,
69,./img/gray_OmarEpps(DrEricForeman)3_1.png,0,36,36,68,,,1.ja,1.571,None,act,0.406,None,None,None,None,None,,['return'],[0.58348776119783],2017_Feb_23_1505,60.0567736318,famFaceFilter,001,22,
24,./img/gray_JoachimLoew1_1.png,0,37,37,23,,,1.ja,1.472,None,None,None,None,None,sport,0.589,None,,['return'],[0.5166180634569173],2017_Feb_23_1505,60.0567736318,famFaceFilter,001,22,
41,./img/gray_RobertSeanLeonard(Wilson)1_1.png,0,38,38,40,,,1.ja,1.256,None,act,0.439,None,None,None,None,None,wilson,"['w', 'i', 'l', 's', 'o', 'n', 'return']","[0.7169073410359488, 0.9167824942478546, 1.1333842942613046, 1.3499870566092795, 1.449917736487805, 1.6998974472808186, 1.9664783806874766]",2017_Feb_23_1505,60.0567736318,famFaceFilter,001,22,
54,./img/gray_LeonardoDiCaprio3_1.png,0,39,39,53,,,1.ja,1.123,None,act,0.606,None,None,None,None,None,leonardo,"['l', 'e', 'o', 'n', 'a', 'r', 'd', 'o', 'return']","[0.8498117514445767, 1.5163925565393583, 1.6996822052587959, 1.9662993865758835, 2.316170963113109, 2.699265514667786, 3.082485811188235, 3.3156715118038846, 3.6151995511672794]",2017_Feb_23_1505,60.0567736318,famFaceFilter,001,22,
32,./img/gray_MariskaHargitay(Liv)6_5.png,0,40,40,31,,,2.nein,2.072,None,dummy,1.006,None,None,None,None,None,,['return'],[0.6837539748403287],2017_Feb_23_1505,60.0567736318,famFaceFilter,001,22,
22,./img/gray_GuentherJauch4_1.png,0,41,41,21,,,1.ja,1.223,None,None,None,host,0.656,None,None,None,gnther jauch,"['g', u'\xfc', 'n', 'z', 'backspace', 't', 'h', 'e', 'r', 'space', 'j', 'a', 'u', 'c', 'h', 'return']","[3.915740928157902, 4.94842082606101, 5.2483588196782875, 5.548196409788943, 6.1313136724238575, 6.497798340358713, 6.69769723114041, 6.797666083599324, 6.980977545221322, 7.13056978829627, 7.98050953015354, 8.1636958883646, 8.346926513935614, 8.596914885733895, 8.779879265584896, 10.012978035369997]",2017_Feb_23_1505,60.0567736318,famFaceFilter,001,22,
57,./img/gray_UrsulavonderLeyen5_1.png,0,42,42,56,,,1.ja,4.965,None,None,None,None,None,polit,0.746,None,von der leyen,"['v', 'o', 'n', 'space', 'd', 'e', 'r', 'space', 'l', 'e', 'y', 'e', 'n', 'return']","[1.2667384353926536, 1.4498356173253342, 1.6831791407057608, 1.8664113701679526, 2.0330529626889984, 2.18306253791161, 2.4329582048749216, 2.615983211763705, 3.0491072588520183, 3.249268866797138, 3.565693244511749, 3.7822020189123577, 3.998923469111105, 4.665356716336646]",2017_Feb_23_1505,60.0567736318,famFaceFilter,001,22,
44,./img/gray_BritneySpears5_1.png,0,43,43,43,,,1.ja,1.348,None,act,3.605,None,None,None,None,None,britney spears,"['b', 'r', 'i', 't', 'n', 'e', 'y', 'space', 's', 'p', 'e', 'a', 'r', 's', 'return']","[2.3327965648522877, 2.615921301614435, 2.7987753338411494, 3.0991521517307774, 3.4489714414576156, 3.6156303559891967, 3.898772414761879, 4.081968396311822, 4.74844655245488, 5.014906552563843, 5.215003684134899, 5.531396304830196, 5.731383409555747, 5.881251200912629, 6.131325220430881]",2017_Feb_23_1505,60.0567736318,famFaceFilter,001,22,
15,./img/gray_GeorgeClooney11_1.png,0,44,44,14,,,1.ja,1.214,None,act,1.506,None,None,None,None,None,george clooney,"['g', 'e', 'o', 'r', 'g', 'e', 'space', 'c', 'l', 'o', 'o', 'n', 'e', 'y', 'pound', 'return']","[0.8166372139021405, 0.9999201262835413, 1.2663406707015383, 1.5997053333512667, 2.0494610769610517, 2.182764855950154, 2.382756772344692, 2.815598855592725, 3.0490443863691326, 3.2655444997644736, 3.631894120171637, 3.8987749809857632, 4.381732849044056, 4.698365732443563, 4.931473804789675, 5.997731137373194]",2017_Feb_23_1505,60.0567736318,famFaceFilter,001,22,
29,./img/gray_UrsulavonderLeyen4_1.png,0,45,45,28,,,1.ja,1.133,None,None,None,None,None,polit,0.739,None,von der leyen,"['v', 'o', 'n', 'space', 'd', 'e', 'r', 'space', 'l', 'e', 'y', 'e', 'n', 'return']","[0.8831482818650329, 1.016856241104506, 1.2333361454866463, 1.4832953264894968, 1.5833074839747496, 1.7497149085738783, 1.9331133010264239, 2.0992878408151228, 2.5993707619218185, 2.799402134007323, 3.0992114956561636, 3.3157587634141237, 3.499061564029944, 4.398716759783383]",2017_Feb_23_1505,60.0567736318,famFaceFilter,001,22,
34,./img/gray_RobertSeanLeonard(Wilson)2_6.png,0,46,46,33,,,1.ja,1.415,None,act,1.822,None,None,None,None,None,wilson,"['w', 'i', 'l', 's', 'o', 'n', 'return']","[0.8167568640874379, 0.9833009401036179, 1.183243456690434, 1.3831782746055978, 1.533127222791336, 1.749699511230574, 2.082891274550093]",2017_Feb_23_1505,60.0567736318,famFaceFilter,001,22,
36,./img/gray_TomCruise5_1.png,0,47,47,35,,,1.ja,6.387,None,dummy,0.983,None,None,None,None,None,tom cruise,"['t', 'o', 'm', 'space', 'c', 'r', 'u', 'i', 's', 'e', 'return']","[0.899992654183734, 1.3498699726469567, 1.5831573598816249, 1.7330225850146235, 2.0495807271454396, 2.316231590150892, 2.6992696847810294, 2.8989206141868635, 3.0492702140645633, 3.249090193464326, 3.4156551200494505]",2017_Feb_23_1505,60.0567736318,famFaceFilter,001,22,
3,./img/gray_KatjaBurkard1_1.png,0,48,48,2,,,1.ja,3.438,None,None,None,host,0.673,None,None,None,,['return'],[0.800159811587946],2017_Feb_23_1505,60.0567736318,famFaceFilter,001,22,
48,./img/gray_LeonardoDiCaprio2_1.png,0,49,49,47,,,1.ja,1.19,None,act,0.672,None,None,None,None,None,leonardo,"['l', 'e', 'o', 'n', 'a', 'r', 'd', 'o', 'return']","[0.8666185927404513, 1.0165604838102809, 1.26653570371127, 1.5163444398431238, 1.732914803615131, 1.9487772103930183, 2.1991582144346467, 2.549109985465293, 2.899195200135182]",2017_Feb_23_1505,60.0567736318,famFaceFilter,001,22,
43,./img/gray_LisaEdelstein(DrLisaCuddy)6_3.png,0,50,50,42,,,1.ja,1.538,None,act,0.606,None,None,None,None,None,,['return'],[0.616680262306545],2017_Feb_23_1505,60.0567736318,famFaceFilter,001,22,
1,./img/gray_JoachimLoew8_1.png,0,51,51,0,,,1.ja,1.289,None,None,None,None,None,sport,0.673,None,,['return'],[0.6500677964249917],2017_Feb_23_1505,60.0567736318,famFaceFilter,001,22,
4,./img/gray_AngelaMerkel1_1.png,0,52,52,3,,,1.ja,1.839,None,None,None,None,None,polit,0.872,None,angela,"['a', 'n', 'g', 'e', 'l', 'a', 'return']","[0.6500196797287572, 0.8500699777150658, 1.1165947749759653, 1.2831722119017286, 1.4497185333639209, 1.6330081820833584, 1.7994897063945245]",2017_Feb_23_1505,60.0567736318,famFaceFilter,001,22,
65,./img/gray_KatjaBurkard5_3.png,0,53,53,64,,,1.ja,1.405,None,None,None,host,0.822,None,None,None,,['return'],[0.7668203941648244],2017_Feb_23_1505,60.0567736318,famFaceFilter,001,22,
19,./img/gray_JasonSegel(Marshall)9_1.png,0,54,54,18,,,1.ja,1.222,None,dummy,0.706,None,None,None,None,None,marshall,"['m', 'a', 'r', 's', 'h', 'a', 'l', 'l', 'return']","[0.8835377063287524, 1.1002376644028118, 1.333404759896439, 1.883192870003768, 2.1165912464184657, 2.2495498683047117, 3.1160654913146573, 3.299223621063902, 3.565893089191377]",2017_Feb_23_1505,60.0567736318,famFaceFilter,001,22,
39,./img/gray_UrsulavonderLeyen1_1.png,0,55,55,38,,,1.ja,1.222,None,None,None,None,None,polit,0.622,None,von der leyen,"['v', 'o', 'n', 'space', 'd', 'e', 'r', 'space', 'l', 'e', 'y', 'e', 'n', 'return']","[1.0167109286812774, 1.2000332967536451, 1.4332250921515879, 1.6164027893564707, 1.7664014581278025, 1.9496163655785494, 2.132993265908226, 2.299350969919942, 2.8492584094346967, 3.032599061853034, 3.365787938170797, 3.582319167029709, 3.798840130993085, 4.815132123636431]",2017_Feb_23_1505,60.0567736318,famFaceFilter,001,22,
13,./img/gray_NeilPatrickHarris(Barney)2_2.png,0,56,56,12,,,1.ja,1.066,None,act,0.706,None,None,None,None,None,barney,"['b', 'a', 'r', 'n', 'e', 'y', 'return']","[0.9501193454461827, 1.3666296595811218, 1.599657537432904, 1.9165464016568876, 2.0992198358835594, 2.582872188260808, 2.8494556878904405]",2017_Feb_23_1505,60.0567736318,famFaceFilter,001,22,
30,./img/gray_BarackObama4_1.png,0,57,57,29,,,1.ja,1.222,None,None,None,None,None,polit,2.89,None,barack,"['b', 'a', 'r', 'a', 'c', 'k', 'return']","[1.2499437836595462, 1.4663694765640685, 1.8162859620179006, 1.9330125767419304, 2.282579734979663, 2.5493419079421074, 2.8826202813161217]",2017_Feb_23_1505,60.0567736318,famFaceFilter,001,22,
56,./img/gray_GuentherJauch2_1.png,0,58,58,55,,,1.ja,1.106,None,None,None,host,1.722,None,None,None,gnther jauch,"['g', u'\xfc', 'n', 't', 'h', 'e', 'r', 'space', 'j', 'a', 'u', 's', 'backspace', 'c', 'h', 'return']","[0.8333920891664093, 1.666379677304576, 2.016030558593229, 2.34929193073458, 2.5492601095593272, 2.6660014800700083, 2.8823543563739804, 3.0991056389248115, 3.6489351293912478, 3.832093259139583, 4.049399808367525, 4.248742470138495, 4.7652662248701745, 5.015007597627118, 5.214951718103293, 5.648206963384837]",2017_Feb_23_1505,60.0567736318,famFaceFilter,001,22,
11,./img/gray_EmilyDeschanel6_12.png,0,59,59,10,,,2.nein,3.199,None,dummy,3.754,None,None,None,None,None,,['return'],[1.0832495835502414],2017_Feb_23_1505,60.0567736318,famFaceFilter,001,22,
66,./img/gray_NeilPatrickHarris(Barney)3_7.png,0,60,60,65,,,1.ja,1.339,None,act,0.406,None,None,None,None,None,barney,"['b', 'a', 'r', 'n', 'e', 'y', 'return']","[0.9333660740721825, 1.1833624653199877, 1.3496374086143987, 1.7162985044369634, 1.949369366537212, 2.249534150184445, 2.5158616689886912]",2017_Feb_23_1505,60.0567736318,famFaceFilter,001,22,
42,./img/gray_NicoleKidman5_1.png,0,61,61,41,,,1.ja,1.372,None,act,0.99,None,None,None,None,None,kylie,"['k', 'y', 'l', 'i', 'e', 'return']","[1.0335042973019881, 1.3331584024099357, 1.616352427214224, 1.8830167628939307, 2.016207948813644, 9.063588459819584]",2017_Feb_23_1505,60.0567736318,famFaceFilter,001,22,
45,./img/gray_NicoleKidman7_1.png,0,62,62,44,,,1.ja,2.233,None,dummy,1.322,None,None,None,None,None,kylie,"['k', 'y', 'l', 'i', 'e', 'return']","[1.4331808247907247, 1.7663802867818958, 1.982927554539856, 2.166265319955528, 2.3161202801929903, 2.5160098684136756]",2017_Feb_23_1505,60.0567736318,famFaceFilter,001,22,
25,./img/gray_MariskaHargitay(Liv)8_8.png,0,63,63,24,,,2.nein,4.021,None,None,None,host,2.831,None,None,None,,['return'],[0.9166721466235686],2017_Feb_23_1505,60.0567736318,famFaceFilter,001,22,
5,./img/gray_OmarEpps(DrEricForeman)2_2.png,0,64,64,4,,,1.ja,2.689,None,act,0.639,None,None,None,None,None,,['return'],[0.850127396973221],2017_Feb_23_1505,60.0567736318,famFaceFilter,001,22,
40,./img/gray_BritneySpears1_1.png,0,65,65,39,,,1.ja,1.355,None,None,None,music,0.605,None,None,None,britney,"['b', 'r', 'i', 't', 'n', 'e', 'y', 'return']","[1.5166546321461283, 1.816547396068927, 1.9830346943836048, 2.299687786796312, 2.882822371441762, 3.0495014949865435, 3.349343575988314, 3.5822238959708557]",2017_Feb_23_1505,60.0567736318,famFaceFilter,001,22,
68,./img/gray_Ice-T(OdafinFinTutuola)7_1.png,0,66,66,67,,,2.nein,3.604,None,None,None,music,0.854,None,None,None,dr dre,"['d', 'r', 'space', 'd', 'r', 'e', 'return']","[1.299938314395149, 1.4997034407606407, 1.7330543420348477, 2.116177442829212, 2.3159836287750295, 3.4988091117629665, 4.6151690772603615]",2017_Feb_23_1505,60.0567736318,famFaceFilter,001,22,
18,./img/gray_JasonSegel(Marshall)7_1.png,0,67,67,17,,,1.ja,2.782,None,act,0.506,None,None,None,None,None,marshall,"['m', 'a', 'r', 's', 'h', 'a', 'l', 'l', 'plus', 'return']","[1.0002928702924692, 1.2167785486781213, 1.4334550899602618, 1.7333340604300247, 1.9498242297077013, 2.099995477030461, 2.4163880977257577, 2.6161942836724847, 2.8662593214066874, 3.615912961387039]",2017_Feb_23_1505,60.0567736318,famFaceFilter,001,22,
7,./img/gray_OmarEpps(DrEricForeman)1_5.png,0,68,68,6,,,1.ja,4.504,None,act,0.448,None,None,None,None,None,,['return'],[0.6667447226409422],2017_Feb_23_1505,60.0567736318,famFaceFilter,001,22,
12,./img/gray_BarackObama2_1.png,0,69,69,11,,,1.ja,1.222,None,None,None,None,None,polit,2.205,None,barack,"['b', 'a', 't', 'backspace', 'r', 'a', 'c', 'k', 'return']","[0.7666590428434574, 0.9834029475005082, 1.1001510543492259, 1.6997482855222188, 2.2828706806049013, 2.4326919591549085, 2.815803191163468, 3.04891832062458, 3.9153614478127565]",2017_Feb_23_1505,60.0567736318,famFaceFilter,001,22,
17,./img/gray_JasonSegel(Marshall)6_1.png,0,70,70,16,,,1.ja,1.038,None,dummy,0.439,None,None,None,None,None,marshall,"['m', 'a', 'r', 's', 'a', 'h', 'a', 'backspace', 'a', 'backspace', 'backspace', 'backspace', 'h', 'a', 'l', 'l', 'return']","[0.8834289625947349, 1.133375633256037, 1.3497281887821373, 1.5330284231740734, 1.7495920506089533, 1.9329513081484038, 2.1160340550732144, 3.0157546895334235, 3.8321975119824856, 4.74849755615287, 4.931633552221683, 5.09826808762773, 7.030793402624113, 7.230821246152118, 7.497466335153149, 7.663889477873454, 7.947090559792741]",2017_Feb_23_1505,60.0567736318,famFaceFilter,001,22,
71,./img/gray_BritneySpears7_1.png,0,71,71,70,,,1.ja,1.266,None,dummy,0.422,None,None,None,None,None,britney,"['b', 'r', 'i', 't', 'n', 'e', 'y', 'return']","[1.2998212304337358, 1.5830575979316563, 1.9495073010675696, 2.199647080070463, 2.5494233855488346, 2.765976106531525, 3.049206700025934, 3.2323465454301186]",2017_Feb_23_1505,60.0567736318,famFaceFilter,001,22,
