num,pic,trials.thisRepN,trials.thisTrialN,trials.thisN,trials.thisIndex,key_resp_2.keys,key_resp_2.rt,ratingBekannt.response,ratingBekannt.rt,key_resp_5.keys,key_resp_5.rt,ratingK1.response,ratingK1.rt,ratingK2.response,ratingK2.rt,ratingK3.response,ratingK3.rt,key_resp_6.keys,key_resp_6.rt,inputText,key_resp_4.keys,key_resp_4.rt,date,frameRate,expName,session,participant,
,,,,,,space,32.8179973125,,,,,,,,,,,,,,,,2017_Feb_23_1717,59.9066259274,famFaceFilter,001,23,
8,./img/smoo15_AngelaMerkel4_1.png,0,0,0,7,,,None,None,1,4.53166639989,None,None,None,None,None,None,4,4.69840005569,Angela Merkel,"['lshift', 'a', 'n', 'g', 'e', 'l', 'a', 'space', 'lshift', 'm', 'e', 'r', 'k', 'e', 'l', 'return']","[1.316570010916621, 1.5500242026973865, 1.7331396689769463, 2.0495047027652618, 2.266313404574248, 2.399501061934643, 2.599481430323067, 3.6322822615238692, 3.798999878425093, 3.94907040146245, 4.182186493258996, 4.282200896188442, 4.548618553604683, 4.6653025048581185, 4.7820223832459305, 5.465003924718985]",2017_Feb_23_1717,59.9066259274,famFaceFilter,001,23,
53,./img/smoo15_GuentherJauch4_1.png,0,1,1,52,,,1.ja,20.41,None,,None,None,host,3.735,None,None,None,,Günther Jauch,"['lshift', 'g', u'\xfc', 'n', 't', 'h', 'e', 'r', 'space', 'lshift', 'j', 'a', 'u', 'c', 'h', 'return']","[17.993070233374965, 18.29287478335391, 18.80958458931127, 19.192697104432227, 19.42590333483895, 19.62601971308868, 19.792577582558806, 19.875858923127453, 20.025836420552878, 20.358767712155895, 20.542288641796404, 20.67533643996103, 20.775393185584107, 21.025392143055797, 21.208633354301128, 21.82506533445303]",2017_Feb_23_1717,59.9066259274,famFaceFilter,001,23,
60,./img/smoo15_LeonardoDiCaprio2_1.png,0,2,2,59,,,None,None,1,2.89915542367,None,None,None,None,None,None,1,5.98133040099,Leonardo DiCaprio,"['lshift', 'l', 'e', 'o', 'n', 'a', 'r', 'd', 'i', 'space', 'd', 'i', 'backspace', 'backspace', 'backspace', 'backspace', 'o', 'space', 'lshift', 'd', 'i', 'lshift', 'c', 'a', 'r', 'p', 'backspace', 'backspace', 'p', 'r', 'i', 'o', 'return']","[1.7163780573755503, 1.9996474650033633, 2.2495764928771678, 2.6494130885748746, 2.8657666064355, 2.999184903163041, 3.4156448551548237, 3.6155508030515193, 3.932178874782039, 4.165391841524979, 4.365342056784357, 4.665214611693955, 5.498171405146422, 5.648120353331251, 6.814074197871378, 7.2139820062802755, 8.16382676577814, 8.397055771421947, 8.530267807909695, 8.730178888254159, 9.063401125482414, 9.34668015645002, 9.529871647107939, 9.64626561507066, 9.963046056340318, 10.41284318030921, 11.978935472623562, 12.145384277580888, 13.295141721313485, 13.494980626614051, 13.878101481961494, 14.078039828435067, 14.8943953992748]",2017_Feb_23_1717,59.9066259274,famFaceFilter,001,23,
44,./img/smoo15_GuentherJauch2_1.png,0,3,3,43,,,None,None,1,5.66457818819,None,None,None,None,None,None,3,4.28159173881,Günther Jauch,"['lshift', 'g', u'\xfc', 'n', 't', 'e', 'r', 'backspace', 'backspace', 'backspace', 't', 'h', 'e', 'r', 'space', 'lshift', 'j', 'a', 'u', 'c', 'h', 'return']","[1.4332138649224362, 2.0165508604713978, 2.416322659018988, 2.7827117351171182, 3.0160924687424995, 3.1492140458412905, 3.282366096847909, 4.531973705186829, 4.682002206311154, 5.348354296707839, 6.331349535401387, 6.581201255781707, 6.731171375313352, 6.831099809745865, 6.931187670834333, 7.247628408225864, 7.39754399550111, 7.497619987803773, 7.7473443593280535, 7.947406205321386, 8.097258278558002, 9.0635586274675]",2017_Feb_23_1717,59.9066259274,famFaceFilter,001,23,
2,./img/smoo15_WillSmith5_1.png,0,4,4,1,,,None,None,2,4.66512062375,None,None,None,None,None,None,2,4.04876980042,,['return'],[0.8334254500750831],2017_Feb_23_1717,59.9066259274,famFaceFilter,001,23,
61,./img/smoo15_OmarEpps(DrEricForeman)3_1.png,0,5,5,60,,,None,None,2,4.29871454642,None,None,None,None,None,None,1,5.86471541701,,['return'],[1.0000246999043156],2017_Feb_23_1717,59.9066259274,famFaceFilter,001,23,
6,./img/smoo15_AlysonHannigan(Lily)1_1.png,0,6,6,5,,,None,None,1,6.33114359594,None,None,None,None,None,None,1,0.383739315286,,['return'],[9.8963646552711],2017_Feb_23_1717,59.9066259274,famFaceFilter,001,23,
4,./img/smoo15_UrsulavonderLeyen1_1.png,0,7,7,3,,,None,None,1,4.04915633788,None,None,None,None,None,None,4,2.51637170597,Ursula von der Leien,"['lshift', 'u', 'r', 's', 'u', 'l', 'a', 'space', 'v', 'o', 'n', 'space', 'd', 'e', 'r', 'space', 'lshift', 'l', 'e', 'i', 'e', 'n', 'return']","[7.4306649631216715, 8.680252683227081, 9.213225291034178, 9.646524482897803, 9.929659484554577, 10.329656148463982, 10.462814935806819, 10.629469680225156, 10.87932011749399, 11.04601720460596, 11.279082292703606, 11.462420058118369, 11.562349134108445, 11.74563461271282, 11.8622611447081, 11.995478955201179, 15.610576178192787, 15.694044211544679, 16.743328219063187, 17.110083944387952, 17.35988947274018, 17.559568309830865, 18.84276554241478]",2017_Feb_23_1717,59.9066259274,famFaceFilter,001,23,
21,./img/smoo15_NeilPatrickHarris(Barney)3_7.png,0,8,8,20,,,None,None,1,4.51505555393,None,None,None,None,None,None,1,1.03324478792,,['return'],[3.915486230445822],2017_Feb_23_1717,59.9066259274,famFaceFilter,001,23,
58,./img/smoo15_EmilyDeschanel3_1.png,0,9,9,57,,,None,None,2,4.48161509145,None,None,None,None,None,None,1,0.833514305576,,['return'],[0.6501348390229396],2017_Feb_23_1717,59.9066259274,famFaceFilter,001,23,
68,./img/smoo15_AlysonHannigan(Lily)8_3.png,0,10,10,67,,,None,None,1,6.13161680761,None,None,None,None,None,None,1,3.09909505325,,['return'],[0.38349103313339583],2017_Feb_23_1717,59.9066259274,famFaceFilter,001,23,
52,./img/smoo15_BastianSchweinsteiger3_1.png,0,11,11,51,,,None,None,1,2.91561165463,None,None,None,None,None,None,5,2.13261282323,,['return'],[0.3502994943573867],2017_Feb_23_1717,59.9066259274,famFaceFilter,001,23,
24,./img/smoo15_BastianSchweinsteiger1_1.png,0,12,12,23,,,None,None,1,4.03215382202,None,None,None,None,None,None,5,1.7830703649,,['return'],[1.1999421958080347],2017_Feb_23_1717,59.9066259274,famFaceFilter,001,23,
64,./img/smoo15_JoachimLoew8_1.png,0,13,13,63,,,None,None,1,2.03288551659,None,None,None,None,None,None,5,2.43276734198,Joachim Löw,"['lshift', 'j', 'o', 'a', 'c', 'h', 'i', 'm', 'space', 'lshift', 'l', u'\xf6', 'w', 'return']","[1.1998116391714575, 1.6829934102570405, 1.9662653841096471, 2.116003901943259, 2.415889608750149, 2.6156139963113674, 2.882381943278233, 3.165687278040423, 3.348933300954741, 3.648834084327973, 3.832146187505714, 4.248761716815352, 4.531751406049807, 22.191307494238572]",2017_Feb_23_1717,59.9066259274,famFaceFilter,001,23,
40,./img/smoo15_NeilPatrickHarris(Barney)2_2.png,0,14,14,39,,,None,None,1,3.01583680869,None,None,None,None,None,None,1,0.899996182743,Barney,"['lshift', 'b', 'a', 'r', 'n', 'e', 'y', 'return']","[2.615801009873394, 2.865586329213329, 2.999283382001522, 3.2158136485268187, 3.6822447144622856, 3.865531155401186, 4.482003874356451, 6.780964136702096]",2017_Feb_23_1717,59.9066259274,famFaceFilter,001,23,
17,./img/smoo15_GeorgeClooney11_1.png,0,15,15,16,,,None,None,1,3.24915883995,None,None,None,None,None,None,1,0.81617465206,George Clouney,"['lshift', 'g', 'e', 'o', 'r', 'g', 'e', 'space', 'lshift', 'c', 'l', 'o', 'n', 'e', 'y', 'left', 'left', 'left', 'u', 'backspace', 'backspace', 'backspace', 'backspace', 'u', 'n', 'e', 'y', 'return']","[0.9832906752089912, 1.5661997529368819, 1.81638604474756, 2.082833534515885, 2.299379519161448, 2.6493004955063952, 2.765875703025813, 2.9324047024765605, 3.282251899889161, 3.6820663619073457, 4.4318518416348525, 4.648504324568421, 5.015087150564796, 5.164945960139448, 7.464086178928483, 9.146814947356688, 9.313193822714311, 9.529783112388031, 10.396163367091503, 11.412508929657633, 11.578966074843265, 11.712285251174762, 11.862320167856524, 12.74522722468464, 12.995130269540823, 13.211516185976507, 13.811479745598263, 19.90904500867873]",2017_Feb_23_1717,59.9066259274,famFaceFilter,001,23,
14,./img/smoo15_BritneySpears7_1.png,0,16,16,13,,,None,None,1,6.54765204956,None,None,None,None,None,None,2,5.99796145596,,['return'],[0.38356513284452376],2017_Feb_23_1717,59.9066259274,famFaceFilter,001,23,
69,./img/smoo15_BritneySpears5_1.png,0,17,17,68,,,None,None,1,3.33233047445,None,None,None,None,None,None,2,2.04955346102,,['return'],[0.2166213674699975],2017_Feb_23_1717,59.9066259274,famFaceFilter,001,23,
22,./img/smoo15_WillSmith1_1.png,0,18,18,21,,,None,None,1,3.11522505302,None,None,None,None,None,None,1,2.53301719594,,['return'],[0.5999250662644044],2017_Feb_23_1717,59.9066259274,famFaceFilter,001,23,
57,./img/smoo15_UrsulavonderLeyen5_1.png,0,19,19,56,,,None,None,1,1.91599530509,None,None,None,None,None,None,4,3.06590511836, Ursula von der Leien,"['space', 'lshift', 'u', 'r', 's', 'u', 'l', 'a', 'space', 'v', 'o', 'n', 'space', 'd', 'e', 'r', 'space', 'lshift', 'l', 'e', 'i', 'e', 'n', 'return']","[0.5002862943438231, 0.8000286133956251, 0.9834119292845571, 1.6498410063959454, 2.6324788984220504, 2.949243942348403, 3.3324652012033766, 3.4489181923127035, 3.5990220762614626, 3.8321927003125893, 4.04880733144455, 4.265428378137585, 4.448550580751544, 4.476300121157692, 4.648614351413926, 4.781834086574236, 4.915090390422847, 5.1816536810401885, 5.39833214698956, 5.947972378449776, 6.214583144208518, 6.297910676807078, 6.464498057850506, 7.464088103595714]",2017_Feb_23_1717,59.9066259274,famFaceFilter,001,23,
26,./img/smoo15_TomCruise4_1.png,0,20,20,25,,,None,None,1,1.61620198234,None,None,None,None,None,None,1,0.850100451622,Tom Cruise,"['lshift', 't', 'o', 'm', 'space', 'lshift', 'c', 'r', 'u', 'i', 's', 'e', 'return']","[6.03118218553027, 6.131254649275434, 6.697456006102584, 7.030948659163187, 7.2141744730652135, 7.397092981665992, 8.113724774420916, 8.46370894402753, 8.84682755392896, 9.03014831811197, 9.19660706718787, 9.379936813153108, 11.029268744901856]",2017_Feb_23_1717,59.9066259274,famFaceFilter,001,23,
63,./img/smoo15_RobertSeanLeonard(Wilson)8_1.png,0,21,21,62,,,None,None,2,4.54847420352,None,None,None,None,None,None,1,7.59721000147,,['return'],[0.35001945518524735],2017_Feb_23_1717,59.9066259274,famFaceFilter,001,23,
47,./img/smoo15_BarackObama4_1.png,0,22,22,46,,,None,None,1,1.96607452121,None,None,None,None,None,None,4,2.13282742369, Barack Obama,"['space', 'lshift', 'b', 'a', 'r', 'a', 'c', 'k', 'space', 'lshift', 'o', 'b', 'a', 'm', 'a', 'return']","[0.4168772841403552, 3.5488312294037314, 3.6489338462797605, 3.8321769821923226, 4.315236216090852, 4.565194113980397, 4.948460923307721, 5.131655942524958, 5.38161351963754, 6.164699923430817, 6.264525067355862, 6.66443480043381, 6.797747881983014, 6.947609899336385, 7.0308732763405715, 8.363567833795969]",2017_Feb_23_1717,59.9066259274,famFaceFilter,001,23,
72,./img/smoo15_HughLaurie(DrHouse)2_1.png,0,23,23,71,,,None,None,1,2.33262302397,None,None,None,None,None,None,1,0.883340748651,Dr House,"['lshift', 'd', 'r', 'space', 'lshift', 'h', 'o', 'u', 's', 'e', 'return']","[1.083207561634481, 1.316674263758614, 1.782981188616759, 2.149508199245247, 2.499339036980018, 2.666035803313207, 2.949166634856738, 3.1990680758226517, 3.515524210557487, 3.7321577675902518, 4.481900904625945]",2017_Feb_23_1717,59.9066259274,famFaceFilter,001,23,
51,./img/smoo15_LeonardoDiCaprio1_1.png,0,24,24,50,,,None,None,1,1.69966809103,None,None,None,None,None,None,1,1.16627943419,Leonardo DiCaprio,"['lshift', 'l', 'e', 'o', 'n', 'a', 'r', 'o', 'backspace', 'd', 'o', 'space', 'lshift', 'd', 'i', 'lshift', 'c', 'a', 'r', 'backspace', 'p', 'r', 'i', 'o', 'return']","[0.8333446140240994, 1.2166085363496677, 1.3999151863026782, 1.6663530527312105, 2.0329150281595503, 2.1328511612646253, 2.4158703620705637, 2.832628637581365, 4.332011300366503, 4.565213360658163, 4.848262393818004, 5.131671339866443, 5.53142068395573, 5.64785988161384, 5.931015092282905, 6.281131101637584, 6.431002742330747, 6.632448424514223, 6.964310242343345, 9.529982315509187, 10.0962385253697, 10.4628553538314, 10.796092026068436, 10.962622950188234, 11.395773301070221]",2017_Feb_23_1717,59.9066259274,famFaceFilter,001,23,
39,./img/smoo15_BarackObama2_1.png,0,25,25,38,,,None,None,1,1.81607072,None,None,None,None,None,None,4,7.23054249009,Barack Obama,"['lshift', 'b', 'a', 'r', 'a', 'c', 'k', 'space', 'lshift', 'o', 'b', 'a', 'm', 'a', 'return']","[1.066676589398412, 1.2000551096552954, 1.366607205121909, 1.6165625367884786, 1.9164020515672746, 2.249626855018505, 2.44947987454907, 2.6661487171604676, 2.8158833856559795, 2.9160360438963835, 3.1992464283775917, 3.315768065973316, 3.6321504217739857, 3.7321885622750415, 4.715916457866115]",2017_Feb_23_1717,59.9066259274,famFaceFilter,001,23,
15,./img/smoo15_LisaEdelstein(DrLisaCuddy)1_1.png,0,26,26,14,,,None,None,2,7.01413925165,None,None,None,None,None,None,1,3.54903845198,,['return'],[0.3168853356673935],2017_Feb_23_1717,59.9066259274,famFaceFilter,001,23,
32,./img/smoo15_TomCruise1_1.png,0,27,27,31,,,None,None,1,2.63272140657,None,None,None,None,None,None,1,0.733472315738,Tom Cruise,"['lshift', 't', 'o', 'm', 'space', 'lshift', 'c', 'r', 'u', 'i', 's', 'e', 'return']","[0.8834058665797784, 1.1499306638415874, 1.5497788075463177, 1.816342098163659, 1.9995213992588106, 2.1509080743344384, 2.3661549081753037, 2.6825754365545436, 3.0824951137492462, 3.2823898344176996, 3.432269173781606, 3.6156444702210138, 3.9487932492920663]",2017_Feb_23_1717,59.9066259274,famFaceFilter,001,23,
49,./img/smoo15_TomCruise5_1.png,0,28,28,48,,,None,None,1,5.91464482981,None,None,None,None,None,None,1,0.833311573895,Tom Cruise,"['lshift', 't', 'o', 'm', 'space', 'lshift', 'c', 'r', 'u', 'i', 's', 'e', 'return']","[2.5826110749876534, 3.065700141238267, 3.498917855496984, 3.7988070908613736, 3.982094494134799, 4.148662949277423, 4.331869516501683, 4.6815970637271676, 5.015039675423395, 5.1816305850261415, 5.298201622430497, 5.481546765740859, 5.781329182038462]",2017_Feb_23_1717,59.9066259274,famFaceFilter,001,23,
30,./img/smoo15_KatjaBurkard4_1.png,0,29,29,29,,,None,None,1,9.23008826848,None,None,None,None,None,None,3,1.63290296691,,['return'],[0.816609626996069],2017_Feb_23_1717,59.9066259274,famFaceFilter,001,23,
66,./img/smoo15_NicoleKidman3_1.png,0,30,30,65,,,None,None,1,3.23229842873,None,None,None,None,None,None,1,0.716693061348,Nicole Kidman,"['lshift', 'n', 'i', 'c', 'o', 'l', 'e', 'space', 'lshift', 'k', 'i', 's', 'backspace', 'd', 'm', 'a', 'n', 'return']","[0.8832839709484688, 2.266247324310825, 2.5326280922599835, 2.8490919256655616, 3.0657630137211527, 3.2489516173791344, 3.398915642128486, 3.5655399126389966, 3.9153441258004023, 4.2153462750138715, 4.415326964179258, 4.6652454063787445, 6.03124602034768, 6.347803520922753, 6.647707512074703, 6.814028647397208, 6.964093075654091, 8.030180395910065]",2017_Feb_23_1717,59.9066259274,famFaceFilter,001,23,
38,./img/smoo15_AlysonHannigan(Lily)5_4.png,0,31,31,37,,,None,None,1,3.29888969119,None,None,None,None,None,None,1,0.716543258033,Lilly,"['lshift', 'l', 'i', 'l', 'l', 'y', 'return']","[0.7499808335160196, 0.9000045229695388, 1.1166403254483157, 1.6997168492798664, 1.833040516503388, 1.9496061006830132, 2.8658285165838606]",2017_Feb_23_1717,59.9066259274,famFaceFilter,001,23,
65,./img/smoo15_UrsulavonderLeyen4_1.png,0,32,32,64,,,None,None,2,12.4287236148,None,None,None,None,None,None,4,1.7333067943,,['return'],[0.18353953476253082],2017_Feb_23_1717,59.9066259274,famFaceFilter,001,23,
5,./img/smoo15_BarackObama1_3.png,0,33,33,4,,,None,None,1,1.75002702554,None,None,None,None,None,None,4,1.64968639141,Barack Obama,"['lshift', 'b', 'a', 'r', 'a', 'c', 'k', 'space', 'lshift', 'o', 'b', 'a', 'm', 'a', 'return']","[1.0999319629900128, 1.2665446854934999, 1.4331558041085373, 1.6830646229682316, 1.8330331386096077, 2.132568235088911, 2.3825463419907464, 2.582593752977118, 2.715842678931949, 2.8653300276091613, 3.165792813995722, 3.3155268409354903, 3.4489711206788343, 3.565635504475722, 4.665151097653506]",2017_Feb_23_1717,59.9066259274,famFaceFilter,001,23,
1,./img/smoo15_Ice-T(OdafinFinTutuola)6_1.png,0,34,34,0,,,None,None,1,4.898436881,None,None,None,None,None,None,1,1.28282320546,,['return'],[0.5167720368863229],2017_Feb_23_1717,59.9066259274,famFaceFilter,001,23,
54,./img/smoo15_LisaEdelstein(DrLisaCuddy)6_3.png,0,35,35,53,,,None,None,2,3.24955307608,None,None,None,None,None,None,1,1.56635212248,,['return'],[0.26693410995721933],2017_Feb_23_1717,59.9066259274,famFaceFilter,001,23,
9,./img/smoo15_EmilyDeschanel6_12.png,0,36,36,8,,,None,None,1,1.28324567006,None,None,None,None,None,None,1,0.450159282305,Nicole Kidman,"['lshift', 'n', 'o', 'backspace', 'i', 'c', 'o', 'l', 'e', 'space', 'lshift', 'k', 'i', 's', 'm', 'a', 'n', 'n', 'backspace', 'backspace', 'backspace', 'backspace', 'backspace', 'd', 'm', 'a', 'n', 'n', 'backspace', 'return']","[1.0000198882353288, 1.0999656446801964, 1.3498311585135525, 1.9995878003010148, 2.3661815327486693, 2.566025570497004, 2.8990248670306755, 3.0658220368695766, 3.2824440458971367, 3.5989957724686974, 4.215232398832086, 4.315412643978561, 4.515035024143799, 5.048399943416371, 5.281559340237436, 5.4314829469622055, 5.54827050950189, 5.698092429607641, 6.747683742427398, 6.897495397639432, 7.030967905842772, 7.147507507006594, 7.296823239466903, 8.030658996651255, 8.430218440178578, 8.546986435261715, 8.74696872831737, 8.913489066764669, 10.412921770914181, 10.662830589773876]",2017_Feb_23_1717,59.9066259274,famFaceFilter,001,23,
7,./img/smoo15_LisaEdelstein(DrLisaCuddy)2_2.png,0,37,37,6,,,None,None,2,3.88190109709,None,None,None,None,None,None,3,1.68311402278,,['return'],[0.1669764847283659],2017_Feb_23_1717,59.9066259274,famFaceFilter,001,23,
31,./img/smoo15_BritneySpears1_1.png,0,38,38,30,,,None,None,1,1.86621312938,None,None,None,None,None,None,2,1.04993871537,Britney Spears,"['lshift', 'b', 'r', 'i', 't', 'n', 'e', 'y', 'space', 'lshift', 's', 'p', 'e', 'a', 'r', 's', 'return']","[1.1330988018635253, 1.3165087423240038, 1.6331271907129121, 1.8830039317763294, 2.1494886317886994, 2.4661818214481173, 2.649316213626662, 3.132518193726355, 3.282363209846153, 3.948888199573048, 4.048806369111844, 4.6985181019827, 4.881847527170976, 5.165009794956859, 5.365011013913318, 5.498184877820677, 7.1473063792163885]",2017_Feb_23_1717,59.9066259274,famFaceFilter,001,23,
43,./img/smoo15_JoachimLoew1_1.png,0,39,39,42,,,None,None,1,1.61625491071,None,None,None,None,None,None,5,1.36676438633,Joachim Löw,"['lshift', 'j', 'o', 'a', 'c', 'h', 'i', 'm', 'space', 'lshift', 'l', u'\xf6', 'w', 'return']","[1.0499217141350528, 1.4164371767565171, 1.6830331867276982, 1.7995666931110463, 2.1161982933972467, 2.2661664882616606, 2.532747742445281, 2.86585417882452, 3.015752123310449, 3.1824136040668236, 3.3487918378687027, 3.6822382989030302, 3.9489128994773637, 4.831792369399409]",2017_Feb_23_1717,59.9066259274,famFaceFilter,001,23,
28,./img/smoo15_HughLaurie(DrHouse)5_3.png,0,40,40,27,,,None,None,1,2.91594558451,None,None,None,None,None,None,1,0.849965083316,Dr House,"['lshift', 'd', 'r', 'space', 'lshift', 'h', 'o', 'u', 's', 'e', 'return']","[0.8835344985473057, 1.0500391188743379, 1.3499536956987868, 2.149688476467418, 2.3163310313229886, 2.499522201203945, 2.782673241759767, 2.9826715737144696, 3.165790889326672, 3.365889624788906, 3.5989098039681267]",2017_Feb_23_1717,59.9066259274,famFaceFilter,001,23,
13,./img/smoo15_GeorgeClooney3_1.png,0,41,41,12,,,None,None,2,6.49786923229,None,None,None,None,None,None,1,1.06637537888,,['return'],[0.3169960040686419],2017_Feb_23_1717,59.9066259274,famFaceFilter,001,23,
45,./img/smoo15_RobertSeanLeonard(Wilson)2_6.png,0,42,42,44,,,None,None,2,2.24989823319,None,None,None,None,None,None,1,2.08268244809,,['return'],[0.3667704811123258],2017_Feb_23_1717,59.9066259274,famFaceFilter,001,23,
41,./img/smoo15_AngelaMerkel3_1.png,0,43,43,40,,,None,None,1,1.76636649333,None,None,None,None,None,None,4,3.64888476725,Angela Merkel,"['lshift', 'a', 'n', 'g', 'e', 'l', 'a', 'space', 'lshift', 'm', 'e', 'r', 'k', 'e', 'l', 'return']","[1.016713494906071, 1.2499550108896074, 1.5997656396120874, 1.8329356221056514, 1.9662910463503067, 2.182793084411969, 2.349502681865488, 2.548885120104387, 2.8158776116542867, 2.9492275826723926, 3.2158062706330384, 3.348746928952096, 3.582225820638996, 3.7155382606342755, 3.815393878467148, 4.565215606105994]",2017_Feb_23_1717,59.9066259274,famFaceFilter,001,23,
35,./img/smoo15_KatjaBurkard1_1.png,0,44,44,34,,,None,None,2,5.1981814455,None,None,None,None,None,None,5,2.79940213401,,['return'],[0.20031975148776837],2017_Feb_23_1717,59.9066259274,famFaceFilter,001,23,
3,./img/smoo15_JoshRadnor(Ted)3_1.png,0,45,45,2,,,None,None,1,2.11614215725,None,None,None,None,None,None,1,1.78303572087,Ted Mosby,"['lshift', 't', 'e', 'd', 'space', 'lshift', 'm', 'o', 's', 'b', 'y', 'return']","[0.7000831777295389, 0.8332503053006803, 1.0000920632792258, 1.349779513258909, 1.5164230304471857, 1.749692454115575, 1.8829471540739178, 2.1160828133251925, 2.2493063978199643, 2.715912608531653, 2.8825981476365996, 3.2158072329657443]",2017_Feb_23_1717,59.9066259274,famFaceFilter,001,23,
71,./img/smoo15_AngelaMerkel1_1.png,0,46,46,70,,,None,None,1,1.53293700145,None,None,None,None,None,None,4,3.38210366838,Angela Merkel,"['lshift', 'a', 'n', 'g', 'e', 'l', 'a', 'space', 'lshift', 'm', 'e', 'r', 'k', 'e', 'l', 'return']","[0.933258292670871, 1.2331513773715415, 1.46653531877746, 1.6995631966292422, 1.8164280666605919, 2.0329214437188057, 2.1494305709748005, 2.3828113046001818, 4.198632138552057, 4.315386019405196, 5.514385127962669, 5.6309693172643165, 6.030922996924346, 6.14776701638948, 6.247835310019582, 6.564204193144178]",2017_Feb_23_1717,59.9066259274,famFaceFilter,001,23,
33,./img/smoo15_Ice-T(OdafinFinTutuola)7_1.png,0,47,47,32,,,None,None,1,5.24829338097,None,None,None,None,None,None,2,1.59976788506,,['return'],[0.7334104055880744],2017_Feb_23_1717,59.9066259274,famFaceFilter,001,23,
25,./img/smoo15_JasonSegel(Marshall)6_1.png,0,48,48,24,,,None,None,2,5.06544127341,None,None,None,None,None,None,1,0.949968900575,,['return'],[0.25023216305999085],2017_Feb_23_1717,59.9066259274,famFaceFilter,001,23,
11,./img/smoo15_LeonardoDiCaprio3_1.png,0,49,49,10,,,None,None,1,1.36683431593,None,None,None,None,None,None,1,0.982523695067,Leonardo DiCaprio,"['lshift', 'l', 'e', 'o', 'n', 'a', 'r', 'd', 'o', 'space', 'lshift', 'd', 'i', 'lshift', 'c', 'a', 'p', 'r', 'i', 'o', 'return']","[1.3670065737042023, 1.6166359949456819, 1.866542568361183, 2.133458393975161, 2.3833931958506582, 2.51680603935165, 2.716439005191205, 2.949890630748996, 3.2998180226550176, 3.5330691619783465, 3.8994999392125465, 3.999394691958514, 4.349096897723939, 4.732861554472038, 4.882448344320437, 5.049576236255234, 5.948749944265728, 6.3652134248150105, 6.648453000092559, 6.814895710269411, 7.231426874972385]",2017_Feb_23_1717,59.9066259274,famFaceFilter,001,23,
27,./img/smoo15_JasonSegel(Marshall)9_1.png,0,50,50,26,,,None,None,1,5.26485290245,None,None,None,None,None,None,1,1.31662005228,Marshall,"['lshift', 'm', 'a', 'r', 's', 'h', 'a', 'l', 'l', 'return']","[1.1995639985743765, 1.44980578497416, 1.5830861471695243, 1.7997328561014, 2.0163061068742536, 2.332885420351886, 2.449406095614904, 2.682649857044453, 2.8325317626331525, 3.0658919664674613]",2017_Feb_23_1717,59.9066259274,famFaceFilter,001,23,
42,./img/smoo15_OmarEpps(DrEricForeman)1_5.png,0,51,51,41,,,None,None,2,8.26330867727,None,None,None,None,None,None,1,0.849921136734,,['return'],[0.9666188814408088],2017_Feb_23_1717,59.9066259274,famFaceFilter,001,23,
20,./img/smoo15_NicoleKidman5_1.png,0,52,52,19,,,None,None,1,2.05038523831,None,None,None,None,None,None,1,1.06658580923,Nicole Kidman,"['lshift', 'n', 'i', 'c', 'o', 'l', 'e', 'space', 'lshift', 'k', 'i', 's', 'backspace', 'd', 'm', 'a', 'n', 'return']","[0.9500474911783385, 1.0498652572096034, 1.2498074530194572, 1.449724628146214, 1.7827701167079795, 1.9496291966970603, 2.082776436034692, 2.249468390698894, 2.466168348772044, 2.632646023748748, 2.79944704292393, 3.1991258158577693, 3.7985915280605695, 3.932153533320161, 4.348531366151292, 4.4652708119938325, 4.59840810721289, 5.498113665109486]",2017_Feb_23_1717,59.9066259274,famFaceFilter,001,23,
56,./img/smoo15_MariskaHargitay(Liv)6_5.png,0,53,53,55,,,None,None,2,6.31434701954,None,None,None,None,None,None,1,7.83112932132,,['return'],[0.3669048870851839],2017_Feb_23_1717,59.9066259274,famFaceFilter,001,23,
10,./img/smoo15_KatjaBurkard5_3.png,0,54,54,9,,,None,None,2,4.59855823131,None,None,None,None,None,None,3,1.43311474453,,['return'],[0.13370795923947298],2017_Feb_23_1717,59.9066259274,famFaceFilter,001,23,
50,./img/smoo15_OmarEpps(DrEricForeman)2_2.png,0,55,55,49,,,None,None,1,4.69820887201,None,None,None,None,None,None,1,0.783355857295,,['return'],[0.3001702368728729],2017_Feb_23_1717,59.9066259274,famFaceFilter,001,23,
23,./img/smoo15_JoachimLoew4_1.png,0,56,56,22,,,None,None,1,1.26649239868,None,None,None,None,None,None,5,2.79911407538,Joachim Löw,"['lshift', 'j', 'o', 'a', 'c', 'h', 'i', 'm', 'space', 'lshift', 'l', u'\xf6', 'w', 'return']","[0.8834533417211787, 1.000142425422382, 1.199962404822145, 1.3331644971931382, 1.6164682280650595, 1.8330610462944605, 2.099637488809094, 2.3328700230104005, 2.516175710628886, 2.6493717082175863, 2.8159908462803287, 3.099330825063589, 3.449163266688629, 3.8322793103670847]",2017_Feb_23_1717,59.9066259274,famFaceFilter,001,23,
48,./img/smoo15_JoshRadnor(Ted)6_2.png,0,57,57,47,,,None,None,1,17.6598749415,None,None,None,None,None,None,1,1.13326688952,Ted Mosby,"['lshift', 't', 'e', 'd', 'space', 'lshift', 'm', 'o', 's', 'b', 'y', 'return']","[2.016252536952379, 2.1326930177219765, 2.332880608682899, 2.582520615598696, 2.766148364304172, 2.9992426431981585, 3.1659057278429827, 3.382182900544649, 3.5490631518805458, 4.115436124924599, 4.715284846031864, 4.915177642031267]",2017_Feb_23_1717,59.9066259274,famFaceFilter,001,23,
55,./img/smoo15_MariskaHargitay(Liv)4_4.png,0,58,58,54,,,None,None,2,3.68233389074,None,None,None,None,None,None,3,1.36643238113,,['return'],[0.20035792406633846],2017_Feb_23_1717,59.9066259274,famFaceFilter,001,23,
18,./img/smoo15_HughLaurie(DrHouse)4_1.png,0,59,59,17,,,None,None,2,7.13086490403,None,None,None,None,None,None,1,1.18310391827,,['return'],[0.15035633621482702],2017_Feb_23_1717,59.9066259274,famFaceFilter,001,23,
70,./img/smoo15_JasonSegel(Marshall)7_1.png,0,60,60,69,,,None,None,1,1.78281791263,None,None,None,None,None,None,1,0.883380204343,Marshall,"['lshift', 'm', 'a', 'r', 's', 'h', 'a', 'l', 'l', 'return']","[1.2997509800570697, 1.4995911684691237, 1.5997640357199998, 1.8662881914242462, 2.099506932172517, 2.5157910978341533, 2.6326906118865736, 2.865904220187076, 3.0157627089829475, 3.265715795203505]",2017_Feb_23_1717,59.9066259274,famFaceFilter,001,23,
36,./img/smoo15_BastianSchweinsteiger6_2.png,0,61,61,35,,,None,None,1,2.01627242519,None,None,None,None,None,None,5,1.76609992683,,['return'],[0.18384170761601126],2017_Feb_23_1717,59.9066259274,famFaceFilter,001,23,
62,./img/smoo15_RobertSeanLeonard(Wilson)1_1.png,0,62,62,61,,,None,None,2,7.14763678053,None,None,None,None,None,None,1,1.08314244371,,['return'],[0.6836455518841831],2017_Feb_23_1717,59.9066259274,famFaceFilter,001,23,
46,./img/smoo15_NeilPatrickHarris(Barney)1_1.png,0,63,63,45,,,None,None,1,2.18277929096,None,None,None,None,None,None,1,0.800174246597,Barney,"['lshift', 'b', 'a', 'r', 'n', 'e', 'y', 'return']","[1.2164109371169616, 1.683038960729391, 1.7831078959170554, 1.9829400648795854, 2.399349654730031, 2.532748063222243, 2.9991666188161616, 3.2990702891893307]",2017_Feb_23_1717,59.9066259274,famFaceFilter,001,23,
59,./img/smoo15_JoshRadnor(Ted)1_2.png,0,64,64,58,,,None,None,1,4.51458753887,None,None,None,None,None,None,1,1.19993289325,Ted Mosby,"['lshift', 't', 'e', 'd', 'space', 'lshift', 'm', 'o', 's', 'b', 'y', 'return']","[1.4497563851655286, 1.9830180139288132, 2.2662075478419865, 2.799140379178425, 3.3823952555649157, 3.6321934060233616, 3.7489921957931074, 3.932201650017305, 4.082098632170528, 4.648543780258478, 4.781740419404741, 5.514783213431656]",2017_Feb_23_1717,59.9066259274,famFaceFilter,001,23,
12,./img/smoo15_MariskaHargitay(Liv)8_8.png,0,65,65,11,,,None,None,2,3.79887124646,None,None,None,None,None,None,1,0.683523014697,,['return'],[0.4336308762922272],2017_Feb_23_1717,59.9066259274,famFaceFilter,001,23,
19,./img/smoo15_NicoleKidman7_1.png,0,66,66,18,,,None,None,1,1.15032137142,None,None,None,None,None,None,1,0.783379594865,Nicole Kidman,"['lshift', 'n', 'i', 'c', 'o', 'l', 'e', 'space', 'lshift', 'k', 'i', 's', 'backspace', 'd', 'm', 'a', 'n', 'n', 'backspace', 'return']","[0.9167391892206069, 1.049978171058683, 1.3665507481982786, 1.6331984034241032, 1.9828290757013747, 2.1662364499370597, 2.2993525738111202, 2.516085572016891, 2.7159110046413844, 2.8660973285295768, 3.0324851856712485, 3.265743061332614, 3.8822642177619855, 4.082110821733295, 4.448546731417082, 4.5485335474422754, 4.714908252686655, 4.865106445360652, 5.381528834250275, 5.781466475013076]",2017_Feb_23_1717,59.9066259274,famFaceFilter,001,23,
29,./img/smoo15_GuentherJauch3_1.png,0,67,67,28,,,None,None,1,2.16614342432,None,None,None,None,None,None,3,2.0495056651,Günther Jauch,"['lshift', 'g', u'\xfc', 'n', 't', 'h', 'e', 'r', 'space', 'lshift', 'j', 'a', 'u', 'c', 'h', 'return']","[0.7167270638146874, 1.249931594096779, 1.7330209811261739, 2.0663311115185934, 2.2995581924933504, 2.4827493623743067, 2.615885374481877, 2.7159620083402842, 2.8492702782205015, 3.1156998044225475, 3.232386963454701, 3.382240961360367, 3.482262421406631, 3.7655283004769444, 3.91549136289359, 4.365199310585012]",2017_Feb_23_1717,59.9066259274,famFaceFilter,001,23,
34,./img/smoo15_EmilyDeschanel5_1.png,0,68,68,33,,,None,None,1,5.24835721579,None,None,None,None,None,None,1,0.633425835009,Nicole Kidman,"['lshift', 'n', 'i', 'c', 'o', 'l', 'e', 'space', 'lshift', 'k', 'i', 's', 'backspace', 'd', 'm', 'a', 'n', 'return']","[0.9999948675522319, 1.316618127611946, 1.6664383796742186, 1.9663600136136665, 2.2495511514171085, 2.399410602545686, 2.532549501655012, 2.7323297045859363, 3.4489926128044317, 3.682264923472758, 3.898878913050794, 4.11538351733725, 4.665162324883568, 4.781844672246734, 5.1483068857232865, 5.248197468356011, 5.4149538993933675, 5.831443362958453]",2017_Feb_23_1717,59.9066259274,famFaceFilter,001,23,
67,./img/smoo15_GeorgeClooney4_2.png,0,69,69,66,,,None,None,1,4.08181987611,None,None,None,None,None,None,1,2.21615591863,George Clouney,"['lshift', 'g', 'e', 'o', 'r', 'g', 'e', 'space', 'lshift', 'c', 'l', 'o', 'u', 'n', 'e', 'y', 'return']","[1.0499278089173458, 1.5165298495139723, 1.8162019181891083, 2.2162906453777396, 2.449438173413, 2.915907091150075, 3.0159311174211325, 3.2325159162010095, 3.482196341143208, 3.832204569098394, 4.215374503475687, 4.865097463576603, 6.097868077491512, 6.314457687942195, 6.581024186340073, 7.164199830565849, 8.263761936550509]",2017_Feb_23_1717,59.9066259274,famFaceFilter,001,23,
37,./img/smoo15_Ice-T(OdafinFinTutuola)5_1.png,0,70,70,36,,,None,None,1,4.08210055684,None,None,None,None,None,None,1,0.733350740884,,['return'],[0.5670453236834874],2017_Feb_23_1717,59.9066259274,famFaceFilter,001,23,
16,./img/smoo15_WillSmith4_1.png,0,71,71,15,,,None,None,2,6.91397985707,None,None,None,None,None,None,1,1.28315649378,,['return'],[0.25004771572457685],2017_Feb_23_1717,59.9066259274,famFaceFilter,001,23,
61,./img/edges5_NeilPatrickHarris(Barney)2_2.png,0,0,0,60,,,None,None,1,5.19816251959,None,None,None,None,None,None,1,1.0832008253,Barney,"['lshift', 'b', 'a', 'r', 'n', 'e', 'y', 'return']","[1.3998924110674125, 1.5663575757007493, 1.7330168110111117, 1.9164508098201622, 2.366192118421168, 2.482469964756092, 2.9656905499778077, 3.31586718636936]",2017_Feb_23_1717,59.9066259274,famFaceFilter,001,23,
55,./img/edges5_JoachimLoew1_1.png,0,1,1,54,,,None,None,1,1.83290675209,None,None,None,None,None,None,5,2.06597825574,Joachim Löw,"['lshift', 'j', 'o', 'a', 'c', 'h', 'i', 'm', 'space', 'lshift', 'l', u'\xf6', 'w', 'return']","[1.882887168592788, 2.249466466031663, 2.499291882617399, 2.6326463445275294, 2.8992292026014184, 3.1324315836718597, 3.415705161414735, 3.6653406774385076, 3.8321609432932746, 3.9654640807257238, 4.132158922391682, 4.348657431897664, 4.76501794271644, 5.18162481102263]",2017_Feb_23_1717,59.9066259274,famFaceFilter,001,23,
3,./img/edges5_NicoleKidman5_1.png,0,2,2,2,,,None,None,1,3.93219940457,None,None,None,None,None,None,1,1.06661660392,Nicole Kidman,"['lshift', 'n', 'i', 'c', 'o', 'l', 'e', 'space', 'lshift', 'k', 'i', 'd', 'm', 'a', 'n', 'n', 'backspace', 'return']","[1.1999091556772328, 1.4846143655286141, 1.7997020614147914, 2.33275518449409, 2.549370136403013, 2.6992706471137353, 2.832642431034401, 3.032391518501754, 3.265672810954129, 3.3987748205963726, 3.5489358030245057, 3.7989081359228294, 4.181996913473995, 4.315323146920491, 4.46517393704562, 4.631842154138212, 5.414585967053426, 5.614845091502502]",2017_Feb_23_1717,59.9066259274,famFaceFilter,001,23,
2,./img/edges5_OmarEpps(DrEricForeman)1_5.png,0,3,3,1,,,None,None,2,6.29765533754,None,None,None,None,None,None,2,3.64894154495,,['return'],[0.9666929811537557],2017_Feb_23_1717,59.9066259274,famFaceFilter,001,23,
58,./img/edges5_HughLaurie(DrHouse)5_3.png,0,4,4,57,,,None,None,1,2.24939204554,None,None,None,None,None,None,1,1.08329802103,Dr House,"['lshift', 'd', 'r', 'space', 'lshift', 'h', 'o', 'u', 's', 'e', 'return']","[2.0495072689900553, 2.816008168290864, 3.0656969334595487, 3.3323609483613836, 3.598952146661759, 3.965438418486883, 4.248694994998004, 4.448391474876189, 4.615361864824081, 4.781836973575992, 5.081442961987705]",2017_Feb_23_1717,59.9066259274,famFaceFilter,001,23,
21,./img/edges5_JoshRadnor(Ted)3_1.png,0,5,5,20,,,None,None,1,2.04961601272,None,None,None,None,None,None,1,1.0329843162,Ted Mosby,"['lshift', 't', 'e', 'd', 'space', 'lshift', 'm', 'o', 's', 'b', 'y', 'return']","[1.533312311683403, 1.7498441820971493, 1.9664183952063468, 2.3661164148179523, 2.6328080166258587, 2.9826103051200334, 3.099171077630672, 3.2989801505791547, 3.4492040054901736, 3.848949179466217, 4.015422684327859, 4.39880721917325]",2017_Feb_23_1717,59.9066259274,famFaceFilter,001,23,
23,./img/edges5_UrsulavonderLeyen1_1.png,0,6,6,22,,,None,None,1,2.93251023843,None,None,None,None,None,None,4,2.56608298975, Ursula von der Leien,"['space', 'lshift', 'u', 'r', 's', 'u', 'l', 'a', 'space', 'v', 'o', 'n', 'space', 'd', 'e', 'r', 'space', 'lshift', 'lshift', 'l', 'e', 'i', 'e', 'n', 'return']","[0.25035277557981317, 1.0666008857951965, 1.383096155443127, 1.666388659086806, 1.9663317851518514, 2.1828575607851235, 2.449483082329607, 2.6326604587575275, 2.7993100707280973, 3.11576748857442, 3.398993911954676, 3.6489530929575267, 3.782092954399559, 3.9321721384440025, 4.098742518253857, 4.198652347566167, 4.398699116994976, 4.964971044975755, 5.1984091978592915, 5.398165342441644, 5.781264384886526, 5.93133619103719, 6.081331331250112, 6.181254312457895, 10.562544487895138]",2017_Feb_23_1717,59.9066259274,famFaceFilter,001,23,
45,./img/edges5_WillSmith4_1.png,0,7,7,44,,,None,None,1,5.64811778711,None,None,None,None,None,None,2,1.1164414431,Usher,"['lshift', 'u', 's', 'h', 'e', 'r', 'return']","[0.9166939595270378, 1.1672424096723262, 1.7003558390097169, 1.9335312747298303, 2.016845013875354, 2.1501956264492037, 2.500050522532547]",2017_Feb_23_1717,59.9066259274,famFaceFilter,001,23,
57,./img/edges5_BritneySpears5_1.png,0,8,8,56,,,None,None,1,2.5493964402,None,None,None,None,None,None,2,0.733432218491,Britney Spears,"['lshift', 'b', 'r', 'i', 't', 'n', 'e', 'y', 'space', 'lshift', 's', 'p', 'e', 'a', 'r', 's', 'return']","[0.6500703626479662, 0.7832641147924733, 1.0999804004659381, 1.3165344045610254, 1.5664512428702437, 1.9163439907533757, 2.066279787040912, 2.549153611269503, 2.682681934842549, 2.999067819200718, 3.2491662178435945, 3.4490144257051725, 3.615750968509019, 3.8488564746294287, 3.998789063138247, 4.182049841840126, 4.831867752222024]",2017_Feb_23_1717,59.9066259274,famFaceFilter,001,23,
67,./img/edges5_LeonardoDiCaprio2_1.png,0,9,9,66,,,None,None,1,1.88301130967,None,None,None,None,None,None,1,0.749962549173,Leonardo di Caprio,"['lshift', 'l', 'e', 'o', 'n', 'a', 'r', 'd', 'o', 'space', 'd', 'i', 'space', 'lshift', 'c', 'a', 'p', 'r', 'i', 'o', 'return']","[0.7668146201613126, 1.0340438458588324, 1.2665847827411199, 1.4830226652084093, 1.716439967523911, 1.849681836363743, 2.0329002723719896, 2.299374386711861, 2.6825334146396926, 2.932695968878761, 3.1825749553881906, 3.432469660016068, 3.7156482874779613, 4.398639131512027, 4.598627519349975, 4.731847254508466, 5.214958133661639, 5.414956786395123, 5.731531608980731, 5.898067665548297, 7.880627608526993]",2017_Feb_23_1717,59.9066259274,famFaceFilter,001,23,
38,./img/edges5_GeorgeClooney11_1.png,0,10,10,37,,,None,None,1,2.36581295885,None,None,None,None,None,None,1,0.666718418848,George Clouney,"['lshift', 'h', 'backspace', 'lshift', 'g', 'e', 'o', 'r', 'g', 'e', 'space', 'lshift', 'c', 'l', 'o', 'u', 'n', 'e', 'y', 'return']","[0.9500057900422689, 1.2000579966588703, 2.765864796574533, 3.132541931294327, 3.2323715661113965, 3.498991955209931, 4.3653026010924805, 4.648616276082976, 5.381411108734028, 5.498250637305318, 5.698119695734931, 5.947916242304927, 6.131347674889184, 6.497869232291123, 6.831129000542205, 7.064298020703063, 7.9806355958971835, 8.580338042247604, 9.063455657736995, 9.446679482816762]",2017_Feb_23_1717,59.9066259274,famFaceFilter,001,23,
25,./img/edges5_JoachimLoew8_1.png,0,11,11,24,,,None,None,1,1.66644832379,None,None,None,None,None,None,5,1.29982764599,Joachim Löw,"['lshift', 'j', 'o', 'a', 'c', 'h', 'i', 'm', 'space', 'lshift', 'l', u'\xf6', 'w', 'return']","[2.066278503931244, 2.216044608669108, 2.482732681919515, 2.682745128104216, 2.982557697532684, 3.149214687397034, 3.3658248276387894, 3.615641903998039, 3.7655722470590263, 3.9654810819592967, 4.115367799216983, 4.2820960017925245, 4.581962141142867, 5.065191066591069]",2017_Feb_23_1717,59.9066259274,famFaceFilter,001,23,
36,./img/edges5_AngelaMerkel1_1.png,0,12,12,35,,,None,None,1,2.36606059945,None,None,None,None,None,None,4,1.96620122852,Angela Merkel,"['lshift', 'a', 'n', 'g', 'e', 'l', 'a', 'space', 'lshift', 'm', 'e', 'r', 'k', 'e', 'l', 'return']","[0.7167030054661154, 0.9000532812224264, 1.149934192399087, 1.3997913660041377, 1.5162142039862374, 1.732841666236709, 1.8329465285569313, 2.016128075098095, 2.265921413887554, 2.4162398983007733, 2.6659068505668984, 2.815904877783396, 3.0323770834947936, 3.1324643030256993, 3.248979204285206, 3.9487906830690918]",2017_Feb_23_1717,59.9066259274,famFaceFilter,001,23,
5,./img/edges5_AlysonHannigan(Lily)1_1.png,0,13,13,4,,,None,None,1,3.23246170472,None,None,None,None,None,None,1,0.899992654184,Lilly,"['lshift', 'l', 'i', 'l', 'l', 'y', 'return']","[0.999840573345864, 1.0999358123262937, 1.29984560955927, 1.6330011249683594, 1.7663254337476246, 1.9495890994512592, 2.249447219352078]",2017_Feb_23_1717,59.9066259274,famFaceFilter,001,23,
47,./img/edges5_UrsulavonderLeyen5_1.png,0,14,14,46,,,None,None,1,5.36504597871,None,None,None,None,None,None,4,3.06596189607,Ursula von der Leien,"['lshift', 'u', 'r', 's', 'u', 'l', 'a', 'space', 'v', 'o', 'n', 'space', 'd', 'e', 'r', 'space', 'lshift', 'l', 'e', 'i', 'e', 'n', 'return']","[1.0665976780164783, 1.299816418764749, 1.6830489048479649, 3.6823156063928764, 3.9321621943272476, 4.248530756673063, 4.548560172013822, 4.798416383286167, 4.965071448483286, 5.114966505967459, 5.348208663506739, 5.514754343414097, 5.598075781230364, 5.797668649822299, 5.948068291065283, 6.131238289599423, 6.597464699185366, 6.8641864541241375, 7.14755049125597, 7.347328448739063, 7.480625491391038, 7.613861265450396, 8.330337801662608]",2017_Feb_23_1717,59.9066259274,famFaceFilter,001,23,
29,./img/edges5_TomCruise4_1.png,0,15,15,28,,,None,None,1,3.51542797717,None,None,None,None,None,None,1,0.866742413038,Tom Cruise,"['lshift', 't', 'o', 'm', 'space', 'lshift', 'c', 'r', 'u', 'i', 's', 'e', 'return']","[1.3831670473773556, 1.4499966478706483, 1.7829173537993483, 2.0495553856853803, 2.232862356415353, 2.399497854155925, 2.8992715452932316, 3.1824293221870903, 3.565689715955159, 3.7655895690695615, 3.848638345607469, 4.048770441977467, 4.265367109543149]",2017_Feb_23_1717,59.9066259274,famFaceFilter,001,23,
42,./img/edges5_JoachimLoew4_1.png,0,16,16,41,,,None,None,1,2.39935478718,None,None,None,None,None,None,5,2.96591509456,Joachim Löw,"['lshift', 'j', 'o', 'a', 'c', 'h', 'i', 'm', 'space', 'lshift', 'l', u'\xf6', 'w', 'return']","[0.5665834033970896, 0.7500677643474774, 0.9664716443494399, 1.1332155650452478, 1.6330755454582686, 1.7830260975333658, 1.999633029994584, 2.2494000649894588, 2.432766700423599, 2.5824936702483683, 2.782633144512147, 3.3823859530039044, 3.698959492478025, 4.448743689094044]",2017_Feb_23_1717,59.9066259274,famFaceFilter,001,23,
46,./img/edges5_TomCruise5_1.png,0,17,17,45,,,None,None,1,5.36482945358,None,None,None,None,None,None,1,0.483597178565,Tom Cruise,"['lshift', 't', 'o', 'm', 'space', 'lshift', 'c', 'r', 'u', 'i', 's', 'e', 'return']","[0.7167039677988214, 1.0167587245996401, 1.3833360973712843, 1.616610011929879, 1.799655548609735, 1.9829885023555107, 2.38288380042286, 2.6824028580031154, 3.082576912132936, 3.249173595739194, 3.3991806047379214, 3.582419249758459, 3.8823915666198445]",2017_Feb_23_1717,59.9066259274,famFaceFilter,001,23,
6,./img/edges5_GuentherJauch3_1.png,0,18,18,5,,,None,None,1,1.79974793267,None,None,None,None,None,None,3,1.31620689025,Günther Jauch,"['lshift', 'g', u'\xfc', 'n', 't', 'h', 'e', 'r', 'space', 'lshift', 'j', 'a', 'u', 'c', 'h', 'return']","[1.7662163692366448, 2.3995116476089606, 2.8326883022855327, 3.1655554382941773, 3.415558886657891, 3.5816439293903386, 3.6654962547563628, 3.798860660783248, 3.982126571932895, 4.231994972768007, 4.365409420159267, 4.498578472397639, 4.615271405435124, 4.831784029171104, 5.031842025828155, 6.281278338728953]",2017_Feb_23_1717,59.9066259274,famFaceFilter,001,23,
44,./img/edges5_EmilyDeschanel5_1.png,0,19,19,43,,,None,None,2,6.89754608056,None,None,None,None,None,None,1,1.28306507206,,['return'],[1.050002229405436],2017_Feb_23_1717,59.9066259274,famFaceFilter,001,23,
28,./img/edges5_Ice-T(OdafinFinTutuola)5_1.png,0,20,20,27,,,None,None,1,2.68262002469,None,None,None,None,None,None,1,1.31627072506,,['return'],[0.333595302014146],2017_Feb_23_1717,59.9066259274,famFaceFilter,001,23,
52,./img/edges5_BarackObama4_1.png,0,21,21,51,,,None,None,1,3.64873047304,None,None,None,None,None,None,4,2.33269936913,Barack Obama,"['lshift', 'b', 'a', 'r', 'a', 'c', 'k', 'space', 'lshift', 'o', 'b', 'a', 'm', 'a', 'return']","[0.7333882719085523, 0.8501338125333859, 0.9833397542388411, 1.1666332522945595, 1.2831584184496023, 1.5664480350915255, 1.8497212920556194, 2.049502778098031, 2.232588412023688, 2.3659711023956334, 2.61597872087259, 2.732637330665966, 2.91579706430457, 3.015766237540447, 4.381804703310991]",2017_Feb_23_1717,59.9066259274,famFaceFilter,001,23,
70,./img/edges5_BastianSchweinsteiger1_1.png,0,22,22,69,,,None,None,1,2.39934067295,None,None,None,None,None,None,5,1.69977170231,,['return'],[0.43358372192778916],2017_Feb_23_1717,59.9066259274,famFaceFilter,001,23,
64,./img/edges5_EmilyDeschanel3_1.png,0,23,23,63,,,None,None,1,8.86359141098,None,None,None,None,None,None,1,3.19903920581,Nicole Kidman,"['lshift', 'n', 'i', 'c', 'o', 'l', 'e', 'space', 'lshift', 'k', 'i', 'd', 'm', 'a', 'n', 'return']","[2.18290439437078, 2.6492074698926444, 2.9822693181322393, 3.249133819270355, 3.5156640697550756, 3.7155334489634697, 3.815491715748067, 4.015418514214616, 4.29854260942011, 4.581868794750335, 4.764958278012273, 5.131790348495997, 5.4316272970518185, 5.564748553371828, 6.064647668697944, 6.397939514747122]",2017_Feb_23_1717,59.9066259274,famFaceFilter,001,23,
18,./img/edges5_JoshRadnor(Ted)6_2.png,0,24,24,17,,,None,None,1,5.73145879238,None,None,None,None,None,None,1,0.433299833419,Ted Mosby,"['lshift', 't', 'e', 'd', 'space', 'lshift', 'm', 'o', 's', 'b', 'y', 'return']","[1.8663366289001715, 1.999331498698666, 2.1494626487728965, 3.0492044545808312, 3.2324238529236027, 3.4823490314593073, 3.5655209867400117, 3.765568076945783, 3.898829834020944, 4.365298430979237, 4.498649364331868, 4.831747460480983]",2017_Feb_23_1717,59.9066259274,famFaceFilter,001,23,
14,./img/edges5_AngelaMerkel4_1.png,0,25,25,13,,,None,None,1,5.96442283541,None,None,None,None,None,None,4,2.68254367954,Angela Merkel,"['lshift', 'a', 'n', 'g', 'e', 'l', 'a', 'space', 'lshift', 'm', 'e', 'r', 'k', 'e', 'l', 'return']","[0.61681755527934, 0.8000157822752954, 1.0332720540463924, 1.2663015357884433, 1.3832007290639012, 1.583107960072084, 1.6997861373220076, 1.883028631678826, 2.1496573610038467, 2.399546933185775, 2.6494031444581196, 2.7992680488132464, 3.0158538099276484, 3.1159253113382874, 3.232335959755801, 3.548964352263283]",2017_Feb_23_1717,59.9066259274,famFaceFilter,001,23,
59,./img/edges5_BastianSchweinsteiger3_1.png,0,26,26,58,,,None,None,1,2.81583334429,None,None,None,None,None,None,5,1.58303097336,,['return'],[0.31690811090447824],2017_Feb_23_1717,59.9066259274,famFaceFilter,001,23,
8,./img/edges5_LeonardoDiCaprio3_1.png,0,27,27,7,,,None,None,1,2.19940072259,None,None,None,None,None,None,1,1.11673880429,Leonardo Di Caprio,"['lshift', 'l', 'e', 'o', 'n', 'a', 'r', 'd', 'o', 'space', 'lshift', 'd', 'i', 'space', 'lshift', 'c', 'a', 'p', 'r', 'i', 'o', 'return']","[1.233124752799995, 1.4497525358310668, 1.7496751321050397, 1.966258326996467, 2.1827735169554217, 2.2829107778525213, 2.4493332790152635, 2.682599815681897, 2.982551923529172, 3.2157735512791987, 3.382371517995125, 3.5323111636189424, 3.948821798532663, 4.36536803980016, 4.498546394599543, 4.648498229787947, 4.781699680601378, 5.548265056275341, 5.881384965328834, 6.181274842248968, 6.331388991093263, 6.681103707200236]",2017_Feb_23_1717,59.9066259274,famFaceFilter,001,23,
43,./img/edges5_BarackObama1_3.png,0,28,28,42,,,None,None,1,2.84922472775,None,None,None,None,None,None,4,2.28273948241,,['return'],[0.13338365270647046],2017_Feb_23_1717,59.9066259274,famFaceFilter,001,23,
63,./img/edges5_LisaEdelstein(DrLisaCuddy)2_2.png,0,29,29,62,,,None,None,2,13.4951519221,None,None,None,None,None,None,1,1.99963655855,,['return'],[0.9832653337489319],2017_Feb_23_1717,59.9066259274,famFaceFilter,001,23,
34,./img/edges5_KatjaBurkard1_1.png,0,30,30,33,,,None,None,1,12.3952709628,None,None,None,None,None,None,3,3.99814526174,Heidi Klum,"['lshift', 'h', 'e', 'i', 'd', 'i', 'space', 'lshift', 'k', 'l', 'u', 'm', 'return']","[1.2162466987938387, 1.499741934117992, 1.7662901481708104, 1.9825179210638453, 2.1993744187911943, 2.4825607449238305, 2.732622254099624, 2.9158445394441515, 3.049237173932852, 3.232132265740802, 3.4822768564135913, 3.798648305762981, 4.7979990511394135]",2017_Feb_23_1717,59.9066259274,famFaceFilter,001,23,
50,./img/edges5_WillSmith5_1.png,0,31,31,49,,,None,None,1,1.89960900373,None,None,None,None,None,None,2,1.19944370683,Usher,"['lshift', 'm', 'backspace', 'lshift', 'u', 's', 'h', 'e', 'r', 'return']","[1.1998209417324688, 1.283160022338052, 2.349547911559057, 2.582681966920063, 2.7325433427176904, 3.0493090281997866, 3.2321662682061287, 3.34907700948861, 3.4988511336778174, 3.7989001164733054]",2017_Feb_23_1717,59.9066259274,famFaceFilter,001,23,
33,./img/edges5_BarackObama2_1.png,0,32,32,32,,,None,None,1,1.89953233779,None,None,None,None,None,None,4,2.29948633823,Barack Obama,"['lshift', 'b', 'a', 'r', 'a', 'c', 'k', 'space', 'lshift', 'o', 'b', 'a', 'm', 'a', 'return']","[0.9500009783732821, 1.1832306255710137, 1.3499713384881034, 1.6496498227224947, 1.7663918347898289, 2.0827950411567144, 2.3657266695772705, 2.5493765519640874, 2.6993120274746616, 2.8323431451826764, 3.1324171486630803, 3.2823648137346026, 3.465582287410143, 3.582044260303519, 4.3317944544542115]",2017_Feb_23_1717,59.9066259274,famFaceFilter,001,23,
71,./img/edges5_HughLaurie(DrHouse)4_1.png,0,33,33,70,,,None,None,1,1.93291890957,None,None,None,None,None,None,1,4.53195991173,Dr House,"['lshift', 'd', 'r', 'space', 'lshift', 'h', 'o', 'u', 's', 'e', 'return']","[0.6835149952476058, 0.9167805695797142, 1.1497705956298887, 1.4165157673596696, 1.6498021922598127, 1.766348850538634, 2.049585218037464, 2.2661664882598416, 2.416140136348986, 2.6161776032167836, 2.8493402078183863]",2017_Feb_23_1717,59.9066259274,famFaceFilter,001,23,
72,./img/edges5_EmilyDeschanel6_12.png,0,34,34,71,,,None,None,1,4.71512381549,None,None,None,None,None,None,1,1.19961339838,,['return'],[0.2504541414200503],2017_Feb_23_1717,59.9066259274,famFaceFilter,001,23,
20,./img/edges5_JoshRadnor(Ted)1_2.png,0,35,35,19,,,None,None,1,1.3165789927,None,None,None,None,None,None,1,1.13322294294,Ted Mosby,"['lshift', 't', 'e', 'd', 'space', 'lshift', 'm', 'o', 's', 'b', 'y', 'return']","[0.916607991028286, 1.0167067585680343, 1.2165876857834519, 1.7164604973149835, 2.782584386261078, 2.982607738897059, 3.132495097710489, 3.349043648580846, 3.4657561490730586, 3.848805470932348, 4.0150970946815505, 4.365059772164386]",2017_Feb_23_1717,59.9066259274,famFaceFilter,001,23,
66,./img/edges5_BritneySpears1_1.png,0,36,36,65,,,None,None,1,4.83183150431,None,None,None,None,None,None,2,1.2666290501,Britney Spears,"['lshift', 'b', 'r', 'i', 't', 'n', 'e', 'y', 'space', 'lshift', 's', 'p', 'e', 'a', 'r', 's', 'return']","[0.8667279780293029, 1.2165078120651742, 1.566389332720064, 1.7662093121198268, 2.032861779014638, 2.349475736513341, 2.499307921514628, 2.9492205255555746, 3.082441864604334, 3.382394614009172, 3.4821896048033523, 3.8487672983519587, 4.182128111666316, 4.2986972244034405, 4.41525093979908, 4.615256328868782, 4.948321064110132]",2017_Feb_23_1717,59.9066259274,famFaceFilter,001,23,
37,./img/edges5_JasonSegel(Marshall)9_1.png,0,37,37,36,,,None,None,1,2.76607843471,None,None,None,None,None,None,1,0.98274054098,Marshall,"['lshift', 'm', 'a', 'r', 's', 'h', 'a', 'l', 'l', 'return']","[0.7173387874136097, 0.8006733771271684, 1.1165405634965282, 1.282965630884064, 1.5001695311602816, 1.783664766484435, 1.9003317165042972, 2.216859384727286, 2.3334111754556943, 3.2327924268156494]",2017_Feb_23_1717,59.9066259274,famFaceFilter,001,23,
1,./img/edges5_BastianSchweinsteiger6_2.png,0,38,38,0,,,None,None,1,2.13312382254,None,None,None,None,None,None,5,2.09940941567,,['return'],[0.11709711328694539],2017_Feb_23_1717,59.9066259274,famFaceFilter,001,23,
60,./img/edges5_TomCruise1_1.png,0,39,39,59,,,None,None,1,3.24899011074,None,None,None,None,None,None,1,0.566898407369,Tom Cruise,"['lshift', 't', 'o', 'm', 'space', 'lshift', 'c', 'r', 'u', 'i', 's', 'e', 'return']","[1.06664354926761, 1.216408370893987, 1.5497156142864696, 1.8164238965491677, 1.982892589741823, 2.166115516640275, 2.4493172401162155, 2.7656797076815565, 3.165515020269595, 3.3324411428566236, 3.4656506131195783, 3.6487914208573784, 4.165399540197541]",2017_Feb_23_1717,59.9066259274,famFaceFilter,001,23,
41,./img/edges5_OmarEpps(DrEricForeman)3_1.png,0,40,40,40,,,None,None,1,4.23203282457,None,None,None,None,None,None,2,4.43211840813,,['return'],[1.1500038012181903],2017_Feb_23_1717,59.9066259274,famFaceFilter,001,23,
49,./img/edges5_RobertSeanLeonard(Wilson)2_6.png,0,41,41,48,,,None,None,2,7.58066266956,None,None,None,None,None,None,1,1.78298760418,,['return'],[0.7001611267769476],2017_Feb_23_1717,59.9066259274,famFaceFilter,001,23,
17,./img/edges5_NeilPatrickHarris(Barney)3_7.png,0,42,42,16,,,None,None,1,1.14989858604,None,None,None,None,None,None,1,1.01640490649,Barney,"['lshift', 'b', 'r', 'a', 'n', 'e', 'y', 'backspace', 'backspace', 'backspace', 'backspace', 'backspace', 'a', 'r', 'n', 'e', 'y', 'return']","[1.2998122486515058, 1.6161971706751501, 2.016321504217558, 2.1662913029722404, 2.482641580974814, 2.6326755353220506, 3.1491752317069768, 4.9984166399081005, 5.181616470794324, 5.3147832775885036, 5.448103416254526, 5.598105613582447, 6.147974238961979, 6.28121418313458, 6.781080258329894, 6.931330417033678, 7.597548101459324, 7.8139747566983715]",2017_Feb_23_1717,59.9066259274,famFaceFilter,001,23,
35,./img/edges5_WillSmith1_1.png,0,43,43,34,,,None,None,1,2.83255774565,None,None,None,None,None,None,2,1.71611854799,Usher,"['lshift', 'u', 's', 'h', 'e', 'r', 'return']","[0.7000988958498056, 0.8000760885352065, 1.0333573809875816, 1.1998103560599702, 1.3164673619630776, 1.4164759908908309, 2.5826733059147955]",2017_Feb_23_1717,59.9066259274,famFaceFilter,001,23,
27,./img/edges5_OmarEpps(DrEricForeman)2_2.png,0,44,44,26,,,None,None,2,5.36485030415,None,None,None,None,None,None,1,2.21604813723,,['return'],[0.5002423477599223],2017_Feb_23_1717,59.9066259274,famFaceFilter,001,23,
51,./img/edges5_Ice-T(OdafinFinTutuola)6_1.png,0,45,45,50,,,None,None,2,4.76529188711,None,None,None,None,None,None,1,1.09978312201,,['return'],[0.6502503190931748],2017_Feb_23_1717,59.9066259274,famFaceFilter,001,23,
10,./img/edges5_GuentherJauch4_1.png,0,46,46,9,,,None,None,1,3.33236383536,None,None,None,None,None,None,3,4.13177398882,Günther Jauch,"['lshift', 'g', u'\xfc', 'n', 't', 'h', 'e', 'r', 'space', 'lshift', 'j', 'a', 'u', 'c', 'h', 'return']","[0.8667959829617757, 1.0498142535125226, 1.5166802943840594, 1.8496901765902294, 2.116214653073257, 2.316179303339595, 2.4492572546332667, 2.5493836090790865, 2.765677141456763, 3.0157373675228882, 3.182554425597118, 3.2990311542780546, 3.4323352540450287, 3.6487715326220496, 3.8322058522080624, 5.581624361931972]",2017_Feb_23_1717,59.9066259274,famFaceFilter,001,23,
16,./img/edges5_BritneySpears7_1.png,0,47,47,15,,,None,None,1,2.6159607573,None,None,None,None,None,None,2,1.94971163664,Britney Spears,"['lshift', 'b', 'r', 'i', 't', 'n', 'e', 'y', 'space', 'lshift', 's', 'p', 'e', 'a', 'r', 's', 'return']","[0.6499722045882663, 0.7834549776889617, 1.066668569948888, 1.3831785953843792, 1.633066884453001, 1.9995775354054786, 2.1995030507587217, 2.6657894458276132, 2.815883706434761, 2.999222113407086, 3.1658884058324475, 3.532467382492541, 3.698975531377073, 3.8988121912316274, 4.065475917432195, 4.182153773905156, 5.215100559084021]",2017_Feb_23_1717,59.9066259274,famFaceFilter,001,23,
56,./img/edges5_NeilPatrickHarris(Barney)1_1.png,0,48,48,55,,,None,None,1,2.83272134242,None,None,None,None,None,None,1,0.78301230408,Barney,"['lshift', 'b', 'a', 'r', 'n', 'e', 'y', 'return']","[0.6167957423767803, 0.7500600656749157, 1.382811625377144, 1.582924475069376, 2.0328502310076146, 2.216138596615565, 2.766008825885365, 3.0159830834527384]",2017_Feb_23_1717,59.9066259274,famFaceFilter,001,23,
68,./img/edges5_MariskaHargitay(Liv)4_4.png,0,49,49,67,,,None,None,1,6.79754835808,None,None,None,None,None,None,1,0.36682629648,,['return'],[0.8166195711146429],2017_Feb_23_1717,59.9066259274,famFaceFilter,001,23,
54,./img/edges5_KatjaBurkard5_3.png,0,50,50,53,,,None,None,1,3.29903596595,None,None,None,None,None,None,3,1.48306597024,,['return'],[0.4835599683210603],2017_Feb_23_1717,59.9066259274,famFaceFilter,001,23,
69,./img/edges5_GuentherJauch2_1.png,0,51,51,68,,,None,None,1,1.64971365754,None,None,None,None,None,None,3,2.41609458588,Günther Jauch,"['lshift', 'g', u'\xfc', 'n', 't', 'h', 'e', 'r', 'space', 'lshift', 'j', 'a', 'u', 'c', 'h', 'return']","[0.7501152394870587, 1.249834398369785, 1.7496408088609314, 2.0824842072979663, 2.3327285599225434, 2.532606600134386, 2.616003741553868, 2.7159530265562353, 2.8825538802739175, 3.1500079713332525, 3.2989650740146317, 3.4324609990108, 3.5656569966013194, 3.815484017077324, 3.9987823268020293, 4.415334342073038]",2017_Feb_23_1717,59.9066259274,famFaceFilter,001,23,
31,./img/edges5_GeorgeClooney4_2.png,0,52,52,30,,,None,None,1,5.1649260719,None,None,None,None,None,None,1,0.483503832173,george Clouney,"['lshift', 'h', 'backspace', 'g', 'e', 'o', 'r', 'g', 'e', 'space', 'lshift', 'c', 'l', 'o', 'u', 'n', 'e', 'y', 'return']","[0.7501380147241434, 1.0000664010403852, 1.9163888996699825, 2.2663220655795158, 2.416101001435891, 2.699394788191057, 2.882655887671717, 3.3158004645501933, 3.39894547448057, 3.582333922815451, 3.9152995376625768, 4.232014540224554, 4.598546041743248, 4.831758366932263, 5.065107985094073, 5.298306516828234, 5.54821212790921, 5.997842768108967, 6.397752821963877]",2017_Feb_23_1717,59.9066259274,famFaceFilter,001,23,
15,./img/edges5_LisaEdelstein(DrLisaCuddy)6_3.png,0,53,53,14,,,None,None,2,4.23206458159,None,None,None,None,None,None,1,3.33209213642,,['return'],[0.5668339309959265],2017_Feb_23_1717,59.9066259274,famFaceFilter,001,23,
7,./img/edges5_AngelaMerkel3_1.png,0,54,54,6,,,None,None,1,1.6996379379,None,None,None,None,None,None,4,1.83301453349, Angela Merkel,"['space', 'lshift', 'a', 'n', 'g', 'e', 'l', 'a', 'space', 'lshift', 'm', 'e', 'r', 'k', 'e', 'l', 'return']","[0.2668503869062988, 0.4669712560480548, 0.7002708328454901, 0.966684320148488, 1.2339812299978803, 1.3498574623063178, 1.5497361440757231, 1.699839707245701, 1.849640776783417, 2.1495630522804277, 2.2827638615381147, 2.516064400670075, 2.6493245538549672, 2.865839102258178, 2.9325609213519783, 3.082248114707909, 3.7821978487991146]",2017_Feb_23_1717,59.9066259274,famFaceFilter,001,23,
48,./img/edges5_GeorgeClooney3_1.png,0,55,55,47,,,None,None,1,2.28282577169,None,None,None,None,None,None,1,0.700135785317,George Clouney,"['lshift', 'g', 'e', 'o', 'r', 'g', 'e', 'space', 'lshift', 'c', 'l', 'o', 'u', 'n', 'e', 'y', 'return']","[3.2323657921078848, 3.398725100010779, 3.73214108713546, 4.215271533745181, 4.365237803942364, 4.598467451140095, 4.698399093353146, 4.915080125527311, 5.148206802996356, 5.298275401366482, 5.664650363232795, 5.89775169924178, 6.197840137729145, 6.481051484544878, 6.647605825457504, 7.147430520291891, 7.480674891201488]",2017_Feb_23_1717,59.9066259274,famFaceFilter,001,23,
13,./img/edges5_MariskaHargitay(Liv)6_5.png,0,56,56,12,,,None,None,1,6.36423184421,None,None,None,None,None,None,3,1.44975702672,,['return'],[0.4001050868664606],2017_Feb_23_1717,59.9066259274,famFaceFilter,001,23,
26,./img/edges5_NicoleKidman7_1.png,0,57,57,25,,,None,None,1,8.91309418907,None,None,None,None,None,None,1,1.59970533335,Nicole Kidman,"['lshift', 'n', 'i', 'c', 'o', 'l', 'e', 'space', 'lshift', 'k', 'i', 'd', 'm', 'a', 'n', 'return']","[0.799929172222619, 0.9167478502258746, 1.1499938571014354, 1.4665471875632647, 1.749522121010159, 1.9162785520456964, 2.0328277765493112, 2.2328966796594614, 2.4493384114630317, 2.5660409678384895, 2.7325234544841805, 2.982433556455362, 3.299018323157725, 3.432296439908896, 3.581924930895184, 3.948552345031203]",2017_Feb_23_1717,59.9066259274,famFaceFilter,001,23,
11,./img/edges5_RobertSeanLeonard(Wilson)1_1.png,0,58,58,10,,,None,None,1,5.51490125973,None,None,None,None,None,None,1,0.616832952623,,['return'],[0.5001948726203409],2017_Feb_23_1717,59.9066259274,famFaceFilter,001,23,
65,./img/edges5_LisaEdelstein(DrLisaCuddy)1_1.png,0,59,59,64,,,None,None,1,4.73180587415,None,None,None,None,None,None,1,0.966408771867,,['return'],[0.2670473445850803],2017_Feb_23_1717,59.9066259274,famFaceFilter,001,23,
39,./img/edges5_AlysonHannigan(Lily)8_3.png,0,60,60,38,,,None,None,1,2.39938173253,None,None,None,None,None,None,1,0.516833947037,Lilly,"['lshift', 'l', 'i', 'l', 'l', 'y', 'return']","[1.284038312438497, 1.449777877291126, 1.683160214806776, 1.8996750839869492, 2.032860495903151, 2.183070557361134, 2.4661920863436535]",2017_Feb_23_1717,59.9066259274,famFaceFilter,001,23,
19,./img/edges5_HughLaurie(DrHouse)2_1.png,0,61,61,18,,,None,None,1,1.71623338651,None,None,None,None,None,None,1,0.600183613315,Dr House,"['lshift', 'd', 'r', 'space', 'lshift', 'h', 'o', 'u', 's', 'e', 'return']","[0.7166860042307235, 1.2666845446910884, 1.583077806943038, 1.849611585987077, 2.24926180968032, 2.382866478412325, 2.6491032170488324, 2.8326231843566347, 3.032453428650115, 3.21577002271988, 3.448960855783298]",2017_Feb_23_1717,59.9066259274,famFaceFilter,001,23,
4,./img/edges5_LeonardoDiCaprio1_1.png,0,62,62,3,,,None,None,1,2.13303945794,None,None,None,None,None,None,1,0.23365435724,Leo Di Caprio,"['lshift', 'l', 'e', 'o', 'space', 'lshift', 'd', 'i', 'space', 'lshift', 'c', 'a', 'p', 'r', 'i', 'o', 'return']","[0.8000026303798222, 1.232961476809578, 1.5661811478130403, 1.7991692491959839, 2.099643262812606, 2.3659412700435496, 2.466228655031955, 2.7656967089133104, 3.032548699709878, 3.2322753327189275, 3.765505846018641, 3.8822703125424596, 4.198596852975243, 4.415193199763962, 5.031752849550685, 5.198308473574798, 6.731068405582846]",2017_Feb_23_1717,59.9066259274,famFaceFilter,001,23,
9,./img/edges5_RobertSeanLeonard(Wilson)8_1.png,0,63,63,8,,,None,None,2,3.98194854015,None,None,None,None,None,None,1,1.73318521945,,['return'],[0.43340729404189915],2017_Feb_23_1717,59.9066259274,famFaceFilter,001,23,
24,./img/edges5_JasonSegel(Marshall)7_1.png,0,64,64,23,,,None,None,1,1.34993509058,None,None,None,None,None,None,1,0.883278196945,Marshall,"['lshift', 'm', 'a', 'r', 's', 'h', 'a', 'l', 'l', 'return']","[0.8332583247502043, 0.9334504386788467, 1.099933246103319, 1.5165208677299233, 2.016269217407171, 2.1829355098325323, 2.2991581823553133, 2.5994317097356543, 2.7825186267746176, 3.5487372414572746]",2017_Feb_23_1717,59.9066259274,famFaceFilter,001,23,
32,./img/edges5_Ice-T(OdafinFinTutuola)7_1.png,0,65,65,31,,,None,None,1,2.38242669181,None,None,None,None,None,None,1,1.18304778212,,['return'],[0.5835596154647646],2017_Feb_23_1717,59.9066259274,famFaceFilter,001,23,
12,./img/edges5_UrsulavonderLeyen4_1.png,0,66,66,11,,,None,None,1,1.21668808929,None,None,None,None,None,None,4,2.59934157113,Ursula von der Leien,"['lshift', 'u', 'r', 's', 'u', 'l', 'a', 'space', 'v', 'o', 'n', 'space', 'd', 'e', 'r', 'space', 'lshift', 'l', 'e', 'i', 'e', 'n', 'return']","[0.6667870653327554, 0.8167318434043409, 1.1498799809196498, 1.566395427502357, 1.9495749852194422, 2.3160330285827513, 2.6160159311166353, 2.765926706722894, 2.9826253816863755, 3.1324983054910263, 3.3490542342533445, 3.515754849922814, 3.543318659878423, 3.7323787836157862, 3.8322048898753565, 4.03200690570884, 4.26527087615068, 4.432024740963243, 4.615240931525477, 4.765043604953462, 4.865192413857585, 5.04839064085354, 8.097213369641395]",2017_Feb_23_1717,59.9066259274,famFaceFilter,001,23,
53,./img/edges5_KatjaBurkard4_1.png,0,67,67,52,,,None,None,1,2.149473876,None,None,None,None,None,None,3,1.78283523464,,['return'],[0.3503469694987871],2017_Feb_23_1717,59.9066259274,famFaceFilter,001,23,
40,./img/edges5_NicoleKidman3_1.png,0,68,68,39,,,None,None,1,1.98289643907,None,None,None,None,None,None,1,0.516800586125,Nicole Kidman,"['lshift', 'n', 'i', 'c', 'o', 'l', 'e', 'space', 'lshift', 'k', 'i', 'd', 'm', 'a', 'n', 'return']","[0.6169442625814554, 1.0834920917004638, 1.3332337852352794, 1.6330886973555607, 1.9162840052722458, 2.099556331981148, 2.2329560235848476, 2.432820591122436, 2.5992995492106274, 2.8160896458957723, 2.9993106481288123, 3.415769317009108, 3.6987715165832924, 3.832324860837616, 3.982218955989083, 4.298753039773146]",2017_Feb_23_1717,59.9066259274,famFaceFilter,001,23,
62,./img/edges5_AlysonHannigan(Lily)5_4.png,0,69,69,61,,,None,None,1,2.0497343798,None,None,None,None,None,None,1,0.75003376188,Lilly,"['lshift', 'l', 'i', 'l', 'l', 'y', 'return']","[0.7501774704160198, 1.0833102105880243, 1.3329633694011136, 1.5340533088092343, 1.6665602753037092, 1.8330145334875851, 2.1661902579089656]",2017_Feb_23_1717,59.9066259274,famFaceFilter,001,23,
22,./img/edges5_JasonSegel(Marshall)6_1.png,0,70,70,21,,,None,None,1,1.83301485427,None,None,None,None,None,None,1,0.700173316342,Marshall,"['lshift', 'm', 'a', 'r', 's', 'h', 'a', 'l', 'l', 'return']","[1.0998655619496276, 1.2499287070932041, 1.4164230625247, 1.8329327351038955, 2.049655147635349, 2.382723411434199, 2.4992861086120683, 2.832545235307407, 2.9825663585379516, 3.265874259523116]",2017_Feb_23_1717,59.9066259274,famFaceFilter,001,23,
30,./img/edges5_MariskaHargitay(Liv)8_8.png,0,71,71,29,,,None,None,2,5.73143441325,None,None,None,None,None,None,3,0.966722492727,,['return'],[0.46692570557570434],2017_Feb_23_1717,59.9066259274,famFaceFilter,001,23,
46,./img/gray_GuentherJauch3_1.png,0,0,0,45,,,None,None,1,3.08236295322,None,None,None,None,None,None,3,2.56604225095,Günther Jauch,"['lshift', 'g', u'\xfc', 'n', 't', 'h', 'e', 'r', 'space', 'lshift', 'j', 'a', 'u', 'c', 'h', 'return']","[0.7667588047952449, 0.9334023219835217, 1.3498019677172124, 1.6830575658532325, 1.966081899108758, 2.133021494370041, 2.266250211312581, 2.3662758414739073, 2.549378155854356, 2.7658821185850684, 2.88256350361371, 3.0325733996160125, 3.165840609914085, 3.415778298793157, 3.6488225363209494, 4.548652235293048]",2017_Feb_23_1717,59.9066259274,famFaceFilter,001,23,
45,./img/gray_NicoleKidman7_1.png,0,1,1,44,,,None,None,1,1.69970979216,None,None,None,None,None,None,1,1.84971455572,Nicole Kidman,"['lshift', 'n', 'i', 'c', 'o', 'l', 'e', 'space', 'lshift', 'k', 'i', 'd', 'm', 'a', 'n', 'return']","[0.7832875315853016, 0.9166852985199512, 1.1332303208328085, 1.3664233993422386, 1.6497345081079402, 1.8326000883425877, 1.9495897410070029, 2.1329162791935232, 2.3159550795353425, 2.449471855101365, 2.6159931558813696, 3.0491948312410386, 3.349041723911796, 3.4655226227059757, 3.8321779445250286, 4.648297422772885]",2017_Feb_23_1717,59.9066259274,famFaceFilter,001,23,
65,./img/gray_KatjaBurkard5_3.png,0,2,2,64,,,None,None,1,1.86644890119,None,None,None,None,None,None,3,2.93253910845,,['return'],[0.5169731646783475],2017_Feb_23_1717,59.9066259274,famFaceFilter,001,23,
52,./img/gray_EmilyDeschanel5_1.png,0,3,3,51,,,None,None,1,14.6774968796,None,None,None,None,None,None,1,0.766460802053,,['return'],[0.6003577957544621],2017_Feb_23_1717,59.9066259274,famFaceFilter,001,23,
22,./img/gray_GuentherJauch4_1.png,0,4,4,21,,,None,None,1,7.01425312783,None,None,None,None,None,None,3,1.3831449137,Günther Jauch,"['lshift', 'g', u'\xfc', 'n', 't', 'h', 'e', 'r', 'space', 'lshift', 'j', 'a', 'u', 'c', 'h', 'return']","[0.8831184495138586, 1.3497586626908742, 1.7497620629364974, 2.066363830872433, 2.366171267853133, 2.582780124981582, 2.7495115353376605, 2.832777799341784, 3.01596159132896, 3.2492592434591643, 3.3658059017379856, 3.499105510612935, 3.6324721620858327, 3.848924158784939, 4.048874694821279, 5.1317217020095995]",2017_Feb_23_1717,59.9066259274,famFaceFilter,001,23,
36,./img/gray_TomCruise5_1.png,0,5,5,35,,,None,None,1,2.26606865098,None,None,None,None,None,None,1,1.26645037677,Tom Cruise,"['lshift', 't', 'o', 'm', 'space', 'lshift', 'c', 'r', 'u', 'i', 's', 'e', 'return']","[0.7166609835494455, 0.8667222040276101, 1.183160695973129, 1.4331654274483299, 1.6332234241053811, 1.816270885452468, 1.9829054208585148, 2.4494153981759155, 2.715873473618558, 2.9158596160086745, 2.9991836200497346, 3.1824184157358104, 3.4487347073099954]",2017_Feb_23_1717,59.9066259274,famFaceFilter,001,23,
38,./img/gray_MariskaHargitay(Liv)4_4.png,0,6,6,37,,,None,None,2,3.51577441738,None,None,None,None,None,None,3,2.44891145598,,['return'],[0.16709870113845682],2017_Feb_23_1717,59.9066259274,famFaceFilter,001,23,
20,./img/gray_WillSmith1_1.png,0,7,7,19,,,None,None,1,2.5661930166,None,None,None,None,None,None,2,1.19990017389,Usher,"['lshift', 'u', 's', 'h', 'e', 'r', 'return']","[0.6833847593898099, 0.933409699877302, 1.1832537215868797, 1.3998962604018743, 1.6162754405013402, 1.733018094124418, 2.4327471329670516]",2017_Feb_23_1717,59.9066259274,famFaceFilter,001,23,
11,./img/gray_EmilyDeschanel6_12.png,0,8,8,10,,,None,None,1,7.24740514675,None,None,None,None,None,None,1,1.34976507825,Nicole Kidman,"['lshift', 'n', 'i', 'c', 'o', 'l', 'e', 'space', 'lshift', 'k', 'i', 's', 'backspace', 'd', 'm', 'a', 'n', 'return']","[0.8666490666491882, 0.9498200595953676, 1.199871303875625, 1.5330989943304303, 1.7662218224613753, 1.932962535378465, 2.0496670164229727, 2.2661741869324032, 2.4827089443497243, 2.5826421904530434, 2.7659395378432237, 2.949150916736471, 3.665575807695859, 3.798921608598903, 4.132009119077338, 4.248713279343065, 4.415304509722773, 6.414393500268488]",2017_Feb_23_1717,59.9066259274,famFaceFilter,001,23,
32,./img/gray_MariskaHargitay(Liv)6_5.png,0,9,9,31,,,None,None,2,5.26489909447,None,None,None,None,None,None,3,1.44976472539,,['return'],[0.2001757221751177],2017_Feb_23_1717,59.9066259274,famFaceFilter,001,23,
50,./img/gray_BastianSchweinsteiger3_1.png,0,10,10,49,,,None,None,1,1.94966833161,None,None,None,None,None,None,5,1.54949331515,,['return'],[0.7167491974923905],2017_Feb_23_1717,59.9066259274,famFaceFilter,001,23,
8,./img/gray_BastianSchweinsteiger6_2.png,0,11,11,7,,,None,None,1,1.49985516874,None,None,None,None,None,None,5,1.63320321509,,['return'],[1.0833727622939477],2017_Feb_23_1717,59.9066259274,famFaceFilter,001,23,
57,./img/gray_UrsulavonderLeyen5_1.png,0,12,12,56,,,None,None,1,1.76634788821,None,None,None,None,None,None,4,0.916827403164,Ursula von der Leien,"['lshift', 'u', 'r', 's', 'u', 'l', 'a', 'space', 'v', 'o', 'n', 'space', 'd', 'e', 'r', 'space', 'lshift', 'l', 'e', 'i', 'e', 'n', 'return']","[1.5329010743171239, 1.6996344093404332, 1.9824451044623856, 2.432692600710652, 2.7657631099555147, 3.248904142237734, 3.3986304705067596, 3.5488411735204863, 3.8818831335265713, 4.0986716263214475, 4.298458565590408, 4.481763932430113, 4.581788279478133, 4.764999016815636, 4.8650304209786555, 5.014923553797416, 5.314730349220554, 5.431080370601194, 5.647910243755177, 5.814596424415868, 5.9144241345657065, 6.08124183419568, 6.430951097076104]",2017_Feb_23_1717,59.9066259274,famFaceFilter,001,23,
33,./img/gray_KatjaBurkard4_1.png,0,13,13,32,,,None,None,1,2.43274456674,None,None,None,None,None,None,3,1.34983885718,,['return'],[0.6170157960696088],2017_Feb_23_1717,59.9066259274,famFaceFilter,001,23,
37,./img/gray_TomCruise1_1.png,0,14,14,36,,,None,None,1,1.18319694388,None,None,None,None,None,None,1,0.433292134749,Tom Cruise,"['lshift', 't', 'o', 'm', 'space', 'lshift', 'c', 'r', 'u', 'i', 's', 'e', 'return']","[0.8165230169415736, 1.8497286699475808, 2.2162938531564578, 2.466128572303205, 2.6660460682087432, 2.815713373329345, 3.6156444702210138, 3.932214801914597, 4.2153231789998244, 4.39868885209944, 4.448597735114163, 4.665288711405083, 4.948402220938078]",2017_Feb_23_1717,59.9066259274,famFaceFilter,001,23,
54,./img/gray_LeonardoDiCaprio3_1.png,0,15,15,53,,,None,None,1,1.46647180474,None,None,None,None,None,None,1,1.21644109025,Leo DiCaprio,"['lshift', 'l', 'e', 'o', 'space', 'lshift', 'd', 'i', 'lshift', 'c', 'a', 'p', 'r', 'o', 'backspace', 'i', 'p', 'backspace', 'o', 'return']","[0.650123291015916, 0.8334446967546683, 1.0999088669777848, 1.2832700491853757, 1.5328795821933454, 1.6829924479243346, 1.8497447088484478, 2.1494565539906034, 2.6825805690023117, 2.8158044742758648, 2.9659327373501583, 3.582404173193936, 3.898802888670616, 4.148705933526799, 4.748603733663913, 5.94777477921707, 6.164532477327157, 6.647743118430299, 6.914330788174993, 7.180816771298851]",2017_Feb_23_1717,59.9066259274,famFaceFilter,001,23,
56,./img/gray_GuentherJauch2_1.png,0,16,16,55,,,None,None,1,2.91599883365,None,None,None,None,None,None,3,1.29974328138,Günther Jauch,"['lshift', 'g', u'\xfc', 'n', 't', 'h', 'e', 'r', 'space', 'lshift', 'j', 'a', 'u', 'c', 'h', 'return']","[0.8501283593068365, 1.300024924448735, 1.7332182595800987, 2.0662980713859724, 2.3328911943553976, 2.6325642253632395, 2.749442888849444, 2.882615469645316, 3.03267829401193, 3.282466500353621, 3.3823788958889054, 3.5324988187348936, 3.6656855137625826, 3.8822921254450193, 4.065589793613981, 4.732003794160846]",2017_Feb_23_1717,59.9066259274,famFaceFilter,001,23,
62,./img/gray_LisaEdelstein(DrLisaCuddy)1_1.png,0,17,17,61,,,None,None,2,7.31415647742,None,None,None,None,None,None,1,3.66531533598,,['return'],[0.7167726142870379],2017_Feb_23_1717,59.9066259274,famFaceFilter,001,23,
69,./img/gray_OmarEpps(DrEricForeman)3_1.png,0,18,18,68,,,None,None,1,2.38286551608,None,None,None,None,None,None,2,1.56640312617,,['return'],[0.6835207692511176],2017_Feb_23_1717,59.9066259274,famFaceFilter,001,23,
59,./img/gray_AlysonHannigan(Lily)5_4.png,0,19,19,58,,,None,None,1,6.01457486814,None,None,None,None,None,None,1,0.816772261431,Lilly,"['lshift', 'l', 'i', 'l', 'l', 'y', 'return']","[0.8834873441865057, 1.0832373939883837, 1.3665125756197085, 1.6164964565268747, 1.7496526776467363, 1.8997193513496313, 2.182863014011673]",2017_Feb_23_1717,59.9066259274,famFaceFilter,001,23,
29,./img/gray_UrsulavonderLeyen4_1.png,0,20,20,28,,,None,None,1,1.73315506632,None,None,None,None,None,None,4,1.08324765888,Ursula von der leien,"['lshift', 'u', 'r', 's', 'u', 'l', 'a', 'space', 'v', 'o', 'n', 'space', 'd', 'e', 'r', 'space', 'l', 'e', 'i', 'e', 'n', 'return']","[0.7667992228198273, 0.8834129236965964, 1.2166893724024703, 1.6164117711414292, 1.9496747471712297, 2.3994523036835744, 2.5327374775497447, 2.766088378824861, 2.915952320845463, 3.1158111143795395, 3.3324340857398056, 3.498904703599692, 3.582144343032269, 3.7819700964355434, 3.865398032541634, 4.032388631501817, 4.365374134582453, 4.481951587547883, 4.681936446826512, 4.831817390080687, 4.965071127706324, 5.348221494627069]",2017_Feb_23_1717,59.9066259274,famFaceFilter,001,23,
47,./img/gray_HughLaurie(DrHouse)5_3.png,0,21,21,46,,,None,None,1,1.59983781466,None,None,None,None,None,None,1,0.466646307957,Dr House,"['lshift', 'd', 'r', 'space', 'lshift', 'h', 'o', 'u', 's', 'e', 'return']","[2.2994940368989774, 3.1323693527447176, 3.349094010722183, 3.632164856784584, 3.86505512088479, 4.1987700730842334, 4.481992967905171, 4.731874520637575, 4.9484205052831385, 5.148305602611799, 5.398220837032568]",2017_Feb_23_1717,59.9066259274,famFaceFilter,001,23,
19,./img/gray_JasonSegel(Marshall)9_1.png,0,22,22,18,,,None,None,1,1.83298277647,None,None,None,None,None,None,1,0.566813721984,Marshall,"['lshift', 'm', 'a', 'r', 's', 'h', 'a', 'l', 'l', 'return']","[0.9666022009860171, 1.066676589398412, 1.2499646342294, 1.6997418699629634, 1.9496753887269733, 2.232861394082647, 2.3661484926160483, 2.7161114908776653, 2.8659173720843683, 3.132517872947574]",2017_Feb_23_1717,59.9066259274,famFaceFilter,001,23,
13,./img/gray_NeilPatrickHarris(Barney)2_2.png,0,23,23,12,,,None,None,1,1.66631488015,None,None,None,None,None,None,1,0.366866393728,Barney,"['lshift', 'b', 'a', 'r', 'n', 'e', 'y', 'return']","[1.1500230478977755, 1.4999180412269197, 1.6829071209831454, 1.8164899768107716, 2.249552755307377, 2.4328221950127045, 3.0660446567853796, 3.865589216215085]",2017_Feb_23_1717,59.9066259274,famFaceFilter,001,23,
26,./img/gray_BarackObama1_3.png,0,24,24,25,,,None,None,1,1.99967793891,None,None,None,None,None,None,4,1.26660659565,Barack Obama,"['lshift', 'b', 'a', 'r', 'a', 'c', 'k', 'space', 'lshift', 'o', 'b', 'a', 'm', 'a', 'return']","[0.7501534120674478, 0.8500850542804983, 1.0333204915223178, 1.1666140056167933, 1.3160686349401658, 1.666426831667195, 1.9497138820843247, 2.1494398735376308, 2.232837977289819, 2.432906880399969, 2.8325747468825284, 2.965890394656526, 3.1825088751247677, 3.282394325309724, 4.248575665591488]",2017_Feb_23_1717,59.9066259274,famFaceFilter,001,23,
23,./img/gray_TomCruise4_1.png,0,25,25,22,,,None,None,1,2.41607854698,None,None,None,None,None,None,1,5.28156254802,Tom Cruise,"['lshift', 't', 'o', 'm', 'space', 'lshift', 'c', 'r', 'u', 'i', 's', 'e', 'return']","[0.9001244939336175, 0.999935844405627, 1.3999799834546138, 1.7163963417206105, 1.8997385980273975, 2.0829294471295725, 2.399611409560748, 2.6991696020540985, 3.049277591959253, 3.249119705038538, 3.3491716389926296, 3.5657602871106064, 3.8655921032168408]",2017_Feb_23_1717,59.9066259274,famFaceFilter,001,23,
21,./img/gray_HughLaurie(DrHouse)4_1.png,0,26,26,20,,,None,None,1,2.78240250515,None,None,None,None,None,None,1,0.250362078141,Dr House,"['lshift', 'lshift', 'd', 'r', 'space', 'lshift', 'h', 'o', 'u', 's', 'e', 'return']","[1.050036231872582, 1.8822433671939507, 2.2994160878497496, 2.4994397612645116, 2.7825888771531027, 3.0332502411456517, 3.4657728295278503, 3.7156415511417435, 3.915545253592427, 4.082045703804397, 4.298474925266419, 4.565184490642423]",2017_Feb_23_1717,59.9066259274,famFaceFilter,001,23,
63,./img/gray_JoshRadnor(Ted)3_1.png,0,27,27,62,,,None,None,1,1.43309549785,None,None,None,None,None,None,1,1.61618016944,Ted Mosby,"['lshift', 't', 'e', 'd', 'space', 'lshift', 'm', 'o', 's', 'b', 'y', 'return']","[1.0166567172018404, 1.166628761402535, 1.3832818858918472, 1.9328451306373609, 2.96591830233956, 3.2824318563325505, 3.415651912269823, 3.6488456323349965, 3.8155164156523824, 4.331948427883617, 4.49865128899728, 4.8816868174035335]",2017_Feb_23_1717,59.9066259274,famFaceFilter,001,23,
18,./img/gray_JasonSegel(Marshall)7_1.png,0,28,28,17,,,None,None,1,1.69965943002,None,None,None,None,None,None,1,1.88284707135,Marshall,"['lshift', 'm', 'a', 'r', 's', 'h', 'a', 'l', 'l', 'return']","[0.9330850725636992, 1.4497823681813315, 1.5665731384997343, 1.766379966004024, 1.982903496191284, 2.2662133218436793, 2.3828372876159847, 2.5993396464564285, 2.7493110490995605, 2.9825092600567586]",2017_Feb_23_1717,59.9066259274,famFaceFilter,001,23,
27,./img/gray_LeonardoDiCaprio1_1.png,0,29,29,26,,,None,None,1,1.18318315043,None,None,None,None,None,None,1,0.333553600876,Leo DiCaprio,"['lshift', 'l', 'e', 'o', 'space', 'lshift', 'd', 'i', 'lshift', 'c', 'a', 'p', 'r', 'i', 'o', 'return']","[0.8167071435018443, 1.2001186236957437, 1.4832706265860907, 1.6664922703730554, 1.9164116749070672, 2.0830166987398115, 2.233032689520769, 2.716062091069034, 3.0160283131481265, 3.249149858167584, 3.4158562478405656, 4.0155792239802395, 4.248881046223687, 4.665290636074133, 4.798670439444322, 5.098474347867523]",2017_Feb_23_1717,59.9066259274,famFaceFilter,001,23,
55,./img/gray_Ice-T(OdafinFinTutuola)6_1.png,0,30,30,54,,,None,None,1,4.11554775566,None,None,None,None,None,None,1,2.26636889917,,['return'],[0.7500238177653955],2017_Feb_23_1717,59.9066259274,famFaceFilter,001,23,
6,./img/gray_NicoleKidman3_1.png,0,31,31,5,,,None,None,1,1.93296830938,None,None,None,None,None,None,1,0.683472652554,Nicole Kidman,"['lshift', 'n', 'i', 'c', 'o', 'l', 'e', 'space', 'lshift', 'k', 'i', 'd', 'm', 'a', 'n', 'return']","[0.6334896698263037, 0.7833930675387819, 1.0166198277365766, 1.349843668853282, 1.566250115078219, 1.7497149085738783, 1.84970493237779, 2.0661890068749926, 2.2826852709331433, 2.649334497971722, 2.8493151871371083, 3.1325214015050733, 3.449089166975682, 3.5488321917382564, 3.715782372672038, 4.3486282411013235]",2017_Feb_23_1717,59.9066259274,famFaceFilter,001,23,
58,./img/gray_GeorgeClooney3_1.png,0,32,32,57,,,None,None,1,1.83290931831,None,None,None,None,None,None,1,0.366630301136,George Clouney,"['lshift', 'g', 'e', 'o', 'r', 'g', 'e', 'space', 'lshift', 'c', 'l', 'o', 'u', 'n', 'e', 'y', 'return']","[0.7831348412673833, 1.0166445276390732, 1.2998148148726614, 1.5663890119412827, 1.7163629808092082, 2.066153400517578, 2.182817142758722, 2.3992928770276194, 2.7325433427176904, 2.8992705829587067, 3.265487080505409, 3.6489909447573154, 3.8489283288963634, 4.065412724170528, 4.282030563083026, 4.748584166205546, 5.514966056876801]",2017_Feb_23_1717,59.9066259274,famFaceFilter,001,23,
60,./img/gray_EmilyDeschanel3_1.png,0,33,33,59,,,None,None,1,8.06388614178,None,None,None,None,None,None,1,1.31644554906,Nicole Kidman,"['lshift', 'n', 'i', 'c', 'o', 'l', 'e', 'space', 'lshift', 'k', 'i', 'd', 'm', 'a', 'n', 'return']","[0.7001527865486423, 0.8835287245437939, 1.1665302825622348, 1.4495036121188605, 1.7497181163525966, 1.9159706051887042, 2.016258310955891, 2.2162457364593138, 2.3826714454025932, 2.5494718230220315, 2.715749332541236, 2.9156058806293004, 3.1991418547568173, 3.31588547071442, 3.4655652861765702, 4.182058823622356]",2017_Feb_23_1717,59.9066259274,famFaceFilter,001,23,
25,./img/gray_MariskaHargitay(Liv)8_8.png,0,34,34,24,,,None,None,2,5.1482228419,None,None,None,None,None,None,3,1.4497441956,,['return'],[0.4168776049173175],2017_Feb_23_1717,59.9066259274,famFaceFilter,001,23,
35,./img/gray_JoachimLoew4_1.png,0,35,35,34,,,None,None,1,1.31655814213,None,None,None,None,None,None,5,3.51595276993,Joachim Löw,"['lshift', 'j', 'o', 'a', 'c', 'h', 'i', 'm', 'space', 'lshift', 'l', u'\xf6', 'w', 'return']","[1.9328829824407876, 1.9828345289261051, 2.2160888760299713, 2.349441734049833, 2.6160871438278264, 2.849184630500531, 3.099105959701774, 3.365687213887213, 3.515670485314331, 3.6655860725913954, 3.7986515135435184, 3.9988208201593807, 4.298489039498236, 4.615237723746759]",2017_Feb_23_1717,59.9066259274,famFaceFilter,001,23,
67,./img/gray_AngelaMerkel4_1.png,0,36,36,66,,,None,None,1,2.96592215168,None,None,None,None,None,None,4,2.51595309071,Angela Merkel,"['lshift', 'a', 'n', 'g', 'e', 'l', 'a', 'space', 'lshift', 'm', 'e', 'r', 'k', 'e', 'l', 'return']","[0.48340663644739834, 0.7000459674854937, 0.9666653942476842, 1.182851145225868, 1.2832668414048385, 1.4998012780433783, 1.633091905136098, 1.7830777427880093, 2.7160325794957316, 2.832618372687648, 3.0659234027116327, 3.199158535213428, 3.4490397671670507, 3.549061547992096, 3.6655681090232974, 4.032148048017916]",2017_Feb_23_1717,59.9066259274,famFaceFilter,001,23,
12,./img/gray_BarackObama2_1.png,0,37,37,11,,,None,None,1,1.46641278159,None,None,None,None,None,None,4,1.35002490841,Barack Obama,"['lshift', 'b', 'a', 'r', 'a', 'c', 'k', 'space', 'lshift', 'o', 'b', 'a', 'm', 'a', 'return']","[0.5666985626903625, 0.6999959261192998, 0.8498540941382089, 0.9666663565803901, 1.116551469949627, 1.416584413847886, 1.5996437439789588, 1.79962539547887, 1.9330350312011433, 2.0828072307213006, 2.466052227146065, 2.649381652334341, 2.83251123284208, 2.9325962069287925, 3.3656605893138476]",2017_Feb_23_1717,59.9066259274,famFaceFilter,001,23,
31,./img/gray_AngelaMerkel3_1.png,0,38,38,30,,,None,None,1,1.58292704129,None,None,None,None,None,None,4,2.26613120268,Angela Merkel,"['lshift', 'a', 'n', 'g', 'e', 'l', 'a', 'space', 'lshift', 'm', 'e', 'r', 'k', 'r', 'l', 'backspace', 'backspace', 'e', 'l', 'return']","[0.5168535144930502, 0.6834874083415343, 0.933371527298732, 1.1832787422681577, 1.334132605124978, 1.5163835747571284, 1.6331255868244625, 1.7997524235579476, 2.2161915249816957, 2.3327105963562644, 2.6159982883291377, 2.732666200683525, 3.016538991685593, 3.1490408257341187, 3.2324815929587203, 4.715238974780732, 4.881754180780263, 5.731489266288918, 6.480960704377139, 6.830965082997864]",2017_Feb_23_1717,59.9066259274,famFaceFilter,001,23,
70,./img/gray_WillSmith5_1.png,0,39,39,69,,,None,None,1,2.51617699374,None,None,None,None,None,None,2,1.10006829363,Usher,"['lshift', 'u', 's', 'h', 'e', 'r', 'return']","[0.8833991302435606, 0.9999743377629784, 1.2666184644294844, 1.4831609205175482, 1.5831657001090207, 1.7330245096836734, 2.149562410724684]",2017_Feb_23_1717,59.9066259274,famFaceFilter,001,23,
30,./img/gray_BarackObama4_1.png,0,40,40,29,,,None,None,1,1.66628857636,None,None,None,None,None,None,4,1.56632998879,Barack Obama,"['lshift', 'b', 'a', 'r', 'a', 'c', 'k', 'space', 'lshift', 'o', 'b', 'a', 'm', 'a', 'return']","[0.8500792802769865, 1.216480545939703, 1.3000874761546584, 1.5830614472670277, 1.6664030940974044, 1.982765240883964, 2.2162896830432146, 2.432662447581606, 2.549397402533941, 2.7493232386659656, 3.1490549399659358, 3.2657632703449053, 3.499061243252072, 3.5823133930261974, 4.032134896122443]",2017_Feb_23_1717,59.9066259274,famFaceFilter,001,23,
51,./img/gray_AlysonHannigan(Lily)1_1.png,0,41,41,50,,,None,None,1,2.29953637959,None,None,None,None,None,None,1,0.833301629777,Lilly,"['lshift', 'l', 'i', 'l', 'l', 'y', 'return']","[1.0832473381033196, 1.3331548738515266, 1.5663546886989934, 1.7996889095174993, 1.9330324649763497, 2.0496025400479994, 2.3494510366090253]",2017_Feb_23_1717,59.9066259274,famFaceFilter,001,23,
15,./img/gray_GeorgeClooney11_1.png,0,42,42,14,,,None,None,1,1.58298606444,None,None,None,None,None,None,1,0.316843955306,George Clouney,"['lshift', 'g', 'e', 'o', 'r', 'g', 'e', 'space', 'lshift', 'c', 'l', 'o', 'u', 'n', 'e', 'y', 'return']","[0.8166930292700272, 1.2998690263520984, 1.6161323735232145, 1.88257441006499, 2.0660395243376115, 2.3830063376117323, 2.4993185071889457, 2.7156845353911194, 3.016042748156906, 3.482632599190765, 3.8490890386638057, 4.04885480658595, 4.332191256811711, 4.565419300120993, 4.782045800038759, 5.198627647661851, 5.664886776601634]",2017_Feb_23_1717,59.9066259274,famFaceFilter,001,23,
66,./img/gray_NeilPatrickHarris(Barney)3_7.png,0,43,43,65,,,None,None,1,1.88296640075,None,None,None,None,None,None,1,0.16700471319,Barney,"['lshift', 'b', 'a', 'r', 'n', 'e', 'y', 'return']","[0.750069368235927, 0.916722187987034, 1.066493104395704, 1.1999688203795813, 1.5997579409377067, 1.7496728866572084, 2.2159256000377354, 2.4827131144611485]",2017_Feb_23_1717,59.9066259274,famFaceFilter,001,23,
9,./img/gray_RobertSeanLeonard(Wilson)8_1.png,0,44,44,8,,,None,None,2,4.43099215666,None,None,None,None,None,None,1,0.949948050007,,['return'],[0.9166044624707865],2017_Feb_23_1717,59.9066259274,famFaceFilter,001,23,
5,./img/gray_OmarEpps(DrEricForeman)2_2.png,0,45,45,4,,,None,None,1,2.74930559588,None,None,None,None,None,None,2,2.49932748897,,['return'],[0.5167794147782843],2017_Feb_23_1717,59.9066259274,famFaceFilter,001,23,
39,./img/gray_UrsulavonderLeyen1_1.png,0,46,46,38,,,None,None,1,1.53304863219,None,None,None,None,None,None,4,1.08286785776,Ursula von der leien,"['lshift', 'u', 'r', 's', 'i', 'backspace', 'u', 'l', 'a', 'space', 'v', 'o', 'n', 'space', 'd', 'e', 'r', 'space', 'l', 'e', 'i', 'e', 'n', 'return']","[1.2497224468552304, 1.4329909242278518, 1.6828221148189186, 2.182768705284616, 2.4326996578256512, 2.8990316033668933, 3.2490449637698475, 3.6987147388808808, 3.8820557120761805, 4.0325964956282405, 4.2319786130901775, 4.465215958960471, 4.681723450248683, 4.864634260178718, 4.931675253357753, 5.115288246277487, 5.2150335164860735, 5.364789677107183, 6.364472748466142, 6.481162152946126, 6.614270257368844, 6.797740183312271, 6.914271444247788, 8.230443369695422]",2017_Feb_23_1717,59.9066259274,famFaceFilter,001,23,
44,./img/gray_BritneySpears5_1.png,0,47,47,43,,,None,None,1,2.08300675462,None,None,None,None,None,None,2,1.11664706179,Britney Spears,"['lshift', 'b', 'r', 'i', 't', 'n', 'e', 'y', 'space', 'lshift', 's', 'p', 'e', 'a', 'r', 's', 'return']","[0.6333571885224956, 0.7500892564730748, 1.0499874736215133, 1.2165819117799401, 1.4664410100540408, 1.8662054307078506, 2.182808802534055, 2.6324038363763975, 2.815942088027441, 3.2490911557997606, 3.3823105701794702, 3.7149608602758235, 3.8981465769302304, 4.115246865920199, 4.24846660107869, 4.432052969426877, 4.898295417911868]",2017_Feb_23_1717,59.9066259274,famFaceFilter,001,23,
17,./img/gray_JasonSegel(Marshall)6_1.png,0,48,48,16,,,None,None,1,1.78304534421,None,None,None,None,None,None,1,0.88331893575,Marshall,"['lshift', 'm', 'a', 'r', 's', 'h', 'a', 'k', 'backspace', 'l', 'l', 'return']","[0.6999712262149842, 0.9999801117664902, 1.0998921865229931, 1.3665517105328036, 1.6997697776459972, 1.9496648030544748, 2.065517618570084, 2.4820304989279975, 3.3323667223648954, 3.732163220816801, 3.8820204264993663, 4.6651812507843715]",2017_Feb_23_1717,59.9066259274,famFaceFilter,001,23,
7,./img/gray_OmarEpps(DrEricForeman)1_5.png,0,49,49,6,,,None,None,1,6.18111541559,None,None,None,None,None,None,2,1.16685715532,,['return'],[0.46686636165031814],2017_Feb_23_1717,59.9066259274,famFaceFilter,001,23,
68,./img/gray_Ice-T(OdafinFinTutuola)7_1.png,0,50,50,67,,,None,None,1,1.91615473175,None,None,None,None,None,None,1,1.04993646992,,['return'],[0.6666327711263875],2017_Feb_23_1717,59.9066259274,famFaceFilter,001,23,
53,./img/gray_Ice-T(OdafinFinTutuola)5_1.png,0,51,51,52,,,None,None,1,0.933470006137,None,None,None,None,None,None,1,0.932909607011,,['return'],[0.23381506700570753],2017_Feb_23_1717,59.9066259274,famFaceFilter,001,23,
34,./img/gray_RobertSeanLeonard(Wilson)2_6.png,0,52,52,33,,,None,None,2,4.08203800513,None,None,None,None,None,None,1,3.11603854597,,['return'],[0.38360651320363104],2017_Feb_23_1717,59.9066259274,famFaceFilter,001,23,
10,./img/gray_HughLaurie(DrHouse)2_1.png,0,53,53,9,,,None,None,1,1.81632541771,None,None,None,None,None,None,1,1.93291056935,Dr House,"['lshift', 'd', 'r', 'space', 'lshift', 'h', 'o', 'u', 's', 'e', 'return']","[0.8833920731267426, 1.3664310980129812, 1.6664595510192157, 1.9329740833836695, 2.21629417393342, 2.4328751233788353, 2.68260206112609, 2.882571523063234, 3.0824793956271606, 3.282370266961152, 3.4822928953126393]",2017_Feb_23_1717,59.9066259274,famFaceFilter,001,23,
2,./img/gray_BastianSchweinsteiger1_1.png,0,54,54,1,,,None,None,1,1.766557677,None,None,None,None,None,None,5,1.58306625894,,['return'],[1.7831297088214342],2017_Feb_23_1717,59.9066259274,famFaceFilter,001,23,
16,./img/gray_JoshRadnor(Ted)1_2.png,0,55,55,15,,,None,None,1,1.13321877283,None,None,None,None,None,None,1,0.41677752219,Ted,"['lshift', 't', 'e', 'd', 'return']","[0.6336336991389544, 0.7502926297092927, 0.9502566384217062, 1.2500159587052622, 1.6498547998489812]",2017_Feb_23_1717,59.9066259274,famFaceFilter,001,23,
61,./img/gray_AlysonHannigan(Lily)8_3.png,0,56,56,60,,,None,None,1,1.38325237432,None,None,None,None,None,None,1,0.516786792672,Lilly,"['lshift', 'l', 'i', 'l', 'l', 'y', 'pound', 'return']","[0.8836227124920697, 1.0169226421458006, 1.2333746388430882, 1.4499796466370753, 1.5665481178184564, 1.7498512392121484, 1.9663491071623866, 3.565833103708428]",2017_Feb_23_1717,59.9066259274,famFaceFilter,001,23,
72,./img/gray_WillSmith4_1.png,0,57,57,71,,,None,None,1,2.73218727917,None,None,None,None,None,None,2,1.58289624661,Usher,"['lshift', 'u', 's', 'h', 'e', 'r', 'return']","[0.43344867440100643, 0.5501704774542304, 0.80012773378985, 1.0499425647030876, 1.1165986243104271, 1.2331176956849959, 1.5664101832880988]",2017_Feb_23_1717,59.9066259274,famFaceFilter,001,23,
4,./img/gray_AngelaMerkel1_1.png,0,58,58,3,,,None,None,1,1.73300911234,None,None,None,None,None,None,4,1.21662489603,Angela Merkel,"['lshift', 'a', 'n', 'g', 'e', 'l', 'a', 'space', 'lshift', 'm', 'e', 'r', 'k', 'e', 'l', 'return']","[0.8499801598827617, 1.1165960580874525, 1.3498411026303074, 1.582891434940393, 1.6997960814405815, 1.8996324205181736, 2.0495217039988347, 2.1995149195445265, 2.482889221571895, 2.649155824638001, 2.949292059045547, 3.032354308257709, 3.2506097187397245, 3.332434406518587, 3.449141133007288, 3.7663401895351853]",2017_Feb_23_1717,59.9066259274,famFaceFilter,001,23,
41,./img/gray_RobertSeanLeonard(Wilson)1_1.png,0,59,59,40,,,None,None,2,3.2154017696,None,None,None,None,None,None,1,1.01672536369,,['return'],[0.8167119551708311],2017_Feb_23_1717,59.9066259274,famFaceFilter,001,23,
1,./img/gray_JoachimLoew8_1.png,0,60,60,0,,,None,None,1,4.11521350501,None,None,None,None,None,None,5,2.53264798049,Joachim Löw,"['lshift', 'j', 'o', 'a', 'c', 'h', 'i', 'm', 'space', 'lshift', 'l', u'\xf6', 'w', 'return']","[0.6335204645110935, 0.7501793950832507, 0.9667465510738111, 1.0832691510058794, 1.3999414900972624, 1.5831236781941698, 1.849708781714071, 2.082924956237548, 2.2494629374723445, 2.4161670816993137, 2.6160893892738386, 2.832684773728033, 3.182644564207294, 3.4657968878764223]",2017_Feb_23_1717,59.9066259274,famFaceFilter,001,23,
42,./img/gray_NicoleKidman5_1.png,0,61,61,41,,,None,None,1,1.68326061831,None,None,None,None,None,None,1,0.250395118272,Nicole Kidman,"['lshift', 'n', 'i', 'c', 'o', 'l', 'e', 'space', 'lshift', 'k', 'i', 'd', 'm', 'a', 'n', 'n', 'backspace', 'return']","[0.8333981839477929, 0.9329933300632547, 1.1831661491978593, 1.4330669486080296, 1.7163312237898936, 1.8829532488543919, 1.9830013334740215, 2.1660978738509584, 2.366085940910125, 2.499354113544541, 2.699288289903052, 2.9325670161324524, 3.1656519924636086, 3.2824607263501093, 3.415734352209256, 3.5655578762052755, 4.131987626951741, 4.381638540318818]",2017_Feb_23_1717,59.9066259274,famFaceFilter,001,23,
28,./img/gray_GeorgeClooney4_2.png,0,62,62,27,,,None,None,1,2.28286971827,None,None,None,None,None,None,1,0.266917429502,George Clouney,"['lshift', 'g', 'e', 'o', 'r', 'g', 'e', 'space', 'lshift', 'c', 'l', 'o', 'u', 'n', 'e', 'y', 'return']","[1.1334176551699784, 1.5999128767016373, 1.8832217400213267, 2.0996968327344803, 2.2662726657708845, 2.7661506097501842, 2.8827261380483833, 3.0826356145025784, 3.349206924569444, 3.6989521145842446, 4.06558049105297, 4.282176837841689, 4.5320667308005795, 4.765306001338104, 4.9651490767537325, 5.381411108734028, 5.664898966164401]",2017_Feb_23_1717,59.9066259274,famFaceFilter,001,23,
49,./img/gray_NeilPatrickHarris(Barney)1_1.png,0,63,63,48,,,None,None,1,1.6495831009,None,None,None,None,None,None,1,0.233619713219,Barney,"['lshift', 'b', 'a', 'r', 'n', 'e', 'y', 'return']","[0.6000424710036896, 0.7334238782641478, 0.8833882237922808, 1.0165694655934203, 1.4164317235299677, 1.5831817390080687, 1.9996012729752692, 2.282938685535555]",2017_Feb_23_1717,59.9066259274,famFaceFilter,001,23,
24,./img/gray_JoachimLoew1_1.png,0,64,64,23,,,None,None,1,1.98283035881,None,None,None,None,None,None,5,1.68324265475,Joachim Löw,"['lshift', 'j', 'o', 'a', 'c', 'h', 'i', 'm', 'space', 'lshift', 'l', u'\xf6', 'w', 'return']","[1.5827454809586925, 1.7660845294867613, 2.032676369344699, 2.149013880383791, 2.4657599984075205, 2.5990750046257745, 2.832451888916694, 3.0656475336490985, 3.2822332947635005, 3.432018966959731, 3.815295399625029, 4.381912805487445, 4.61621513423961, 4.998236362684111]",2017_Feb_23_1717,59.9066259274,famFaceFilter,001,23,
64,./img/gray_LisaEdelstein(DrLisaCuddy)2_2.png,0,65,65,63,,,None,None,2,7.96358913345,None,None,None,None,None,None,1,0.816738258964,,['return'],[0.8834289625938254],2017_Feb_23_1717,59.9066259274,famFaceFilter,001,23,
40,./img/gray_BritneySpears1_1.png,0,66,66,39,,,None,None,1,1.41619948028,None,None,None,None,None,None,2,0.383211635515,Britney Spears,"['lshift', 'b', 'e', 'backspace', 'r', 'i', 't', 'n', 'e', 'y', 'space', 'lshift', 's', 'p', 'e', 'a', 'r', 's', 'return']","[0.9331697579509637, 1.1165219583763246, 1.4331987883579131, 2.099586164333232, 2.2828758130526694, 2.7160155782621587, 2.9492173177768564, 3.249031491095593, 3.4824186402802297, 3.94881217519287, 4.098661040648949, 4.415149573958843, 4.665131209419997, 4.915018856932875, 5.0316832407297625, 5.281499033977525, 5.4647716814633895, 5.58235028249328, 6.647695322511936]",2017_Feb_23_1717,59.9066259274,famFaceFilter,001,23,
71,./img/gray_BritneySpears7_1.png,0,67,67,70,,,None,None,1,1.41654239193,None,None,None,None,None,None,2,1.83270819052,Britney Spears,"['lshift', 'b', 'r', 'i', 't', 'n', 'e', 'y', 'space', 'lshift', 's', 'p', 'e', 'capslock', 'a', 'r', 's', 'return']","[0.9333022392547718, 1.0834436542245385, 1.3665841091078619, 1.7330357369119156, 2.016396887041992, 2.4162860903288674, 2.599538849581222, 3.0659471402796044, 3.265825180493266, 3.698841125404215, 3.9322536160489108, 4.398514028101999, 4.681816155083652, 4.831886036567084, 4.898424049879395, 5.081812818993058, 5.864424792160207]",2017_Feb_23_1717,59.9066259274,famFaceFilter,001,23,
43,./img/gray_LisaEdelstein(DrLisaCuddy)6_3.png,0,68,68,42,,,None,None,2,5.78109918423,None,None,None,None,None,None,1,1.74957921949,,['return'],[0.48359749934388674],2017_Feb_23_1717,59.9066259274,famFaceFilter,001,23,
3,./img/gray_KatjaBurkard1_1.png,0,69,69,2,,,None,None,1,2.94923656446,None,None,None,None,None,None,2,4.34833505003,,['return'],[1.2665597620598419],2017_Feb_23_1717,59.9066259274,famFaceFilter,001,23,
14,./img/gray_JoshRadnor(Ted)6_2.png,0,70,70,13,,,None,None,1,1.71636522626,None,None,None,None,None,None,1,1.99972733872,Ted Mosby,"['lshift', 't', 'e', 'd', 'space', 'lshift', 'm', 'o', 's', 'b', 'y', 'return']","[0.5501938942470588, 0.6666504139157041, 0.8168656078214553, 1.5997797538420855, 1.7493902812620945, 1.9662721204476838, 2.1324886821512337, 2.316204965578436, 2.4494914225579123, 2.8992574310614145, 3.032551907490415, 3.4322781555656547]",2017_Feb_23_1717,59.9066259274,famFaceFilter,001,23,
48,./img/gray_LeonardoDiCaprio2_1.png,0,71,71,47,,,None,None,1,1.51648943149,None,None,None,None,None,None,1,0.316630317177,Leo Di Caprio,"['lshift', 'l', 'e', 'o', 'space', 'lshift', 'd', 'i', 'space', 'lshift', 'c', 'a', 'p', 'r', 'i', 'o', 'return']","[0.666708474729603, 0.7833895389812824, 1.0333176045205619, 1.1998016950565216, 1.433151633995294, 1.599500677002652, 1.7330931561700709, 2.016295521201755, 2.59928190642313, 2.7657650346245646, 2.9323735870148084, 3.0157909374447627, 3.79878656107212, 3.965389339458852, 4.331950352552667, 4.481804671233476, 5.281370081231216]",2017_Feb_23_1717,59.9066259274,famFaceFilter,001,23,
