num,pic,trials.thisRepN,trials.thisTrialN,trials.thisN,trials.thisIndex,key_resp_2.keys,key_resp_2.rt,ratingBekannt.response,ratingBekannt.rt,key_resp_5.keys,ratingK1.response,ratingK1.rt,ratingK2.response,ratingK2.rt,ratingK3.response,ratingK3.rt,key_resp_6.keys,inputText,key_resp_4.keys,key_resp_4.rt,key_resp_5.rt,key_resp_6.rt,date,frameRate,expName,session,participant,
,,,,,,space,15.8584306808,,,,,,,,,,,,,,,,2017_Feb_24_1121,60.0113768708,famFaceFilter,001,24,
50,./img/smoo15_OmarEpps(DrEricForeman)2_2.png,0,0,0,49,,,1.ja,12.604,None,act,1.019,None,None,None,None,None,Dr Haus,"['lshift', 'd', 'r', 'space', 'lshift', 'h', 'a', 'u', 's', 'return']","[0.7835535620406517, 0.9501135707141657, 1.1832862273904539, 1.9330983328954972, 2.099485122573242, 2.233009702509662, 3.6657303217607478, 4.165374100103691, 4.515252092983246, 4.915174336900236]",,,2017_Feb_24_1121,60.0113768708,famFaceFilter,001,24,
46,./img/smoo15_NeilPatrickHarris(Barney)1_1.png,0,1,1,45,,,1.ja,1.502,None,act,0.64,None,None,None,None,None,How i met your mother,"['lshift', 'h', 'o', 'w', 'space', 'i', 'space', 'm', 'e', 't', 'space', 'y', 'o', 'u', 'r', 'space', 'm', 'o', 't', 'h', 'e', 'r', 'return']","[0.5333900465157058, 0.6835324229077742, 1.083274069982508, 1.4497586321604103, 1.583030440672701, 1.8662268187272275, 2.1492843008099953, 2.3660598548622147, 2.5826262630152996, 2.7993424735223016, 3.0656852848223934, 3.848804516268501, 4.165085401777105, 4.4819808939446375, 4.815103798276141, 4.982188275575936, 5.331601784925624, 5.564758402805637, 5.881393745703463, 6.147937041951991, 6.264434836136388, 6.4978153556075995, 7.114217398180699]",,,2017_Feb_24_1121,60.0113768708,famFaceFilter,001,24,
4,./img/smoo15_UrsulavonderLeyen1_1.png,0,2,2,3,,,1.ja,1.902,None,None,None,None,None,polit,1.806,None,von der line,"['v', 'o', 'n', 'space', 'd', 'e', 'r', 'space', 'l', 'i', 'n', 'd', 'backspace', 'e', 'return']","[0.6668315454890035, 0.8502168926370359, 1.1334892945851607, 1.3000768899873947, 1.516535517432203, 1.7331073787763671, 1.9326312831581163, 2.0662213013811197, 2.366350798619351, 2.5828418244318527, 2.7827545092268338, 2.9991974186523294, 3.499149783428038, 3.715589164317862, 4.332172124508361]",,,2017_Feb_24_1121,60.0113768708,famFaceFilter,001,24,
68,./img/smoo15_AlysonHannigan(Lily)8_3.png,0,3,3,67,,,1.ja,1.517,None,act,1.84,None,None,None,None,None,Lilly How i met your mother,"['lshift', 'l', 'i', 'l', 'l', 'y', 'space', 'lshift', 'h', 'o', 'w', 'space', 'i', 'space', 'm', 'e', 't', 'space', 'y', 'o', 'u', 'r', 'space', 'm', 'o', 't', 'h', 'e', 'r', 'return']","[0.4325457963759618, 0.615914463176523, 0.8657177473442061, 1.2155617379767136, 1.3823023434924835, 1.6820440226447317, 1.8320478238401847, 2.16536511837694, 2.331827931947373, 2.6651327162244343, 3.048156484757783, 3.1814869952631852, 3.481336775899763, 3.847999047936355, 4.064506433321185, 4.281084389407624, 4.547630572638809, 4.7975031444057095, 5.365417019920642, 5.630494370221641, 5.880414737600404, 6.2301955353759695, 6.363421152155752, 6.663391544539081, 6.8965010083584275, 7.263002571659854, 7.529822055974364, 7.662834677544197, 7.929604120815384, 8.995796552364482]",,,2017_Feb_24_1121,60.0113768708,famFaceFilter,001,24,
7,./img/smoo15_LisaEdelstein(DrLisaCuddy)2_2.png,0,4,4,6,,,1.ja,1.919,None,dummy,0.823,None,None,None,None,None,Robin how i met your mother,"['lshift', 'r', 'o', 'b', 'i', 'space', 'backspace', 'backspace', 'i', 'n', 'space', 'h', 'o', 'w', 'space', 'i', 'space', 'm', 'e', 't', 'space', 'y', 'o', 'u', 'r', 'space', 'm', 'o', 't', 'h', 'e', 'r', 'return']","[0.749994947779669, 0.9499948836237309, 1.4164210325070599, 1.7830800967849427, 2.0995624295692323, 2.415995042087161, 3.1323797306831693, 3.715481704384729, 4.648463274846108, 4.948382984634009, 5.181660535035007, 5.681409207102661, 6.031227535661856, 6.4644893038876035, 6.614390136011934, 7.497221920158154, 7.763827126158503, 8.01367275274788, 8.230355923335992, 8.413649849347166, 8.663423301355579, 9.2298070757397, 9.579872722531036, 10.096324196672867, 10.329392601174732, 10.529507374798413, 10.896012787411564, 11.212365205949027, 11.72888532613797, 11.962115722479211, 12.128766510737478, 12.345166436189174, 13.361474363107845]",,,2017_Feb_24_1121,60.0113768708,famFaceFilter,001,24,
39,./img/smoo15_BarackObama2_1.png,0,5,5,38,,,1.ja,1.485,None,None,None,None,None,polit,1.141,None,obarma,"['b', 'backspace', 'o', 'b', 'a', 'r', 'm', 'a', 'return']","[0.9168824686657899, 1.6001159284169262, 2.1663142943207276, 2.6495859905608086, 3.0493529789337117, 3.282681853482245, 3.6991891747111367, 3.9489623059425867, 4.515457710346709]",,,2017_Feb_24_1121,60.0113768708,famFaceFilter,001,24,
42,./img/smoo15_OmarEpps(DrEricForeman)1_5.png,0,6,6,41,,,1.ja,1.686,None,act,1.107,None,None,None,None,None,Dr Hous,"['lshift', 'd', 'r', 'space', 'lshift', 'h', 'o', 'u', 's', 'return']","[0.46696216544205527, 0.7167923947872623, 0.9333206306064312, 1.1999768399782624, 1.4498205419122314, 1.683139472406765, 2.082669086599708, 2.7493338286112703, 3.332488409563666, 3.965637842063188]",,,2017_Feb_24_1121,60.0113768708,famFaceFilter,001,24,
49,./img/smoo15_TomCruise5_1.png,0,7,7,48,,,1.ja,1.405,None,act,0.707,None,None,None,None,None,Tom Cruse,"['lshift', 't', 'o', 'm', 'space', 'lshift', 'c', 'r', 'u', 's', 'e', 'return']","[0.5668216335134275, 0.7502015274712903, 1.1833221542929095, 1.5498031879351402, 1.7498021614528625, 2.3158783117305575, 2.499448746584676, 2.949329273593321, 3.2323578858431574, 3.5322156858783273, 3.7656006962124593, 4.3986808411136735]",,,2017_Feb_24_1121,60.0113768708,famFaceFilter,001,24,
12,./img/smoo15_MariskaHargitay(Liv)8_8.png,0,8,8,11,,,1.ja,1.983,None,dummy,1.857,None,None,None,None,None,Penelope cruse,"['lshift', 'p', 'e', 'n', 'e', 'l', 'o', 'p', 'e', 'space', 'c', 'r', 'u', 's', 'e', 'return']","[0.7501986404877243, 1.4331462888949318, 2.4658285433470155, 2.899186544348595, 3.282090342688207, 3.6489598359676165, 3.91554675774114, 4.2484595538453505, 4.48191609720925, 4.61525398556023, 4.98161023737066, 5.381565841983502, 5.5648732405843475, 5.864658224485538, 6.097688777429539, 6.48099097946033]",,,2017_Feb_24_1121,60.0113768708,famFaceFilter,001,24,
6,./img/smoo15_AlysonHannigan(Lily)1_1.png,0,9,9,5,,,1.ja,1.287,None,dummy,0.539,None,None,None,None,None,Lilly How i met your Mother,"['lshift', 'l', 'i', 'l', 'l', 'y', 'space', 'lshift', 'h', 'o', 'w', 'space', 'i', 'space', 'm', 'e', 't', 'space', 'y', 'o', 'u', 'r', 'space', 'lshift', 'm', 'o', 't', 'h', 'e', 'r', 'return']","[0.5168373675714975, 0.683642449047511, 0.9337010708459275, 1.1999973696374582, 1.3500813648115582, 1.5333444963353031, 1.6831840602599186, 1.8665264234350616, 2.0497363061558644, 2.3830343541385446, 2.732668236543759, 2.8827730821531077, 3.165972667967253, 3.482438961956177, 3.7156587726922226, 3.9655724037756954, 4.148869216771345, 4.448702958612557, 5.698158842460543, 5.898100076312403, 6.181284585658432, 6.514526497855513, 6.631081390152758, 6.94762916122545, 6.981108543834125, 7.24770220190203, 7.747371963094338, 7.997395299542404, 8.180560915187016, 8.430402050912562, 8.73042857908149]",,,2017_Feb_24_1121,60.0113768708,famFaceFilter,001,24,
41,./img/smoo15_AngelaMerkel3_1.png,0,10,10,40,,,1.ja,1.302,None,None,None,None,None,polit,0.823,None,Angela Merke,"['lshift', 'a', 'n', 'g', 'e', 'l', 'a', 'space', 'lshift', 'm', 'comma', 'e', 'r', 'k', 'e', 'return']","[0.5335199607634422, 0.750189658761883, 1.3164634070062675, 1.6330455011020604, 1.9164468549688536, 2.1496445321663487, 2.482772248135916, 2.6160373203538256, 2.865831302020524, 2.9826704017814336, 3.315599236681919, 3.5656440651164303, 3.8655628125761723, 4.115325678978479, 4.815094174998194]",,,2017_Feb_24_1121,60.0113768708,famFaceFilter,001,24,
45,./img/smoo15_RobertSeanLeonard(Wilson)2_6.png,0,11,11,44,,,1.ja,10.482,None,act,1.984,None,None,None,None,None,der Freund von Dr Haus,"['d', 'e', 'r', 'space', 'lshift', 'f', 'r', 'e', 'u', 'n', 'd', 'space', 'v', 'o', 'n', 'space', 'lshift', 'd', 'r', 'space', 'lshift', 'h', 'a', 'u', 's', 'return']","[0.7169838980116765, 0.9167323455358201, 1.133321528779561, 1.2998622908980906, 1.5164145849112174, 1.6164408564591213, 1.8496831215088605, 1.9994636626643114, 2.2328518807571527, 2.482687563293439, 2.7491391176290563, 3.1989099392740172, 3.832238043959478, 4.015477117289265, 4.298729310354247, 4.465102306667177, 4.698609853402559, 4.798494341994228, 5.0317500796327295, 5.714695803384529, 6.031111414778934, 6.664494692922744, 6.980921210698398, 7.197548566276055, 7.430640387420681, 8.047336902286588]",,,2017_Feb_24_1121,60.0113768708,famFaceFilter,001,24,
26,./img/smoo15_TomCruise4_1.png,0,12,12,25,,,1.ja,1.518,None,act,0.641,None,None,None,None,None,Tom Chruse,"['lshift', 't', 'o', 'm', 'space', 'lshift', 'c', 'h', 'r', 'u', 's', 'e', 'return']","[0.5837265244153969, 0.7003144566324409, 1.200144926559915, 1.5665884294194257, 1.766503359645867, 2.0497468917610604, 2.2328496353256924, 2.799416893534726, 3.1159826280591005, 3.63258839541777, 3.882275879478584, 4.148850611767557, 4.332162180454361]",,,2017_Feb_24_1121,60.0113768708,famFaceFilter,001,24,
47,./img/smoo15_BarackObama4_1.png,0,13,13,46,,,1.ja,1.036,None,None,None,None,None,polit,1.44,None,Obarma,"['lshift', 'o', 'b', 'a', 'r', 'm', 'a', 'return']","[0.5834304482423249, 0.8500603539887379, 1.5332440934726037, 1.8497398988465648, 2.0996089420777935, 2.532715775534598, 2.816010311021273, 3.2657721509403927]",,,2017_Feb_24_1121,60.0113768708,famFaceFilter,001,24,
22,./img/smoo15_WillSmith1_1.png,0,14,14,21,,,1.ja,2.389,None,dummy,1.19,None,None,None,None,None,Will Smith,"['lshift', 'w', 'i', 'l', 'l', 'space', 'lshift', 's', 'm', 'i', 't', 'h', 'return']","[1.016644741633172, 1.1497991461592392, 1.5993595388017638, 1.8494367656039685, 1.9993305406587751, 2.2661891596344503, 2.532537103348659, 2.6992077797140155, 3.1490517382690086, 3.4323802760018225, 3.948714987709536, 4.2484823289360065, 5.081570108303822]",,,2017_Feb_24_1121,60.0113768708,famFaceFilter,001,24,
40,./img/smoo15_NeilPatrickHarris(Barney)2_2.png,0,15,15,39,,,1.ja,1.101,None,act,0.741,None,None,None,None,None,How i met your mother,"['lshift', 'h', 'o', 'w', 'space', 'i', 'space', 'm', 'e', 't', 'space', 'y', 'o', 'u', 'r', 'space', 'm', 'o', 't', 'h', 'e', 'r', 'return']","[0.5335343956785437, 0.7334018510691749, 1.0666710292189236, 1.4497483673303577, 1.5999010085515692, 1.916177723972396, 2.1995880595650306, 2.4161262394381993, 2.6659359391242106, 2.8826207135916775, 3.115800106561437, 3.7322977403582627, 3.982167104365544, 4.248547446447446, 4.532071978266686, 4.665210343996478, 4.998518656808301, 5.28177277452869, 5.631449640906794, 5.864653412847474, 6.06478294216322, 6.331061277503068, 6.747720646517337]",,,2017_Feb_24_1121,60.0113768708,famFaceFilter,001,24,
64,./img/smoo15_JoachimLoew8_1.png,0,16,16,63,,,1.ja,1.417,None,None,None,None,None,sport,0.989,None,Löw,"['lshift', 'l', u'\xf6', 'w', 'return']","[0.700313173529139, 0.8670444765439242, 1.250139778107041, 1.7499468313917532, 2.182974112421107]",,,2017_Feb_24_1121,60.0113768708,famFaceFilter,001,24,
37,./img/smoo15_Ice-T(OdafinFinTutuola)5_1.png,0,17,17,36,,,1.ja,1.341,None,None,None,music,1.157,None,None,None,Hip Hop,"['lshift', 'h', 'i', 'p', 'space', 'lshift', 'h', 'o', 'p', 'return']","[2.6493608058663085, 2.8825809373774973, 3.2326315077007166, 3.882149493767429, 4.148704017173259, 4.3152826308496515, 4.448712581889595, 4.764977428601924, 5.031379262670271, 5.531462504021874]",,,2017_Feb_24_1121,60.0113768708,famFaceFilter,001,24,
23,./img/smoo15_JoachimLoew4_1.png,0,18,18,22,,,1.ja,1.502,None,None,None,None,None,sport,4.772,None,Löw,"['lshift', 'l', u'\xf6', 'w', 'return']","[0.7667779438334037, 0.9166210362927814, 1.1998340946956887, 1.6495988215983743, 2.016202070865802]",,,2017_Feb_24_1121,60.0113768708,famFaceFilter,001,24,
33,./img/smoo15_Ice-T(OdafinFinTutuola)7_1.png,0,19,19,32,,,1.ja,1.474,None,None,None,music,1.607,None,None,None,Hip Hop produzent,"['lshift', 'j', 'backspace', 'lshift', 'h', 'i', 'p', 'space', 'lshift', 'h', 'o', 'p', 'space', 'p', 'r', 'o', 'd', 'u', 'z', 'e', 'n', 't', 'return']","[0.783462461678937, 0.9999935844816719, 1.449855827263491, 1.6496844687681005, 1.8162935561567792, 2.099490254988268, 2.449487255733402, 2.6992927853325455, 2.8824564763217495, 3.03248754346896, 3.4155793164973147, 4.032680009020623, 4.365269142223042, 7.26398350441923, 7.747028091309403, 8.097152760869903, 8.546841784655953, 8.913483847809403, 9.64660117063977, 9.912966115477502, 10.129758349877193, 10.396100198849126, 11.295866706058405]",,,2017_Feb_24_1121,60.0113768708,famFaceFilter,001,24,
21,./img/smoo15_NeilPatrickHarris(Barney)3_7.png,0,20,20,20,,,1.ja,1.286,None,act,0.791,None,None,None,None,None,How i met your mother,"['lshift', 'h', 'o', 'w', 'space', 'i', 'space', 'm', 'e', 't', 'space', 'y', 'o', 'backspace', 'o', 'u', 'r', 'space', 'm', 'o', 't', 'h', 'e', 'r', 'return']","[0.7332032907761459, 1.2165125177989466, 1.5664604398280062, 1.8660802241320198, 1.9994813053399412, 2.3161410272077774, 2.5994403743325165, 2.832413187610655, 3.165596077038572, 3.3823514222076483, 3.665601049065117, 4.331922881619903, 4.665276103060023, 5.248149042756268, 6.181378573002803, 6.531013417735267, 6.947567572248772, 7.114219322835197, 7.38084377539144, 7.647274800067862, 8.66362988104629, 8.880075677454442, 9.046723257954, 9.263163601171073, 9.513347325578252]",,,2017_Feb_24_1121,60.0113768708,famFaceFilter,001,24,
28,./img/smoo15_HughLaurie(DrHouse)5_3.png,0,21,21,27,,,1.ja,1.202,None,dummy,0.59,None,None,None,None,None,Dr Haus,"['lshift', 'd', 'r', 'space', 'lshift', 'h', 'a', 'u', 's', 'return']","[0.6003366222494151, 0.7835975083416997, 1.0166171549035425, 1.266687324636223, 1.4831414612181106, 1.583276796577593, 2.2160008802093216, 2.4828566122023403, 2.6993418640486198, 3.149418705919743]",,,2017_Feb_24_1121,60.0113768708,famFaceFilter,001,24,
27,./img/smoo15_JasonSegel(Marshall)9_1.png,0,22,22,26,,,1.ja,1.457,None,act,2.224,None,None,None,None,None,Marschal How i met you Mother,"['lshift', 'h', 'backspace', 'lshift', 'm', 'a', 'r', 's', 'c', 'h', 'a', 'l', 'space', 'lshift', 'h', 'o', 'w', 'space', 'i', 'space', 'm', 'e', 't', 'space', 'y', 'o', 'u', 'space', 'lshift', 'm', 'o', 't', 'h', 'e', 'r', 'return']","[1.0833500938751968, 1.2833753710174278, 1.9995993508782703, 2.3162016538562966, 2.7993944392210324, 3.5158070353218136, 3.7655326917174534, 4.032291870158588, 4.265453299677574, 4.3986064211003395, 4.615168979942609, 5.265118088842428, 5.514823536355834, 6.18098081086373, 6.431177687083618, 6.730950160725115, 7.297360238734655, 7.463904850163999, 7.796919653010264, 8.163819299226816, 8.38042099273116, 8.613644011225915, 8.81348099290426, 9.063257652671382, 10.429528898863282, 10.729367131567415, 11.778988920720622, 12.02885347308893, 12.445248522746624, 12.56204207232804, 12.878515744163451, 13.644755105228796, 13.8614594470273, 14.078081990965984, 14.64438236361184, 15.294317999923805]",,,2017_Feb_24_1121,60.0113768708,famFaceFilter,001,24,
54,./img/smoo15_LisaEdelstein(DrLisaCuddy)6_3.png,0,23,23,53,,,1.ja,2.285,None,dummy,0.875,None,None,None,None,None,Robin How i met your Mother,"['lshift', 'r', 'o', 'b', 'i', 'n', 'space', 'h', 'backspace', 'lshift', 'h', 'o', 'w', 'space', 'i', 'space', 'm', 'e', 't', 'space', 'y', 'o', 'u', 'r', 'space', 'lshift', 'm', 'o', 't', 'h', 'e', 'r', 'return']","[0.8001986244489672, 0.900246067207263, 1.43324989951725, 1.8831512769611436, 2.249606006977956, 2.5829194522048056, 2.7827259601708647, 3.1160740491959587, 4.015551216526546, 4.265429883035722, 4.581938840221483, 4.915162147414776, 5.364546113302822, 5.4984158481265695, 5.7981979450451036, 6.097887979275583, 6.314609963748808, 6.547764656973413, 6.731121455065477, 7.913988428329503, 10.129797484539267, 10.546212422304052, 10.779394381481325, 11.42916000655623, 11.59591151845325, 11.895592250181835, 11.97879639101393, 12.229318534015874, 12.845440218435215, 13.061095302204194, 13.261738714541934, 13.49428297119357, 13.860757910093525]",,,2017_Feb_24_1121,60.0113768708,famFaceFilter,001,24,
53,./img/smoo15_GuentherJauch4_1.png,0,24,24,52,,,1.ja,1.186,None,None,None,host,1.54,None,None,None,Günter Jauch,"['lshift', 'g', u'\xfc', 'n', 't', 'e', 'r', 'space', 'lshift', 'j', 'a', 'z', 'u', 'backspace', 'backspace', 'u', 'c', 'h', 'return']","[0.7333963978790052, 0.8833597813081724, 1.4330622456045603, 1.7830948524770065, 2.365917109577822, 2.5827882548537673, 2.8160093486931146, 2.932553655386073, 3.265747130419186, 3.3655905596933735, 3.599074048233888, 3.765831334097129, 4.315392015438192, 5.198275765283142, 6.014291208718532, 6.247891459694074, 6.430481924116975, 7.2307844799624945]",,,2017_Feb_24_1121,60.0113768708,famFaceFilter,001,24,
25,./img/smoo15_JasonSegel(Marshall)6_1.png,0,25,25,24,,,1.ja,1.436,None,act,0.907,None,None,None,None,None,Marschal How i met Your Mother,"['lshift', 'm', 'a', 'r', 's', 'c', 'h', 'a', 'l', 'space', 'lshift', 'h', 'o', 'w', 'space', 'i', 'space', 'm', 'e', 't', 'space', 'lshift', 'y', 'o', 'u', 'r', 'space', 'lshift', 'm', 'o', 't', 'h', 'e', 'r', 'return']","[1.1664676252094068, 1.7331465134384416, 2.249650274055057, 2.549409595882935, 2.76591313195604, 3.0158225929535547, 3.1656897436068903, 3.349125452574299, 3.6489668930380503, 3.8989905502621696, 4.048654649758646, 4.315399072508626, 4.615317819968368, 4.981672467898534, 5.148415639621817, 5.448177206882065, 5.831486145206327, 6.064520868237196, 6.2979655428916885, 6.531169956383565, 6.814162962506089, 7.213975180284251, 7.3975792966084555, 7.847253243926389, 8.297173867925267, 8.596978739934457, 8.829914663981981, 9.16330862396444, 9.246713249744971, 9.529932082114101, 10.162921768206616, 10.429150704054337, 10.54606422382949, 10.812759567863395, 11.179247337800007]",,,2017_Feb_24_1121,60.0113768708,famFaceFilter,001,24,
67,./img/smoo15_GeorgeClooney4_2.png,0,26,26,66,,,1.ja,1.236,None,act,1.591,None,None,None,None,None,georg Kluney,"['g', 'e', 'o', 't', 'backspace', 'r', 'g', 'space', 'lshift', 'k', 'l', 'u', 'n', 'e', 'y', 'return']","[0.9499871850021009, 1.2833442557530361, 1.683054466788235, 2.282884263086089, 3.1990125875672675, 3.532200930185354, 4.381970981968152, 4.598529049948411, 4.814918389794002, 4.965069747911912, 5.481664288113279, 5.864718209582861, 6.164545535905745, 6.515256583845257, 7.097594148533972, 7.397492366334518]",,,2017_Feb_24_1121,60.0113768708,famFaceFilter,001,24,
8,./img/smoo15_AngelaMerkel4_1.png,0,27,27,7,,,1.ja,1.236,None,None,None,None,None,polit,1.356,None,Angela Merkel,"['lshift', 'a', 'n', 'g', 'e', 'l', 'a', 'space', 'lshift', 'm', 'e', 'r', 'k', 'e', 'l', 'return']","[0.5500983017800536, 0.7999211532796835, 1.4997002349045943, 1.9329132451903206, 2.1494889558452996, 2.7159731330921204, 3.0490742246602167, 3.215753882752324, 3.582249030535422, 3.8322088533514034, 4.2153570829405, 4.465172877369696, 4.731815614152765, 4.915253247776491, 5.19819492975148, 5.914654038360823]",,,2017_Feb_24_1121,60.0113768708,famFaceFilter,001,24,
59,./img/smoo15_JoshRadnor(Ted)1_2.png,0,28,28,58,,,1.ja,1.934,None,act,0.707,None,None,None,None,None,How i met your Mother,"['lshift', 'h', 'o', 'w', 'space', 'i', 'space', 'm', 'e', 't', 'space', 'y', 'o', 'u', 'r', 'space', 'lshift', 'm', 'o', 't', 'h', 'e', 'r', 'return']","[0.800237117558936, 1.1167069400835317, 1.4830343220610303, 2.0663130432940306, 2.19956817145885, 2.516098299855912, 2.782717619997129, 3.015677923014664, 3.28242074188438, 3.499059966171444, 3.7653203380596096, 4.165070966860185, 4.498661241704212, 4.831955440376078, 5.131747481347702, 5.281795549619346, 5.63135212502857, 5.6815173085879, 5.94798907180666, 6.281300913153245, 6.531191127594866, 6.714459070757584, 6.964264279580675, 7.48072281079294]",,,2017_Feb_24_1121,60.0113768708,famFaceFilter,001,24,
52,./img/smoo15_BastianSchweinsteiger3_1.png,0,29,29,51,,,1.ja,1.285,None,None,None,None,None,sport,0.79,None,Schweinsteiger,"['lshift', 's', 'c', 'h', 'w', 'e', 'i', 'n', 's', 't', 'e', 'i', 'g', 'e', 'r', 'return']","[2.69921932764737, 2.982271998090255, 3.382088065179232, 3.5656684440855315, 3.8318681893260873, 4.098811172368187, 4.3318901624761565, 4.581567702483881, 4.8317122922289855, 5.0482831912459005, 5.3148290537010325, 5.581436825908895, 5.881327665863864, 6.114507379610586, 6.364500563122419, 6.664298698836319]",,,2017_Feb_24_1121,60.0113768708,famFaceFilter,001,24,
20,./img/smoo15_NicoleKidman5_1.png,0,30,30,19,,,1.ja,1.635,None,act,0.707,None,None,None,None,None,Nicole Kitman,"['lshift', 'n', 'i', 'c', 'o', 'l', 'e', 'space', 'lshift', 'k', 'i', 't', 'm', 'a', 'n', 'return']","[0.7001213495295815, 0.7833761729571052, 1.0499948515462165, 1.3997968205330835, 1.6497027529949264, 1.8829469427009826, 2.0493985291141144, 2.1996249487965542, 2.499404800283628, 2.682716368970432, 2.9159711442816842, 3.28231039496859, 3.7155513127590893, 3.931983315803336, 4.1154748397802905, 5.348250055093558]",,,2017_Feb_24_1121,60.0113768708,famFaceFilter,001,24,
36,./img/smoo15_BastianSchweinsteiger6_2.png,0,31,31,35,,,1.ja,1.185,None,None,None,None,None,sport,0.824,None,Schweinsteiger,"['lshift', 's', 'c', 'h', 'w', 'e', 'i', 'n', 's', 't', 'e', 'i', 'g', 'e', 'r', 'return']","[0.6168607521358354, 0.8667984414141756, 1.2498616653856516, 1.4997441812047327, 1.9495047380205506, 2.1994093873790916, 2.3495732557566953, 2.599283514909075, 2.8160051786062468, 3.015786986827152, 3.265679446700233, 3.5490907446201163, 3.932086926424745, 4.131620454084441, 4.3986340078290596, 4.914963587121747]",,,2017_Feb_24_1121,60.0113768708,famFaceFilter,001,24,
9,./img/smoo15_EmilyDeschanel6_12.png,0,32,32,8,,,1.ja,3.285,None,dummy,1.722,None,None,None,None,None,Bones,"['lshift', 'b', 'o', 'n', 'e', 's', 'return']","[0.6002468049919116, 0.8168731982423196, 1.1833471748141164, 1.4331280046681059, 1.6832122885407443, 3.299066445844801, 3.848740040309167]",,,2017_Feb_24_1121,60.0113768708,famFaceFilter,001,24,
58,./img/smoo15_EmilyDeschanel3_1.png,0,33,33,57,,,None,None,1,None,None,None,None,None,None,1,Bones,"['lshift', 'b', 'o', 'n', 'e', 's', 'return']","[0.7501120309889302, 0.9334187880376703, 1.283324367645946, 1.5499193088171523, 1.8830640259102438, 2.1663312954433422, 3.115911736581438]",2.449459669,1.63306667231,2017_Feb_24_1121,60.0113768708,famFaceFilter,001,24,
60,./img/smoo15_LeonardoDiCaprio2_1.png,0,34,34,59,,,None,None,1,None,None,None,None,None,None,1,Leonardo di Kaprio,"['lshift', 'l', 'e', 'o', 'n', 'a', 'r', 'd', 'o', 'backspace', 'o', 'space', 'd', 'i', 'e', 'space', 'backspace', 'backspace', 'space', 'lshift', 'k', 'a', 'p', 'r', 'i', 'o', 'return']","[0.7833902870970633, 0.9833469181930923, 2.0662389440567495, 2.632468746000086, 2.9989690261982105, 3.282389947396041, 3.5155933985597585, 3.8155358834374056, 4.015396602533656, 4.731771347075664, 5.8812583782655565, 6.181154992187658, 6.314600661246914, 6.481050964556744, 6.630901434862608, 6.781024564698782, 7.480573970766272, 7.747232104793511, 8.163689705755132, 8.496912692172373, 8.630078323855741, 9.029750041780972, 10.262827107232624, 10.962658796108371, 11.262333753870735, 11.495673534799607, 12.195526074109694]",1.98294209898,1.64970596075,2017_Feb_24_1121,60.0113768708,famFaceFilter,001,24,
5,./img/smoo15_BarackObama1_3.png,0,35,35,4,,,None,None,1,None,None,None,None,None,None,4,Obama,"['lshift', 'o', 'b', 'a', 'm', 'a', 'return']","[0.7500725755517124, 0.9167580076100421, 1.5332062419147405, 1.8995993829557847, 2.2495934967173525, 2.4161859037594695, 3.28239540058712]",1.54978843224,1.94962214201,2017_Feb_24_1121,60.0113768708,famFaceFilter,001,24,
18,./img/smoo15_HughLaurie(DrHouse)4_1.png,0,36,36,17,,,None,None,1,None,None,None,None,None,None,1,Dr Haus,"['lshift', 'd', 'r', 'space', 'lshift', 'h', 'a', 'u', 's', 'return']","[0.6334115064246362, 1.0332853131785669, 1.2665561272851846, 1.5498019048309288, 1.749668397894311, 1.8663022010678105, 2.0830723019298603, 2.249459091607605, 2.5826208098242205, 3.7154849121443476]",4.38153344362,0.949820060749,2017_Feb_24_1121,60.0113768708,famFaceFilter,001,24,
62,./img/smoo15_RobertSeanLeonard(Wilson)1_1.png,0,37,37,61,,,None,None,1,None,None,None,None,None,None,1,Dr Haus ,"['lshift', 'b', 'backspace', 'lshift', 'd', 'r', 'space', 'lshift', 'h', 'a', 'u', 's', 'space', 'return']","[0.5833826526313715, 0.8166691847582115, 1.3499992461765942, 1.649681581785444, 2.1163226505332204, 2.332753370473256, 2.616060416219625, 2.8658845508225568, 2.9991178662248785, 3.5322692554573223, 4.1654773899490465, 4.398515320739534, 4.615313329106357, 5.5980905492679085]",1.54978009207,1.39979072579,2017_Feb_24_1121,60.0113768708,famFaceFilter,001,24,
71,./img/smoo15_AngelaMerkel1_1.png,0,38,38,70,,,None,None,1,None,None,None,None,None,None,5,Angela Merkel,"['lshift', 'a', 'n', 'g', 'e', 'l', 'a', 'space', 'lshift', 'm', 'e', 'r', 'k', 'e', 'l', 'return']","[0.7175192730192066, 0.933505397535555, 1.899622799597637, 2.3162459209333974, 2.532759401059593, 3.0492660486597742, 3.582434759791795, 3.7823965233019408, 3.9821587641918086, 4.082280626962529, 4.365291275760683, 4.615151978818176, 4.864998567735711, 5.01516083223396, 5.598258956624704, 6.664459728347538]",1.21649776211,2.43296601283,2017_Feb_24_1121,60.0113768708,famFaceFilter,001,24,
15,./img/smoo15_LisaEdelstein(DrLisaCuddy)1_1.png,0,39,39,14,,,None,None,1,None,None,None,None,None,None,4,Die Linke Sahra wagenknecht,"['lshift', 'd', 'i', 'e', 'space', 'lshift', 'l', 'i', 'n', 'k', 'e', 'space', 'lshift', 's', 'a', 'h', 'r', 'a', 'space', 'w', 'a', 'g', 'e', 'n', 'k', 'n', 'e', 'c', 'h', 't', 'return']","[1.0666620474930824, 1.2332159614252305, 1.6165563357899373, 1.7829421631395235, 1.9495820450174506, 2.3828062824604785, 2.532700378291338, 2.7825976498033924, 2.9990209918969413, 4.381757024430954, 4.615078841909053, 4.71517055174445, 5.114756622499044, 5.3148653013804505, 5.514912712061232, 5.864574501971219, 6.114495190125126, 6.481072135768045, 6.58069775819331, 6.814308594774047, 7.114110259023619, 7.4473354908723195, 7.680607588083149, 8.013753588279542, 8.363611372275955, 8.713583352499882, 8.96314220541808, 9.346589398163815, 9.479800259251533, 9.746373708436295, 10.645970525183657]",3.84884076395,2.36590203311,2017_Feb_24_1121,60.0113768708,famFaceFilter,001,24,
61,./img/smoo15_OmarEpps(DrEricForeman)3_1.png,0,40,40,60,,,None,None,1,None,None,None,None,None,None,1,Dr Haus,"['lshift', 'd', 'r', 'space', 'lshift', 'h', 'a', 'u', 's', 'return']","[0.41692112216423993, 0.8000780127040343, 1.0334402479475102, 1.3331937958091657, 1.5830644429197491, 1.7330608662687155, 1.9662944703686662, 2.116153280848266, 2.399364093819713, 3.0325510571010454]",1.9995804251,1.0330918853,2017_Feb_24_1121,60.0113768708,famFaceFilter,001,24,
35,./img/smoo15_KatjaBurkard1_1.png,0,41,41,34,,,None,None,2,None,None,None,None,None,None,3,Punkt 12,"['lshift', 'p', 'i', 'backspace', 'lshift', 'u', 'n', 'k', 't', 'space', 'backspace', 'backspace', 'backspace', 'backspace', 'backspace', 'u', 'n', 'k', 't', 'space', 'lshift', '1', '2', 'backspace', '1', '2', 'return']","[1.0331021501287978, 1.7497720085166293, 2.0328269243909745, 2.499391006918813, 2.832365712775754, 3.1826129187375045, 3.4491648759358213, 3.732070951784408, 4.065352319418707, 4.398464317368052, 5.098503227487527, 5.298222805179648, 5.498163076703349, 5.64814121582458, 5.848145642532472, 6.6642492993451015, 6.897579136221793, 8.030595607102441, 8.430064594646865, 8.68028424595741, 9.1466796003524, 9.346653553347096, 9.57993399073166, 10.579359801838109, 10.81270054509514, 11.129236126682372, 11.828791627492137]",6.44789781106,1.7496003934,2017_Feb_24_1121,60.0113768708,famFaceFilter,001,24,
65,./img/smoo15_UrsulavonderLeyen4_1.png,0,42,42,64,,,None,None,1,None,None,None,None,None,None,4,von der line,"['v', 'o', 'n', 'space', 'd', 'e', 'r', 'space', 'l', 'i', 'n', 'e', 'return']","[1.0164981470379644, 1.3000630966234894, 1.58310870999685, 1.7830525100553132, 1.949622462782827, 2.182906107926101, 2.415973870876769, 2.549527320645211, 3.3990660929912337, 3.6322852621751736, 3.8487259261682993, 4.065288805786622, 4.565193695726521]",1.4163838225,1.71644114516,2017_Feb_24_1121,60.0113768708,famFaceFilter,001,24,
44,./img/smoo15_GuentherJauch2_1.png,0,43,43,43,,,None,None,1,None,None,None,None,None,None,3,Günter Jauch,"['lshift', 'g', u'\xfc', 'n', 't', 'e', 'r', 'space', 'j', 'lshift', 'a', 'u', 'c', 'h', 'backspace', 'backspace', 'backspace', 'backspace', 'backspace', 'lshift', 'j', 'a', 'u', 'c', 'h', 'return']","[0.8166528251849741, 1.016323003385878, 1.683054466788235, 2.01617865422304, 2.349393942017741, 2.565956821636064, 2.765827484786314, 2.9325587878001897, 3.4655946977018175, 3.599007326842184, 4.4152370485917345, 4.665173454765863, 5.381537934478729, 5.647959977429309, 6.1812220343535955, 6.414386671632201, 6.614266316507383, 6.781038358062688, 6.96417317921896, 7.630495011773746, 8.013742040346187, 8.313730716956343, 9.013460399090036, 9.230101868807651, 9.413216160305637, 9.929782151450127]",1.23297281328,1.33311616804,2017_Feb_24_1121,60.0113768708,famFaceFilter,001,24,
1,./img/smoo15_Ice-T(OdafinFinTutuola)6_1.png,0,44,44,0,,,None,None,1,None,None,None,None,None,None,2,Hip Hop Produzent,"['lshift', 'h', 'i', 'p', 'space', 'lshift', 'h', 'o', 'p', 'space', 'lshift', 'b', 'backspace', 'lshift', 'p', 'r', 'o', 'd', 'u', 'z', 'e', 'n', 't', 'return']","[0.8328192899234637, 1.0000012831033018, 1.2996621267247974, 1.6496398809149468, 1.9662595057934595, 2.1828798043006827, 2.2827084778828066, 2.6159811845673175, 2.8658697951295835, 3.149041794215009, 3.365678773070613, 3.532237498640825, 4.18202172871861, 4.631772020705284, 4.881749806972948, 6.397873768902173, 6.880617147205157, 7.380684991311682, 7.713831953836234, 8.080170883747087, 8.347104243512149, 8.596916830181726, 8.896701493307773, 9.746306666268538]",1.69984451991,2.14927884762,2017_Feb_24_1121,60.0113768708,famFaceFilter,001,24,
38,./img/smoo15_AlysonHannigan(Lily)5_4.png,0,45,45,37,,,None,None,1,None,None,None,None,None,None,1,Lilly How i met yur Mother,"['lshift', 'l', 'i', 'l', 'l', 'y', 'space', 'lshift', 'h', 'o', 'w', 'space', 'i', 'm', 'backspace', 'space', 'm', 'e', 't', 'space', 'y', 'o', 'backspace', 'u', 'r', 'space', 'lshift', 'm', 'o', 't', 'h', 'e', 'r', 'return']","[0.7168684186808605, 0.966715007597486, 1.2832496268574687, 1.6163552092884856, 1.7830983810117687, 1.949639463906351, 2.0996763050206937, 2.466021650449875, 2.915792472094836, 3.2323582066192103, 3.998646325624577, 4.165342984839299, 4.465251788245951, 5.065118473774419, 5.681327730019802, 6.880910336394663, 7.130771681004262, 7.364066232528785, 7.664005509647723, 7.930613281855585, 8.330298472368668, 8.696847831281957, 9.11335098242489, 9.446502435812363, 9.713125605264395, 9.929778622915364, 10.22940738894522, 10.379240537351507, 10.629475265129258, 10.97910561899971, 11.195911325988163, 11.345772702675276, 11.595641425130452, 11.99544979359689]",1.51620608056,1.24990849867,2017_Feb_24_1121,60.0113768708,famFaceFilter,001,24,
24,./img/smoo15_BastianSchweinsteiger1_1.png,0,46,46,23,,,None,None,1,None,None,None,None,None,None,5,Schweinsteiger,"['lshift', 's', 'c', 'h', 'w', 'e', 'i', 'n', 's', 't', 'e', 'i', 'g', 'e', 'r', 'return']","[0.7000017001118977, 0.8332629230189923, 1.2163441104412414, 1.4330895115572275, 1.6828761153774394, 1.9658607813262279, 2.3824319369632576, 2.632687194400205, 2.849073647264049, 3.0824137489689747, 3.2990006867812554, 3.598901150013262, 3.9153539714143335, 4.082045498214939, 4.381579956124369, 4.831781579827293]",1.39974838337,1.3499283547,2017_Feb_24_1121,60.0113768708,famFaceFilter,001,24,
70,./img/smoo15_JasonSegel(Marshall)7_1.png,0,47,47,69,,,None,None,1,None,None,None,None,None,None,1,Marschal How i met your Mother,"['lshift', 'm', 'a', 'r', 's', 'c', 'h', 'a', 'l', 'space', 'lshift', 'h', 'o', 'w', 'space', 'i', 'space', 'm', 'e', 't', 'space', 'y', 'o', 'u', 'r', 'space', 'lshift', 'm', 'o', 't', 'h', 'e', 'r', 'return']","[0.7666258960471168, 0.9332580793025045, 1.216491988139751, 1.5829034134085305, 1.7330480352311497, 1.9830165189969193, 2.082613271590162, 2.316012716840305, 2.5825531261052674, 2.848918712495106, 3.0656249789490175, 3.1823575811058618, 3.4989701489139406, 3.9820343031351513, 4.115221426804965, 4.448690769127097, 4.814997300670257, 5.048231546322313, 5.281392655065247, 5.531339326068519, 5.781356888550363, 6.364460786908239, 6.697586578222399, 7.14753735515751, 7.413947529399593, 7.613864063505389, 8.280210275030186, 8.413598845976594, 8.663478474813019, 9.013368336401072, 9.27989719773359, 9.379771421496116, 9.64624799635294, 9.97961661503723]",2.26601690297,0.783113778256,2017_Feb_24_1121,60.0113768708,famFaceFilter,001,24,
57,./img/smoo15_UrsulavonderLeyen5_1.png,0,48,48,56,,,None,None,1,None,None,None,None,None,None,4,von der Line,"['v', 'o', 'n', 'space', 'd', 'e', 'r', 'space', 'lshift', 'l', 'i', 'n', 'd', 'e', 'backspace', 'backspace', 'e', 'return']","[0.8666877737223331, 1.0832824101562437, 1.6663118885007862, 1.8829453388207185, 2.0495999763907093, 2.2661246836742066, 2.5159857075077525, 2.6160119790556564, 3.3154061295781503, 3.4491308736878636, 3.682321493814925, 3.8820038615003796, 4.065443419778603, 4.265242229123032, 4.764942464027627, 5.064978615473592, 5.497969648823528, 6.51437156308657]",1.21657795609,1.9161867057,2017_Feb_24_1121,60.0113768708,famFaceFilter,001,24,
32,./img/smoo15_TomCruise1_1.png,0,49,49,31,,,None,None,1,None,None,None,None,None,None,1,Tom Cruse,"['lshift', 't', 'o', 'm', 'space', 'lshift', 'v', 'backspace', 'lshift', 'c', 'h', 'r', 'u', 's', 'e', 'backspace', 'backspace', 'backspace', 'backspace', 'backspace', 'r', 'u', 's', 'e', 'return']","[0.5667885935927188, 1.3832909748734892, 2.099647755963815, 2.3828608143667225, 2.5826936259582, 2.782592838164419, 2.8992369061670615, 3.365804196454519, 3.682382441239497, 4.282006940949032, 4.532105018186485, 4.815219919158153, 5.0484169548035425, 5.348277000270173, 5.598274033092821, 6.614267278835541, 6.848485985780826, 7.030956480009991, 7.214209667480645, 7.397297655352304, 8.180273499963732, 8.44709811669236, 8.846675847273218, 9.046788696241492, 9.463188236762107]",1.33318417253,0.933336990179,2017_Feb_24_1121,60.0113768708,famFaceFilter,001,24,
69,./img/smoo15_BritneySpears5_1.png,0,50,50,68,,,None,None,1,None,None,None,None,None,None,2,Brithney Spears,"['lshift', 'b', 'r', 'i', 't', 'h', 'n', 'e', 'y', 'space', 'lshift', 's', 'p', 'e', 'a', 'r', 's', 'return']","[1.1165340418638152, 1.4498061069962205, 2.0327409564451955, 2.499291887160325, 2.9658065701969463, 3.2652887416315934, 3.565645668995785, 3.7821241845476834, 4.415309223174518, 4.615199132878843, 4.848438510945925, 4.998263960729673, 5.464780889197755, 5.86476119355666, 6.231143107440403, 6.6642034283895555, 7.0975364088690185, 7.580787896226866]",1.83285778303,1.51643126526,2017_Feb_24_1121,60.0113768708,famFaceFilter,001,24,
55,./img/smoo15_MariskaHargitay(Liv)4_4.png,0,51,51,54,,,None,None,1,None,None,None,None,None,None,1,Penelope Chruse,"['lshift', 'p', 'e', 'n', 'e', 'l', 'o', 'p', 'e', 'space', 'lshift', 'c', 'h', 'r', 'u', 's', 'e', 'return']","[0.7501197296114697, 1.13326731764937, 1.616445026545989, 2.08287245853262, 2.4161185408165693, 2.8992891926427546, 3.149105628623147, 3.532042466882558, 3.765499972573707, 3.8655493399874103, 4.265300289564948, 4.34857371799535, 4.681832952091099, 4.8984141159371575, 5.164980828827538, 5.431347056768573, 5.648060059516865, 5.997946392570157]",4.23192002671,1.09978665194,2017_Feb_24_1121,60.0113768708,famFaceFilter,001,24,
30,./img/smoo15_KatjaBurkard4_1.png,0,52,52,29,,,None,None,1,None,None,None,None,None,None,3,Punkt 12,"['lshift', 'p', 'u', 'n', 'k', 't', 'space', '1', '2', 'return']","[0.8500128791529278, 1.2165606341868624, 1.699788063350752, 1.9661809156932577, 2.2159434613195117, 2.582781839335439, 2.832512948922158, 3.3244770310002423, 3.5654532034450312, 4.248518897390568]",2.3660021152,2.04950374362,2017_Feb_24_1121,60.0113768708,famFaceFilter,001,24,
34,./img/smoo15_EmilyDeschanel5_1.png,0,53,53,33,,,None,None,1,None,None,None,None,None,None,1,Bones,"['lshift', 'b', 'o', 'n', 'e', 's', 'return']","[0.6003648505293313, 0.7504536573424048, 1.133712875400306, 1.4002536054413213, 2.5828421452079056, 2.8997652241050673, 3.6161486295968643]",3.36563290211,0.833392837266,2017_Feb_24_1121,60.0113768708,famFaceFilter,001,24,
43,./img/smoo15_JoachimLoew1_1.png,0,54,54,42,,,None,None,1,None,None,None,None,None,None,5,Löw,"['lshift', 'l', u'\xf6', 'w', 'return']","[0.6001178530723337, 0.7834287802079416, 1.166606841958128, 2.249556928262791, 2.99911690389672]",1.14996370421,2.86590411815,2017_Feb_24_1121,60.0113768708,famFaceFilter,001,24,
19,./img/smoo15_NicoleKidman7_1.png,0,55,55,18,,,None,None,1,None,None,None,None,None,None,1,Nicole Kitman,"['lshift', 'n', 'i', 'c', 'o', 'l', 'e', 'space', 'lshift', 'k', 'i', 't', 'm', 'a', 'n', 'return']","[0.5169602247478906, 0.6668623399764328, 0.9499252752493703, 1.2665779400476822, 1.4997181983553673, 1.7331407394713096, 1.9662976781273755, 2.099709986491689, 2.449372417953782, 2.6656838092521866, 2.932492707961501, 3.5990650665080466, 3.965542250839462, 4.1820582971740805, 4.365205628590957, 5.248375831331032]",3.4818070334,0.9163705103,2017_Feb_24_1121,60.0113768708,famFaceFilter,001,24,
29,./img/smoo15_GuentherJauch3_1.png,0,56,56,28,,,None,None,1,None,None,None,None,None,None,3,Günter Jauch,"['lshift', 'g', u'\xfc', 'n', 't', 'e', 'r', 'space', 'j', 'a', 'u', 'c', 'h', 'backspace', 'backspace', 'backspace', 'backspace', 'backspace', 'lshift', 'j', 'a', 'u', 'c', 'h', 'return']","[0.6500074901177868, 0.8168241195262453, 2.6159433330094544, 2.9992795372872934, 3.2988290716648407, 3.482425168592272, 3.732340724331152, 3.865519187051177, 4.165346192598918, 4.69859894702131, 4.914926697891133, 5.248282806314819, 5.414859174560661, 6.464548647432821, 6.681054749713439, 6.8809138649294255, 7.047516216024633, 7.264007241837135, 7.830350277679827, 8.13023373978831, 8.51355582992619, 8.763525917571314, 9.030024305191546, 9.22983466246842, 9.929701315919374]",1.38293459283,1.88285135148,2017_Feb_24_1121,60.0113768708,famFaceFilter,001,24,
48,./img/smoo15_JoshRadnor(Ted)6_2.png,0,57,57,47,,,None,None,1,None,None,None,None,None,None,1,How i met your Mother,"['lshift', 'h', 'o', 'w', 'space', 'i', 'space', 'm', 'e', 't', 'space', 'y', 'o', 'u', 'r', 'space', 'lshift', 'm', 'o', 't', 'h', 'e', 'r', 'return']","[0.7669030464412572, 0.9003968318893385, 1.2501227769835168, 1.7666598982950745, 1.883193298606784, 2.19958805956594, 2.4997040842154092, 2.9327188549841594, 3.2826533044253665, 3.48259165129366, 3.749135909870347, 4.29892947452754, 4.665239855381515, 4.948435271108792, 5.365197609193274, 5.531680310870797, 5.864616844392913, 5.948110645879751, 6.214709757137825, 6.7812542402571125, 7.564160797269324, 7.747579184338065, 8.030675480305945, 8.780475396327347]",2.66568830012,0.433598903716,2017_Feb_24_1121,60.0113768708,famFaceFilter,001,24,
3,./img/smoo15_JoshRadnor(Ted)3_1.png,0,58,58,2,,,None,None,1,None,None,None,None,None,None,1,How i met your moather,"['lshift', 'h', 'o', 'w', 'space', 'i', 'space', 'm', 'e', 't', 'space', 'y', 'o', 'u', 'r', 'space', 'm', 'o', 'a', 't', 'h', 'e', 'r', 'return']","[0.7833424914861098, 0.9667727472633487, 1.266401834068347, 1.616301960486453, 1.7496100166772521, 2.0494684582645277, 2.365990567263907, 2.6494445283815367, 3.365721436268359, 3.632334020115195, 4.698359006634746, 5.897989087845417, 6.264515030115945, 6.54774990128135, 6.93080253964763, 7.130922445685428, 7.497295377844239, 7.847319323765987, 8.197019927562906, 8.596739441099999, 9.046773298998232, 9.246677964394621, 9.54654121762087, 13.728046817886934]",1.13329971602,0.683164813704,2017_Feb_24_1121,60.0113768708,famFaceFilter,001,24,
72,./img/smoo15_HughLaurie(DrHouse)2_1.png,0,59,59,71,,,None,None,1,None,None,None,None,None,None,1,Dr Haus,"['lshift', 'd', 'r', 'space', 'lshift', 'h', 'a', 'u', 's', 'return']","[0.6334147141833455, 0.866661149320862, 1.0999348504110458, 1.3998260111420677, 1.5995308331412161, 1.8163086326248958, 2.082892988190906, 2.2993981281442757, 2.532617938880321, 3.132211002549411]",1.35000983178,1.43313345786,2017_Feb_24_1121,60.0113768708,famFaceFilter,001,24,
11,./img/smoo15_LeonardoDiCaprio3_1.png,0,60,60,10,,,None,None,1,None,None,None,None,None,None,1,Leonardo di Caprio,"['lshift', 'l', 'e', 'o', 'n', 'a', 'r', 'd', 'o', 'space', 'd', 'o', 'backspace', 'i', 'space', 'lshift', 'c', 'a', 'p', 'r', 'i', 'o', 'return']","[0.7836574934381133, 0.9501620078781343, 1.3998638627008404, 1.8665604256830193, 2.4828999169512826, 2.7162291122749593, 3.015858199080867, 3.365592163572728, 3.7489492182858157, 4.032500053730473, 4.365349977754704, 4.564991286122677, 5.31506835253731, 6.547217413256476, 6.814422791000652, 6.89787681627331, 7.131015470701641, 7.480757775368147, 8.247006438935387, 8.66356925439868, 9.096851873058768, 9.563369443078955, 10.379658829148866]",1.3002193145,1.28318290547,2017_Feb_24_1121,60.0113768708,famFaceFilter,001,24,
66,./img/smoo15_NicoleKidman3_1.png,0,61,61,65,,,None,None,1,None,None,None,None,None,None,1,nicole Kitman,"['n', 'i', 'c', 'o', 'l', 'e', 'space', 'lshift', 'k', 'i', 't', 'm', 'a', 'n', 'return']","[0.8000340664020769, 1.133376060685805, 1.4167052399707245, 1.916470913161902, 2.1663114073371617, 2.3827851112500866, 2.5161047153733307, 3.3657878368831007, 3.8824433245090404, 4.0988939325552565, 5.681419151155751, 6.097871619703255, 6.2980123761763025, 6.447692835245107, 7.39738330252294]",1.61664936081,0.98335814535,2017_Feb_24_1121,60.0113768708,famFaceFilter,001,24,
56,./img/smoo15_MariskaHargitay(Liv)6_5.png,0,62,62,55,,,None,None,1,None,None,None,None,None,None,1,Penelope Chruse,"['p', 'backspace', 'lshift', 'p', 'e', 'n', 'e', 'l', 'o', 'p', 'e', 'space', 'lshift', 'c', 'h', 'r', 'u', 's', 'e', 'return']","[1.1499313058375265, 1.9496375392509435, 2.4827664741696935, 2.7159850018015277, 3.132381334562524, 3.448863988123776, 3.7820998055776727, 4.498679846708001, 4.731725796896171, 5.031592899433235, 5.231650895719213, 5.364889664311704, 5.664751634433742, 5.7813135838014205, 6.064543643327852, 6.314342757409577, 6.5810923125736736, 6.847648119082805, 7.080806340842173, 7.513819186955516]",3.01584312261,0.900060017175,2017_Feb_24_1121,60.0113768708,famFaceFilter,001,24,
31,./img/smoo15_BritneySpears1_1.png,0,63,63,30,,,None,None,1,None,None,None,None,None,None,2,Brithney Spears,"['lshift', 'b', 'r', 'i', 't', 'h', 'n', 'e', 'y', 'space', 'lshift', 's', 'p', 'e', 'a', 'r', 's', 'return']","[0.6832581594971998, 1.0499085628252942, 1.5162991055813109, 1.9994610964577078, 2.3493891303805867, 2.6659182964494903, 3.1321067503768063, 3.2989484003073812, 3.915524944979552, 4.048767883658911, 4.31529353723181, 4.431740969596831, 4.9315836290088555, 5.281577742771333, 5.597744432052423, 5.947924916622469, 6.2311434282164555, 7.047576521898009]",1.34989916409,1.3997852726,2017_Feb_24_1121,60.0113768708,famFaceFilter,001,24,
16,./img/smoo15_WillSmith4_1.png,0,64,64,15,,,None,None,1,None,None,None,None,None,None,1,Will Smith,"['lshift', 'w', 'i', 'l', 'l', 'space', 'lshift', 's', 'm', 'i', 't', 'h', 'return']","[0.48351356128296175, 0.6833495806340579, 1.1663296915639876, 1.4497172520668755, 1.5831927532872214, 1.8330617965184501, 2.0326864245389515, 2.21612213350636, 2.8160029331747864, 3.115721516462145, 3.515615532098309, 3.7822473625001294, 4.731865334420036]",1.58309908672,0.866582559221,2017_Feb_24_1121,60.0113768708,famFaceFilter,001,24,
14,./img/smoo15_BritneySpears7_1.png,0,65,65,13,,,None,None,1,None,None,None,None,None,None,2,Brithney Spears,"['lshift', 'b', 'r', 'i', 't', 'h', 'n', 'e', 'y', 'space', 'lshift', 's', 'p', 'e', 'a', 'r', 's', 'return']","[0.8001347900408291, 1.166552310051884, 1.5164094524971006, 1.7830608502299583, 2.1328304208482223, 2.549381688378162, 2.815989139810881, 3.0492551422785255, 3.5988610530239384, 3.7655776003457504, 3.9654444141851855, 4.13193160672472, 4.581758884932242, 4.831671232912413, 5.1982995027010475, 5.581382294003561, 5.864619731376479, 6.364423576901572]",2.16631686053,1.61642802542,2017_Feb_24_1121,60.0113768708,famFaceFilter,001,24,
51,./img/smoo15_LeonardoDiCaprio1_1.png,0,66,66,50,,,None,None,1,None,None,None,None,None,None,1,Leonardo di Kaprio,"['lshift', 'l', 'e', 'o', 'n', 'a', 'r', 'd', 'i', 'backspace', 'p', 'backspace', 'p', 'backspace', 'o', 'space', 'd', 'i', 'e', 'space', 'lshift', 'k', 'a', 'backspace', 'backspace', 'backspace', 'backspace', 'space', 'lshift', 'k', 'a', 'p', 'r', 'i', 'o', 'return']","[0.4001779023246854, 0.5502442548231556, 0.8832856820708912, 1.3163748728529754, 1.7494801024304252, 1.9662620720009727, 2.2495004717011398, 2.5659988432817045, 3.015711925261712, 3.3989865405628734, 3.7487907549812007, 4.5151571433107165, 5.281513266811089, 5.847778354105685, 6.5310525523982506, 6.780849741823658, 6.997500193268024, 7.114126297818984, 7.297423110814634, 7.413999495099233, 7.964016961347625, 8.130373598089136, 8.430244229160962, 8.9134152017632, 9.16333845612462, 9.346702952838314, 9.529871776242544, 10.113056510131173, 10.37922097002047, 10.546113302545564, 10.879226904374264, 11.329126677938802, 12.162011406149759, 12.428566571107694, 12.678507788920797, 13.528068374028408]",1.29986581943,1.5498423226,2017_Feb_24_1121,60.0113768708,famFaceFilter,001,24,
2,./img/smoo15_WillSmith5_1.png,0,67,67,1,,,None,None,1,None,None,None,None,None,None,1,Will Smith,"['lshift', 'w', 'i', 'l', 'l', 'space', 'lshift', 's', 'm', 'i', 't', 'h', 'return']","[0.5668052739410996, 0.7333851707217036, 1.1664580019314599, 1.4665047389826213, 1.5829544167800123, 1.866276538994498, 1.9497219033173678, 2.2162514062010814, 2.832527383838169, 3.1157173463743675, 3.798799399892232, 4.098689919071148, 4.848401300938349]",2.4663899012,1.06651994376,2017_Feb_24_1121,60.0113768708,famFaceFilter,001,24,
13,./img/smoo15_GeorgeClooney3_1.png,0,68,68,12,,,None,None,1,None,None,None,None,None,None,1,Georg Kluney,"['lshift', 'g', 'e', 'o', 'r', 'g', 'space', 'lshift', 'k', 'l', 'u', 'n', 'e', 'x', 'backspace', 'y', 'return']","[0.5001692092973826, 0.7333726604611002, 1.099975268176422, 1.3832386883987056, 1.7995625258026848, 2.166202343524674, 2.5324363797099068, 2.8158242609888475, 2.9990270866392166, 3.682200882069992, 4.08202689321115, 4.331999226288644, 4.548460099164913, 4.964877603136301, 5.83141589528077, 6.0311916087584905, 6.181259885913278]",1.53291658126,8.71329272952,2017_Feb_24_1121,60.0113768708,famFaceFilter,001,24,
63,./img/smoo15_RobertSeanLeonard(Wilson)8_1.png,0,69,69,62,,,None,None,1,None,None,None,None,None,None,1,der Freund von Dr Haus,"['d', 'e', 'r', 'space', 'lshift', 'f', 'r', 'e', 'u', 'n', 'd', 'space', 'v', 'o', 'n', 'space', 'lshift', 'd', 'r', 'space', 'lshift', 'h', 'a', 'u', 's', 'return']","[0.7169476503322585, 0.9168282575355988, 1.183358401971418, 1.4000874435150763, 1.616561788980107, 1.7498518817192235, 1.966313075371545, 2.099761631414367, 2.366272208519149, 2.6329877614361976, 2.815829714179017, 2.916075717230342, 3.282465008960571, 3.5158413583449146, 3.8490993093373618, 4.032666215655809, 4.332177256922478, 4.465382344043974, 4.732024439274937, 5.031931959578287, 5.231720183316611, 5.381650526825979, 5.631533363422022, 5.798295460924237, 6.031418718108398, 6.481357947111064]",1.44964443593,1.13302769804,2017_Feb_24_1121,60.0113768708,famFaceFilter,001,24,
10,./img/smoo15_KatjaBurkard5_3.png,0,70,70,9,,,None,None,1,None,None,None,None,None,None,3,Punkt 12,"['lshift', 'p', 'u', 'n', 'k', 't', 'space', 'lshift', '1', '2', 'backspace', '1', '2', 'return']","[0.5501938930037795, 1.1163451048469142, 1.416417824747441, 1.6663218325538764, 1.9329796458050623, 2.2828733567048403, 2.532852426075806, 2.8825055550369143, 3.332397309202861, 3.598849184314531, 4.498539667631121, 4.715127888546704, 5.098379728758118, 5.914693814574093]",1.79932803861,1.78295050331,2017_Feb_24_1121,60.0113768708,famFaceFilter,001,24,
17,./img/smoo15_GeorgeClooney11_1.png,0,71,71,16,,,None,None,1,None,None,None,None,None,None,1,Georg kluney,"['lshift', 'g', 'e', 'o', 'r', 'g', 'space', 'k', 'l', 'u', 'n', 'e', 'y', 'return']","[0.43367941847191105, 0.6669345145583065, 0.9998925400668668, 1.9660737765361773, 2.7993049427395817, 3.115836354240855, 3.3157814374035297, 3.782294195783834, 4.181974574658852, 4.482028368780448, 4.748445920869017, 4.931668634626476, 5.431532786024945, 5.78143162933975]",2.5827183257,0.549910006316,2017_Feb_24_1121,60.0113768708,famFaceFilter,001,24,
20,./img/edges5_JoshRadnor(Ted)1_2.png,0,0,0,19,,,None,None,1,None,None,None,None,None,None,1,How i met your mother,"['lshift', 'h', 'o', 'w', 'space', 'i', 'space', 'm', 'e', 't', 'space', 'y', 'o', 'u', 'r', 'space', 'm', 'o', 't', 'h', 'e', 'r', 'return']","[0.6501572924717038, 0.8666521675950207, 1.2332842866953797, 1.9327913503411764, 2.199462956957177, 2.7323907653744754, 2.999103752084011, 3.2156473851473493, 3.399062564455562, 3.632191595606855, 3.8820769984104118, 4.4984835318455225, 4.73152916125764, 5.048227697011498, 5.448112089370625, 5.581484621521668, 5.914533747391033, 6.231081839239778, 6.597709467476307, 6.830977073824215, 6.997511420424416, 7.297434979523132, 7.880321391808138]",2.08296708743,1.06658153274,2017_Feb_24_1121,60.0113768708,famFaceFilter,001,24,
22,./img/edges5_JasonSegel(Marshall)6_1.png,0,1,1,21,,,None,None,1,None,None,None,None,None,None,1,How i met your mother marschal,"['lshift', 'h', 'o', 'w', 'space', 'i', 'space', 'm', 'e', 't', 'space', 'y', 'o', 'u', 'r', 'space', 'm', 'o', 't', 'h', 'e', 'r', 'space', 'm', 'a', 'r', 's', 'c', 'h', 'a', 'l', 'return']","[0.9166566424191842, 1.116795153460771, 1.4499049059786557, 1.8162839328797418, 2.0826697281518136, 2.766065179742327, 3.032621948578708, 3.2658680629401715, 3.399034336175646, 3.5990410083140887, 3.8488616143822583, 4.248874958660053, 4.515229959444696, 4.815297546930196, 5.131656380986897, 5.314923361821457, 6.031322164557423, 6.314525920458436, 6.631122770246293, 6.880978020113616, 7.0474450037709175, 7.314121742801035, 7.4641284309791445, 7.813841224260614, 8.030382611892492, 8.430409107982996, 8.563582438287995, 8.846725888316541, 8.963453037283216, 9.246416532020703, 9.963082220320757, 11.46232085867905]",1.49968579999,3.56552409492,2017_Feb_24_1121,60.0113768708,famFaceFilter,001,24,
63,./img/edges5_LisaEdelstein(DrLisaCuddy)2_2.png,0,2,2,62,,,None,None,2,None,None,None,None,None,None,5,,['return'],[1.3331318860573447],10.0795630134,2.16612664041,2017_Feb_24_1121,60.0113768708,famFaceFilter,001,24,
15,./img/edges5_LisaEdelstein(DrLisaCuddy)6_3.png,0,3,3,14,,,None,None,1,None,None,None,None,None,None,1,Penelope chruse,"['lshift', 'p', 'e', 'n', 'e', 'l', 'o', 'p', 'e', 'space', 'c', 'h', 'r', 'u', 's', 'e', 'return']","[0.6501361212613119, 0.9999515628360314, 1.416409484574615, 1.7496299047843422, 2.449489821940915, 2.7826666166256473, 3.032316890680704, 3.7821838488689536, 3.9820942882324744, 4.115519748409497, 4.631985978243392, 4.815263865459201, 5.348466258062217, 5.548195459032286, 5.881421973984288, 6.13133335963721, 6.614402646273447]",2.28257599743,1.73296944513,2017_Feb_24_1121,60.0113768708,famFaceFilter,001,24,
44,./img/edges5_EmilyDeschanel5_1.png,0,4,4,43,,,None,None,1,None,None,None,None,None,None,1,nicole Kitman,"['n', 'i', 'c', 'o', 'l', 'e', 'space', 'lshift', 'k', 'i', 't', 'm', 'a', 'n', 'return']","[0.6667965809128873, 0.9329421150223425, 1.3164964469251572, 1.632878376847657, 1.8329639598632639, 2.016194372242353, 2.1493025850368213, 2.599155525316746, 2.732618195500436, 2.9489886095670954, 3.39889672330537, 3.7654114384195054, 3.948676494598658, 4.13193160672472, 5.36467057435857]",1.81642731972,0.866646714405,2017_Feb_24_1121,60.0113768708,famFaceFilter,001,24,
29,./img/edges5_TomCruise4_1.png,0,5,5,28,,,None,None,1,None,None,None,None,None,None,1,Tom Cruse,"['lshift', 't', 'o', 'm', 'space', 'c', 'h', 'backspace', 'backspace', 'lshift', 'c', 'h', 'backspace', 'r', 'u', 's', 'e', 'return']","[0.45027219440544286, 1.466559912440971, 2.1994879774792935, 2.64942496104959, 2.832428584855734, 3.2821570640790014, 4.3153865622480225, 5.015031238763186, 5.2981268931798695, 5.647924050527763, 6.031326976196397, 6.297918388832841, 7.147263733299042, 7.4307067880354225, 8.030548132266631, 8.297049727645572, 8.530205383197426, 9.163366363630303]",1.46659199003,0.783070473507,2017_Feb_24_1121,60.0113768708,famFaceFilter,001,24,
16,./img/edges5_BritneySpears7_1.png,0,6,6,15,,,None,None,1,None,None,None,None,None,None,2,Brithney Spears,"['lshift', 'b', 'r', 'i', 't', 'h', 'n', 's', 'backspace', 'e', 's', 'backspace', 'y', 'space', 'lshift', 's', 'p', 'e', 'a', 'r', 's', 'return']","[0.7167875831482888, 0.866538933695665, 1.3332521770253152, 1.766271438656986, 2.1162533629340032, 2.4161560715983796, 2.7161238977732864, 3.11587548890202, 3.6157017887426264, 3.798922898620731, 4.098706278642567, 5.8813539694892825, 6.647580178741919, 7.547483336492405, 7.79702518828708, 8.0139255241711, 8.53021244026695, 8.929917839663176, 9.280171140367202, 9.62978449311413, 10.013044352723227, 10.861874210288988]",1.61628271393,1.59948560374,2017_Feb_24_1121,60.0113768708,famFaceFilter,001,24,
3,./img/edges5_NicoleKidman5_1.png,0,7,7,2,,,None,None,1,None,None,None,None,None,None,1,Nicole Kitman,"['lshift', 'n', 'i', 'c', 'o', 'l', 'e', 'space', 'lshift', 'k', 'i', 't', 'm', 'a', 'n', 'return']","[0.4667767569617354, 0.6668244884185697, 0.9167557621776723, 1.2666016774655873, 1.4999000783018346, 1.6996751502274492, 1.8997138999584422, 3.1327027520328556, 3.282506709830159, 3.5989874387360032, 3.8155692441332576, 4.115208595768308, 4.465277450319263, 4.665178266404837, 4.833121781614864, 5.448325405356627]",1.55003190117,0.783561902214,2017_Feb_24_1121,60.0113768708,famFaceFilter,001,24,
28,./img/edges5_Ice-T(OdafinFinTutuola)5_1.png,0,8,8,27,,,None,None,1,None,None,None,None,None,None,2,Hip Hop Pruduzent,"['lshift', 'h', 'i', 'p', 'space', 'lshift', 'h', 'i', 'backspace', 'o', 'p', 'space', 'lshift', 'p', 'r', 'u', 'd', 'u', 'z', 'e', 'n', 't', 'return']","[1.1836445340904902, 1.4169849565714685, 1.8000087251048171, 2.250173780354089, 2.5498387940624525, 2.749514425453526, 2.8832093374021497, 3.266228294296525, 3.666118139845821, 3.982627738584597, 4.215948914510591, 4.499033662545116, 4.765574392587041, 5.515240545049892, 6.031646469011321, 6.514995151472249, 7.331289669957187, 7.6311445830087905, 8.13091923792581, 8.347600483858514, 8.514159850979922, 9.013889918044697, 10.196851840981253]",1.51654481993,1.88249432788,2017_Feb_24_1121,60.0113768708,famFaceFilter,001,24,
43,./img/edges5_BarackObama1_3.png,0,9,9,42,,,None,None,1,None,None,None,None,None,None,4,Obarma,"['lshift', 'o', 'b', 'a', 'r', 'm', 'a', 'return']","[0.8000026303625418, 1.133249995749793, 1.9994973441362163, 2.832312463972812, 3.048935007912405, 3.4990076796966605, 3.7156247704451744, 4.448425808219326]",1.46648356777,1.89959008045,2017_Feb_24_1121,60.0113768708,famFaceFilter,001,24,
66,./img/edges5_BritneySpears1_1.png,0,10,10,65,,,None,None,1,None,None,None,None,None,None,2,Brithney Spears,"['lshift', 'b', 'r', 'i', 't', 'h', 'n', 'e', 'y', 'space', 'lshift', 's', 'p', 'e', 'a', 'r', 's', 'return']","[1.349981603501874, 1.516442813192043, 1.8997360334969926, 2.1496724396711215, 2.4663565405089685, 2.715983718698226, 3.0493080703054147, 3.266132703072799, 3.8821132460889203, 4.065543181090106, 4.282078153203656, 4.432162469153809, 4.932013789515622, 5.331736831587477, 5.681609371275954, 6.014686725427055, 6.531197543113194, 6.947627557346095]",3.01592556202,5.43152540818,2017_Feb_24_1121,60.0113768708,famFaceFilter,001,24,
45,./img/edges5_WillSmith4_1.png,0,11,11,44,,,None,None,1,None,None,None,None,None,None,1,Will Smith,"['lshift', 'w', 'i', 'l', 'l', 'space', 'lshift', 's', 'm', 'i', 't', 'h', 'return']","[0.6500248120173637, 0.7499821167421032, 1.2164894219331472, 1.4828219684031865, 1.6330660307603466, 1.899623761924886, 2.116140129035557, 2.282516653883249, 2.7992196163459084, 3.082132107712823, 3.415595676068733, 3.715558369829523, 4.598485103647363]",1.43312447613,1.56636132007,2017_Feb_24_1121,60.0113768708,famFaceFilter,001,24,
35,./img/edges5_WillSmith1_1.png,0,12,12,34,,,None,None,1,None,None,None,None,None,None,1,Will Smith,"['lshift', 'w', 'i', 'l', 'l', 'space', 'lshift', 's', 'm', 'i', 't', 'h', 'return']","[0.9501324964930973, 1.3500585897218116, 1.6331305067205903, 1.78313494946633, 2.049733098397155, 2.21622702723198, 2.365598899867109, 2.9485536374222647, 3.2157048040362497, 4.381925431788659, 5.664768956333319, 6.147917795397007]",1.38321398865,1.09972955382,2017_Feb_24_1121,60.0113768708,famFaceFilter,001,24,
58,./img/edges5_HughLaurie(DrHouse)5_3.png,0,13,13,57,,,None,None,1,None,None,None,None,None,None,1,Dr Haus,"['lshift', 'd', 'r', 'space', 'lshift', 'h', 'a', 'u', 's', 'return']","[0.40013716378325626, 0.6501316303983913, 0.8499371760372014, 1.1165674025587577, 1.2664230052796484, 1.7831217976545304, 2.01619629689867, 2.1828355372244914, 2.399272351906802, 2.8159878567075793]",1.25001178852,1.31621673032,2017_Feb_24_1121,60.0113768708,famFaceFilter,001,24,
25,./img/edges5_JoachimLoew8_1.png,0,14,14,24,,,None,None,1,None,None,None,None,None,None,5,Löw,"['lshift', 'k', 'l', u'\xf6', 'backspace', 'backspace', 'backspace', 'lshift', 'l', u'\xf6', 'w', 'return']","[0.5999343692474213, 0.8002108139335178, 1.233310269544745, 1.7663301406510072, 2.299492115488647, 2.5326282037094643, 2.6993389770650538, 3.149182614843994, 3.3489644230639897, 3.6156010651047836, 4.148722301400994, 4.73195194391792]",1.58286909039,1.44975317897,2017_Feb_24_1121,60.0113768708,famFaceFilter,001,24,
69,./img/edges5_GuentherJauch2_1.png,0,15,15,68,,,None,None,1,None,None,None,None,None,None,3,Günter Jauch,"['lshift', 'g', u'\xfc', 'n', 't', 'e', 'r', 'space', 'lshift', 'j', 'a', 'u', 'c', 'h', 'return']","[0.5670160237195887, 0.7835535620406517, 1.4999828384889042, 1.8331936354206846, 2.133088645463431, 2.3329259479169195, 2.6328729236574873, 2.749453798805007, 3.0993834366072406, 3.6321290443029284, 3.8656593661280567, 4.032392273021287, 4.398605779548234, 4.548676622909625, 5.198403754874562]",1.31659717056,1.53284055737,2017_Feb_24_1121,60.0113768708,famFaceFilter,001,24,
12,./img/edges5_UrsulavonderLeyen4_1.png,0,16,16,11,,,None,None,1,None,None,None,None,None,None,4, von der line,"['space', 'v', 'o', 'n', 'space', 'd', 'e', 'r', 'e', 'space', 'backspace', 'backspace', 'backspace', 'r', 'space', 'l', 'i', 'n', 'd', 'backspace', 'e', 'return']","[0.43344461049855454, 0.7001200664262797, 1.766295496850944, 2.06623124543421, 2.282749216424236, 2.6327539157909996, 2.8491631437445903, 3.1655222985773435, 3.382502186889724, 3.8822980130171345, 4.115539315739625, 4.298631473699061, 5.181213052628664, 5.3149865546765795, 5.647919559663933, 5.881476826665676, 6.098036177749236, 6.364461428459435, 6.947560835954391, 7.180837424028141, 7.413991475700641]",1.36633796758,1.84961287158,2017_Feb_24_1121,60.0113768708,famFaceFilter,001,24,
21,./img/edges5_JoshRadnor(Ted)3_1.png,0,17,17,20,,,None,None,1,None,None,None,None,None,None,1,How i met your mother,"['lshift', 'h', 'o', 'w', 'space', 'i', 'space', 'm', 'e', 't', 'space', 'y', 'o', 'u', 'r', 'space', 'm', 'o', 't', 'h', 'e', 'r', 'return']","[0.6000424707308412, 0.783261014402342, 1.1499470238568392, 1.6330650684321881, 1.7996430405573847, 2.082778150412196, 2.3659337899252932, 2.6158512703204906, 2.8157257827815556, 2.999116583120667, 3.2489638135893983, 3.7320016641851907, 4.031919770092827, 4.3152280989434075, 4.681578897563668, 4.831796335519357, 5.1646507504065085, 5.481450972127277, 5.9144384769424505, 6.147584509217268, 6.297837553300269, 6.614280430647341, 7.280771312111028]",1.43294901171,0.850122905293,2017_Feb_24_1121,60.0113768708,famFaceFilter,001,24,
31,./img/edges5_GeorgeClooney4_2.png,0,18,18,30,,,None,None,1,None,None,None,None,None,None,1,georg Kluney,"['g', 'e', 'o', 'r', 'g', 'space', 'lshift', 'k', 'l', 'u', 'n', 'e', 's', 'backspace', 'y', 'return']","[0.5668508241215022, 0.9000831130406368, 1.28328619531203, 1.8663865651342348, 2.099532918185105, 2.3661737303127666, 2.5658038115234376, 3.1825943137337163, 3.882255029044245, 4.315419922942965, 4.598527125293003, 4.831866906221876, 5.165103686003931, 5.781219275681906, 6.497804449226351, 6.730993465474057]",1.63297557195,1.18316176633,2017_Feb_24_1121,60.0113768708,famFaceFilter,001,24,
65,./img/edges5_LisaEdelstein(DrLisaCuddy)1_1.png,0,19,19,64,,,None,None,1,None,None,None,None,None,None,1,Robin how i met your mother,"['lshift', 'r', 'o', 'b', 'i', 'n', 'space', 'h', 'i', 'backspace', 'o', 'w', 'space', 'i', 'space', 'm', 'e', 't', 'space', 'y', 'o', 'u', 'r', 'space', 'm', 'o', 't', 'h', 'e', 'r', 'return']","[0.6668148651406227, 0.8667711754605989, 1.6662984159120242, 1.9996343154525675, 2.299554987567717, 2.5823962666809166, 2.832686167917018, 3.1991283876741363, 3.5324620417832193, 4.015505987121287, 4.4485659872952965, 5.098022705160474, 6.364406255001995, 6.797698817716082, 7.097413551691716, 7.3473265412239925, 7.880510970375326, 8.097000713084526, 8.330231750976964, 8.913399804519031, 9.32995107204897, 9.596435345528334, 9.896425946793897, 10.062984030812004, 10.396237170165477, 10.679367789157368, 11.062405992606728, 11.312507598378943, 11.445601697032544, 11.74553969104727, 12.195227752505161]",10.646005169,1.0164227647,2017_Feb_24_1121,60.0113768708,famFaceFilter,001,24,
60,./img/edges5_TomCruise1_1.png,0,20,20,59,,,None,None,1,None,None,None,None,None,None,1,Tom Cruse,"['lshift', 't', 'o', 'm', 'space', 'lshift', 'c', 'r', 'u', 's', 'e', 'return']","[0.8332966044908972, 0.916747742780899, 1.366512790458728, 1.6997325691172591, 1.9161421178459932, 2.1662100421472132, 2.29923196621894, 2.8324975516779887, 3.0824336370760648, 3.415680681687263, 3.6489207013064515, 3.9820352654633098]",1.23312421951,0.849873020853,2017_Feb_24_1121,60.0113768708,famFaceFilter,001,24,
49,./img/edges5_RobertSeanLeonard(Wilson)2_6.png,0,21,21,48,,,None,None,1,None,None,None,None,None,None,1,Freund von dr Haus,"['f', 'backspace', 'lshift', 'f', 'r', 'e', 'u', 'n', 'd', 'space', 'v', 'o', 'n', 'space', 'd', 'r', 'space', 'lshift', 'h', 'a', 'u', 's', 'return']","[1.0333793005229381, 2.166174115243848, 2.4991706338632866, 2.682599927312367, 2.9157045794936494, 3.1491890303623222, 3.349007727812932, 3.5989033954456318, 3.7987894558391417, 3.9321895747189046, 4.465293168339485, 4.68190256046546, 4.931684031871555, 5.114928237615459, 5.314929777339785, 5.648136083409554, 5.881360064232467, 6.0645070748732905, 6.247727543200199, 6.464387617921602, 6.581007627731196, 6.814349012539424, 7.647238552390263]",1.23329711773,0.916647339917,2017_Feb_24_1121,60.0113768708,famFaceFilter,001,24,
8,./img/edges5_LeonardoDiCaprio3_1.png,0,22,22,7,,,None,None,1,None,None,None,None,None,None,1,Leonardo di Kaprio,"['lshift', 'l', 'e', 'o', 'n', 'a', 'r', 'd', 'o', 'space', 'd', 'i', 'space', 'lshift', 'k', 'a', 'p', 'r', 'i', 'o', 'return']","[0.8333306067379453, 1.0331861934191693, 1.4164415621662556, 1.899660009604304, 2.4992325436151077, 2.7158987130787864, 3.015677602238611, 3.365735550408317, 3.8821658533397567, 4.165129027301191, 4.415213952725935, 4.731718739825737, 5.098435222992521, 5.614763198404944, 5.814751907092614, 6.098006666365109, 6.680911042101798, 7.447190179381323, 7.713944546183484, 7.947097314752682, 8.963321839932178]",1.74952725649,0.866681037428,2017_Feb_24_1121,60.0113768708,famFaceFilter,001,24,
53,./img/edges5_KatjaBurkard4_1.png,0,23,23,52,,,None,None,1,None,None,None,None,None,None,3,Punkt 12,"['lshift', 'p', 'u', 'n', 'k', 't', 'space', '1', '2', 'return']","[0.8334043851991737, 1.283159168048769, 1.9661767456063899, 2.3158292330153927, 2.9158303236536085, 3.3323042841875576, 3.5653187983352836, 4.015373506667856, 4.281730752883959, 5.4649245968093965]",2.69945606028,1.36641174604,2017_Feb_24_1121,60.0113768708,famFaceFilter,001,24,
26,./img/edges5_NicoleKidman7_1.png,0,24,24,25,,,None,None,1,None,None,None,None,None,None,1,Nicole Kitman,"['lshift', 'n', 'i', 'c', 'o', 'l', 'e', 'space', 'lshift', 'k', 'i', 't', 'm', 'a', 'n', 'return']","[0.6335965941298127, 1.2499662383343093, 1.5664735916416248, 1.9829680818338602, 2.232854126188613, 2.466181717632935, 2.649404110615251, 2.7826637296420813, 3.599022082535157, 5.015079034374139, 5.448204793610785, 5.798119996497007, 6.214490667184691, 6.381244745289223, 6.564539633628556, 7.364113707364595]",2.66617587951,1.20000538904,2017_Feb_24_1121,60.0113768708,famFaceFilter,001,24,
10,./img/edges5_GuentherJauch4_1.png,0,25,25,9,,,None,None,1,None,None,None,None,None,None,3,Günter Jauch,"['lshift', 'g', u'\xfc', 'n', 't', 'e', 'r', 'space', 'lshift', 'j', 'a', 'u', 'c', 'h', 'return']","[0.5169114668087786, 0.7167667327139498, 1.5498009425036798, 1.8996163840793088, 2.1828490098132534, 2.3660005113169973, 2.6323814949500957, 2.715834557895505, 3.1657875802620765, 3.4323530100491553, 3.6989691224307535, 3.8485376307044135, 4.231739750647648, 4.398650688176531, 4.915138409996871]",1.26665075618,2.44927137354,2017_Feb_24_1121,60.0113768708,famFaceFilter,001,24,
72,./img/edges5_EmilyDeschanel6_12.png,0,26,26,71,,,None,None,1,None,None,None,None,None,None,1,Bones,"['lshift', 'b', 'o', 'n', 'e', 's', 'return']","[1.51640271620181, 1.6497187917912015, 1.999559895440143, 2.2495014340283888, 2.48271194226254, 3.015852425113735, 3.5323799231482553]",2.13296225975,1.44985807269,2017_Feb_24_1121,60.0113768708,famFaceFilter,001,24,
48,./img/edges5_GeorgeClooney3_1.png,0,27,27,47,,,None,None,1,None,None,None,None,None,None,1,Georg kluney,"['lshift', 'g', 'e', 'o', 't', 'backspace', 'r', 'g', 'space', 'k', 'l', 'u', 'n', 'e', 'y', 'return']","[0.5667754417800097, 0.7500212514041777, 1.0832602766176933, 1.3995806175635153, 1.749673209532375, 2.665623824155773, 3.1490058673116437, 3.931996146839083, 4.198604239822998, 4.915106011629177, 5.164948751234988, 5.447943040461723, 5.681389318995571, 5.8978088117783045, 6.514482551554465, 6.880910336394663]",1.43316393157,0.833243034912,2017_Feb_24_1121,60.0113768708,famFaceFilter,001,24,
68,./img/edges5_MariskaHargitay(Liv)4_4.png,0,28,28,67,,,None,None,2,None,None,None,None,None,None,1,,['return'],[1.0832538610993652],6.79755895942,2.21607530022,2017_Feb_24_1121,60.0113768708,famFaceFilter,001,24,
6,./img/edges5_GuentherJauch3_1.png,0,29,29,5,,,None,None,1,None,None,None,None,None,None,3,Günter Jauch,"['lshift', 'g', u'\xfc', 'n', 't', 'e', 'r', 'space', 'j', 'u', 'c', 'h', 'backspace', 'backspace', 'backspace', 'backspace', 'lshift', 'j', 'a', 'u', 'c', 'h', 'return']","[0.6165659590669748, 0.8166759210525925, 1.5329756040291613, 1.8826624144612651, 2.1494613691165796, 2.2995142490271974, 2.565935008874476, 2.699277708864429, 3.015753305355247, 3.482445056699362, 3.7821970006816628, 3.9322133121368097, 5.08158646787615, 5.281515833018602, 5.481545921799807, 5.681366543905824, 6.464373503780735, 6.714232923734926, 7.014239243020711, 7.230642376231117, 7.4306782389794535, 7.563933687919416, 8.113846260443097]",1.06675731794,1.41644412837,2017_Feb_24_1121,60.0113768708,famFaceFilter,001,24,
67,./img/edges5_LeonardoDiCaprio2_1.png,0,30,30,66,,,None,None,1,None,None,None,None,None,None,1,Leonardo di  Kaprio,"['lshift', 'l', 'e', 'o', 'n', 'a', 'r', 'd', 'o', 'space', 'd', 'i', 'e', 'space', 'lshift', 'backspace', 'backspace', 'lshift', 'space', 'space', 'lshift', 'k', 'a', 'p', 'r', 'i', 'o', 'return']","[0.6833223146804812, 0.8499544979358689, 1.3332528185774208, 1.9162027444945124, 2.2495363986035954, 2.4994291792527292, 2.7823824091619827, 3.149074834134808, 3.9321032859961633, 4.26543405312259, 4.681796383636538, 4.86494435660552, 5.0483986705767165, 5.181645137790838, 5.564709324089563, 6.014573170751646, 6.264442213982875, 6.747629546156531, 6.897511452501931, 7.647269346877692, 7.930431401909118, 8.18043228404349, 8.43034655667907, 9.246476837894079, 9.713018466107314, 10.212763288864153, 10.42940058849581, 11.379039731626108]",1.31651120262,0.433529616118,2017_Feb_24_1121,60.0113768708,famFaceFilter,001,24,
50,./img/edges5_WillSmith5_1.png,0,31,31,49,,,None,None,1,None,None,None,None,None,None,1,Will Smith,"['lshift', 'w', 'i', 'l', 'l', 'space', 'lshift', 's', 'm', 'i', 't', 'h', 'return']","[0.5335157906756649, 0.6835388384251928, 1.083410720523716, 1.3332156085707538, 1.4832040125211279, 1.7662990253866155, 1.9161693837986604, 2.116330990706956, 2.616114948125869, 2.9158405884827516, 3.3157006018718675, 3.698585474432548, 4.4652434480713055]",1.18335968507,0.517359590766,2017_Feb_24_1121,60.0113768708,famFaceFilter,001,24,
71,./img/edges5_HughLaurie(DrHouse)4_1.png,0,32,32,70,,,None,None,1,None,None,None,None,None,None,1,Dr Haus,"['lshift', 'd', 'r', 'space', 'lshift', 'h', 'a', 'u', 's', 'd', 'backspace', 'return']","[0.6000065438283855, 0.8500818459751827, 1.0665314916941497, 1.3332063060688597, 1.5662824091932634, 1.8162018142438683, 2.066268134664824, 2.216068884703418, 2.5493890662246486, 3.3156152754772847, 3.748865816545731]",1.43305839629,0.800106882536,2017_Feb_24_1121,60.0113768708,famFaceFilter,001,24,
36,./img/edges5_AngelaMerkel1_1.png,0,33,33,35,,,None,None,1,None,None,None,None,None,None,4,Angela Merkel,"['lshift', 'a', 'n', 'g', 'e', 'l', 'a', 'backspace', 'a', 'space', 'lshift', 'm', 'e', 'r', 'k', 'e', 'l', 'return']","[0.5500934901419896, 0.7168081128083941, 1.2333121942001526, 1.5996662005791222, 1.8495756615766368, 2.1829122026692858, 2.4658567716278412, 2.9992833865981083, 3.5322660476977035, 4.348625683694081, 4.598452063728473, 4.731775517163442, 5.0483175142690015, 5.414964709837477, 5.698071591411463, 5.881390537944753, 6.080980842941244, 7.1309339936187826]",1.26663471739,1.38327397375,2017_Feb_24_1121,60.0113768708,famFaceFilter,001,24,
27,./img/edges5_OmarEpps(DrEricForeman)2_2.png,0,34,34,26,,,None,None,1,None,None,None,None,None,None,1,Dr Haus Artzt,"['lshift', 'd', 'r', 'space', 'lshift', 'h', 'a', 'u', 's', 'space', 'lshift', 'a', 'r', 't', 'z', 't', 'return']","[0.8000315001945637, 0.9663753058994189, 1.1831393120182838, 1.449713402755151, 1.7996500976278185, 2.182820781531518, 2.482709376055027, 2.5078174695199777, 2.782658597227055, 2.9491137121758584, 3.632130648182283, 3.932064151334089, 4.3319122960137975, 4.781710383612335, 4.9983293990162565, 5.21498947373766, 5.914528614976007]",1.73282509597,0.983314840602,2017_Feb_24_1121,60.0113768708,famFaceFilter,001,24,
64,./img/edges5_EmilyDeschanel3_1.png,0,35,35,63,,,None,None,1,None,None,None,None,None,None,1,Bones,"['lshift', 'b', 'o', 'n', 'e', 's', 'plus', 'return']","[0.5667696678146967, 0.8166159359552694, 1.1667582481913996, 1.4332806940055889, 1.7830246025514498, 2.0996426235496983, 2.3995385959196938, 3.3157262639460896]",2.23289775171,1.19998902946,2017_Feb_24_1121,60.0113768708,famFaceFilter,001,24,
42,./img/edges5_JoachimLoew4_1.png,0,36,36,41,,,None,None,1,None,None,None,None,None,None,5,Löw,"['lshift', 'l', u'\xf6', 'h', 'backspace', 'w', 'return']","[0.5666346211528435, 0.7168767588545961, 0.9334691498570464, 1.499854528121432, 1.9662931872653644, 2.7992404667802475, 3.865401462288901]",1.00015140623,1.64977621068,2017_Feb_24_1121,60.0113768708,famFaceFilter,001,24,
55,./img/edges5_JoachimLoew1_1.png,0,37,37,54,,,None,None,1,None,None,None,None,None,None,5,Löw,"['lshift', 'l', u'\xf6', 'w', 'return']","[0.5502795401744152, 0.7516424528967036, 1.050074083198524, 1.6665877557916247, 2.149759690721112]",1.34974936174,1.54953630237,2017_Feb_24_1121,60.0113768708,famFaceFilter,001,24,
57,./img/edges5_BritneySpears5_1.png,0,38,38,56,,,None,None,2,None,None,None,None,None,None,1,Bithney Spears,"['lshift', 'b', 'i', 't', 'h', 'n', 'e', 'y', 'space', 'lshift', 's', 'p', 'e', 'a', 'r', 's', 'return']","[2.5827189672554596, 3.2992290792353742, 3.6156928070176946, 3.9321635918695392, 4.215341364921187, 4.498728604647113, 4.748526756400679, 5.164976979516723, 5.314299452660634, 5.548154078938751, 5.714895326006626, 6.231362197392627, 6.630857809338522, 7.164232137834006, 7.763952549543319, 8.363664621078897, 8.863486750831726]",1.41648422536,2.49948403194,2017_Feb_24_1121,60.0113768708,famFaceFilter,001,24,
4,./img/edges5_LeonardoDiCaprio1_1.png,0,39,39,3,,,None,None,1,None,None,None,None,None,None,1,Leonardo die Kaprio,"['lshift', 'l', 'e', 'o', 'n', 'a', 'r', 'd', 'o', 'space', 'd', 'i', 'e', 'space', 'lshift', 'k', 'a', 'p', 'r', 'o', 'backspace', 'i', 'o', 'return']","[1.1665853499707737, 1.2998119290787145, 1.6830775626540344, 2.6660514184550266, 3.2989548158248, 3.4988851432954107, 4.231911365764063, 5.09827836356726, 5.714630044320984, 5.997934523860749, 6.247853608135301, 6.397617468943281, 6.56429391927486, 6.697632128401892, 7.064106425750651, 7.197421539011884, 7.480712545962888, 7.880334222844795, 8.346898626148686, 8.59673847877093, 9.046598155345237, 9.362853378780528, 9.663081675001195, 10.162568273143734]",1.36622954532,0.650156971696,2017_Feb_24_1121,60.0113768708,famFaceFilter,001,24,
61,./img/edges5_NeilPatrickHarris(Barney)2_2.png,0,40,40,60,,,None,None,1,None,None,None,None,None,None,1,How i met your Mother,"['lshift', 'h', 'o', 'w', 'space', 'i', 'space', 'm', 'e', 't', 'space', 'y', 'o', 'u', 'r', 'space', 'lshift', 'm', 'comma', 'o', 't', 'h', 'e', 'r', 'return']","[0.40015191947532003, 0.6000318851265547, 0.8832767003450499, 1.449790709752051, 1.5996735784256089, 1.8829616983930464, 2.199571058442416, 2.432674106743434, 2.615886876447803, 2.7990624361455048, 3.049020334306988, 3.532274387871439, 3.848741002636416, 4.165401045280305, 4.531817282188058, 4.7147852998668895, 5.014967404355048, 5.098749583392419, 5.381618449235248, 6.031261537908904, 6.3146179831474, 6.530994171181192, 6.780880536311997, 6.94746139542076]",1.63292617246,0.799976968288,2017_Feb_24_1121,60.0113768708,famFaceFilter,001,24,
32,./img/edges5_Ice-T(OdafinFinTutuola)7_1.png,0,41,41,31,,,None,None,1,None,None,None,None,None,None,2,Hip Hop Produzent,"['lshift', 'h', 'i', 'p', 'space', 'lshift', 'h', 'o', 'p', 'space', 'lshift', 'p', 'r', 'o', 'd', 'u', 't', 'backspace', 'z', 'e', 'n', 't', 'return']","[0.43339649411154824, 0.5336469880257937, 1.4830323974047133, 1.7995240326918065, 2.0996458313084077, 2.3327453510746636, 2.5660597907062765, 2.9325684110781367, 3.1657506910314623, 3.4323696903966265, 3.598964663645347, 4.148765606149027, 4.831647816269651, 5.148350522110377, 5.43161394233266, 5.648029585804579, 6.03125993402864, 7.3141608774631095, 8.130549062516366, 8.297012838414048, 8.430503736878563, 8.696901400860042, 9.479643720602326]",1.39970251241,1.69967482945,2017_Feb_24_1121,60.0113768708,famFaceFilter,001,24,
14,./img/edges5_AngelaMerkel4_1.png,0,42,42,13,,,None,None,1,None,None,None,None,None,None,2,AngelaMerkel,"['lshift', 'a', 'n', 'g', 'e', 'l', 'a', 'space', 'lshift', 'comma', 'backspace', 'lshift', 'm', 'e', 'r', 'k', 'e', 'l', 'return']","[1.6495195899460668, 1.8995971375243244, 2.4328880642806325, 2.7493386402502438, 3.0159156179697675, 3.41574547842265, 3.632284299847015, 4.115251258965145, 4.465002866132636, 4.6318900662436135, 5.26464590669093, 5.6813925267551895, 5.8648093099436664, 6.197790431318936, 6.481023057051971, 7.347485325303751, 7.547303701978308, 7.947234606845996, 8.496889917082626]",1.34965505362,2.1329603351,2017_Feb_24_1121,60.0113768708,famFaceFilter,001,24,
51,./img/edges5_Ice-T(OdafinFinTutuola)6_1.png,0,43,43,50,,,None,None,1,None,None,None,None,None,None,2,Hip Hop Produzent,"['lshift', 'h', 'i', 'p', 'space', 'lshift', 'h', 'o', 'p', 'space', 'lshift', 'p', 'r', 'o', 'd', 'u', 't', 'backspace', 'z', 'e', 'n', 't', 'return']","[0.5666705480552992, 0.7334993669483083, 1.0831258715079457, 1.499831432254723, 1.799597490376982, 2.032809923266541, 2.1662312133566957, 3.0489183275640244, 3.3322680365081396, 3.615520229572212, 3.8153963459126317, 4.765094191036042, 5.298235636215395, 5.598232652999286, 5.914561975670949, 6.131335925843814, 6.564330487729421, 8.5136164565738, 9.179920646452956, 9.36329957808266, 9.512904013259686, 9.846117697175032, 10.94601854533903]",1.93298285356,0.999961827665,2017_Feb_24_1121,60.0113768708,famFaceFilter,001,24,
52,./img/edges5_BarackObama4_1.png,0,44,44,51,,,None,None,1,None,None,None,None,None,None,4,Obarma,"['lshift', 'o', 'b', 'a', 'r', 'm', 'a', 'return']","[0.799991723981293, 1.1331043634827438, 2.2662132178274987, 2.499417310543322, 2.7826316520504406, 3.199069044128919, 3.465766312818232, 4.581786792436105]",1.3163915532,3.46560207555,2017_Feb_24_1121,60.0113768708,famFaceFilter,001,24,
38,./img/edges5_GeorgeClooney11_1.png,0,45,45,37,,,None,None,1,None,None,None,None,None,None,1,Georg Kluney,"['lshift', 'g', 'e', 'o', 't', 'backspace', 'r', 'g', 'space', 'lshift', 'k', 'l', 'u', 'n', 'e', 'x', 'backspace', 'y', 'return']","[0.5668440878271213, 0.7000806109881523, 1.0666976536203947, 1.4998028831978445, 1.8996439708080288, 2.366053439342977, 2.648975233211786, 3.7823480861388816, 3.9988760011819977, 4.131874508610963, 4.348357194249729, 4.681786439582538, 4.948422760847279, 5.181637439169208, 5.431521558868553, 5.948072152768873, 6.64761129400722, 6.81419407777048, 7.030910288278392]",1.38303852423,0.966600169819,2017_Feb_24_1121,60.0113768708,famFaceFilter,001,24,
18,./img/edges5_JoshRadnor(Ted)6_2.png,0,46,46,17,,,None,None,1,None,None,None,None,None,None,1,How i meth your Mother,"['lshift', 'h', 'o', 'w', 'space', 'i', 'space', 'm', 'e', 't', 'h', 'space', 'y', 'o', 'u', 'r', 'space', 'lshift', 'm', 'o', 't', 'h', 'e', 'r', 'return']","[0.3835100648257139, 0.45024428690067, 1.2163069004354838, 1.7830807383370484, 1.9662579019141049, 2.2662263696411173, 2.5160591651938375, 2.7493075249867616, 2.915817813393005, 3.1324057135325347, 3.415619092711495, 3.6322069928510246, 4.331900427306209, 4.598394644838663, 4.8650842149063465, 5.19829533261418, 5.331540837501052, 5.631238570353162, 5.681394130634544, 5.931374803885774, 6.231181921326424, 6.464477114403053, 6.6477245279065755, 6.897618270882958, 7.330587812247359]",2.28282331566,0.899750468413,2017_Feb_24_1121,60.0113768708,famFaceFilter,001,24,
56,./img/edges5_NeilPatrickHarris(Barney)1_1.png,0,47,47,55,,,None,None,1,None,None,None,None,None,None,1,Batney,"['lshift', 'b', 'a', 't', 'n', 'e', 'y', 'return']","[0.5835863453394268, 0.7834185153787985, 1.1000137612873004, 1.3166167378949467, 1.6665242421595394, 2.066286739669522, 2.665756304610113, 3.1824435490525502]",2.83260501161,0.68313851008,2017_Feb_24_1121,60.0113768708,famFaceFilter,001,24,
46,./img/edges5_TomCruise5_1.png,0,48,48,45,,,None,None,1,None,None,None,None,None,None,1,Tom Cruse,"['lshift', 't', 'o', 'comma', 'backspace', 'o', 'm', 'space', 'lshift', 'c', 'r', 'u', 's', 'e', 'return']","[0.7001806930747989, 0.8832847197427327, 1.3998696366661534, 1.6830079542796739, 2.1827646457459196, 3.132345086883106, 3.4489477106380946, 3.8154457454038493, 4.048943668861284, 4.198612900772787, 5.531532753947431, 6.1811209899397, 6.547736107916535, 6.79756280872607, 7.164045125472512]",2.11613756283,1.36627285007,2017_Feb_24_1121,60.0113768708,famFaceFilter,001,24,
33,./img/edges5_BarackObama2_1.png,0,49,49,32,,,None,None,1,None,None,None,None,None,None,4,Obarma,"['lshift', 'o', 'b', 'a', 'r', 'n', 'm', 'a', 'plus', 'backspace', 'backspace', 'backspace', 'm', 'a', 'return']","[0.5167857226488195, 0.7833864377871578, 1.5164922126841702, 1.8327945901783096, 2.0994976328347548, 2.4661682450450826, 3.3489916890175664, 3.4990035096097927, 3.7155782579366132, 4.348557679199075, 4.598594167459851, 4.781764594743436, 5.614812597897071, 5.81460916181004, 6.3311427545868355]",1.13332056645,2.31626741292,2017_Feb_24_1121,60.0113768708,famFaceFilter,001,24,
19,./img/edges5_HughLaurie(DrHouse)2_1.png,0,50,50,18,,,None,None,1,None,None,None,None,None,None,1,Dr Haus,"['lshift', 'd', 'r', 'space', 'lshift', 'a', 'backspace', 'lshift', 'h', 'a', 'u', 's', 'return']","[0.4671061938297498, 0.616874866276703, 0.8502839348038833, 1.1168856122694706, 1.4164482984606366, 1.5665432000159853, 2.1164493570204286, 2.5494670147727447, 2.7162143565828956, 2.9666110762000244, 3.116058972727842, 3.3659709999319603, 3.9822742435226246]",1.28330287566,1.15011895975,2017_Feb_24_1121,60.0113768708,famFaceFilter,001,24,
62,./img/edges5_AlysonHannigan(Lily)5_4.png,0,51,51,61,,,None,None,1,None,None,None,None,None,None,1,Lilly How i met your mother,"['lshift', 'l', 'i', 'l', 'l', 'y', 'space', 'lshift', 'h', 'o', 'w', 'space', 'i', 'm', 'backspace', 'space', 'm', 'e', 't', 'space', 'y', 'o', 'u', 'r', 'space', 'm', 'o', 't', 'h', 'e', 'r', 'return']","[0.500205777751944, 0.6501348381571006, 0.9167798203716302, 1.2165250280604596, 1.3832078939103667, 1.5996764654091749, 1.7495343135606163, 2.249043045241706, 2.38280981099615, 2.732521321173408, 3.0824378071629326, 3.315765077831202, 3.5990015528759614, 3.9153642362434766, 4.465176085129315, 4.865065609902558, 5.148194945790237, 5.431406721089843, 5.6147192521048055, 5.914293807004469, 6.547859606645034, 6.76426723071927, 7.080538172173874, 7.414076160543118, 7.530586464989028, 7.8636102495602245, 8.130337991961824, 8.463512541216005, 8.713498667657404, 8.913358103650353, 9.17994213844031, 9.596395890091117]",1.38286241825,0.900009334579,2017_Feb_24_1121,60.0113768708,famFaceFilter,001,24,
9,./img/edges5_RobertSeanLeonard(Wilson)8_1.png,0,52,52,8,,,None,None,1,None,None,None,None,None,None,1,Freund von Dr Haus,"['lshift', 'f', 'r', 'e', 'u', 'n', 'd', 'space', 'v', 'o', 'n', 'space', 'lshift', 'd', 'r', 'space', 'lshift', 'lshift', 'h', 'a', 'u', 's', 'return']","[0.5667074372859133, 0.7500151566619024, 0.9996449010577635, 1.2331107469235576, 1.4497320077589393, 1.6995407451177016, 2.0160413621297266, 2.1661125262671703, 2.5826618691417025, 2.749231821869216, 3.049032844566682, 3.2656508976433543, 3.515510638372689, 3.915430316083075, 4.148573782150379, 4.448510493060894, 4.681642731970896, 5.531308210805037, 5.981184246950761, 6.214372942422415, 6.347787496219098, 6.5643176566936745, 7.030835868265058]",1.64966041057,1.36628247335,2017_Feb_24_1121,60.0113768708,famFaceFilter,001,24,
37,./img/edges5_JasonSegel(Marshall)9_1.png,0,53,53,36,,,None,None,1,None,None,None,None,None,None,1,Marschal,"['lshift', 'm', 'a', 'r', 's', 'c', 'h', 'a', 'l', 'return']","[0.383616883205832, 0.6501973894610273, 0.8999490287060325, 1.1998267168482926, 1.3997685922522578, 1.6664058758451574, 1.7495728066705851, 2.049599014062551, 2.3828130187548595, 2.9490617464771276]",1.48303432206,0.983387335958,2017_Feb_24_1121,60.0113768708,famFaceFilter,001,24,
7,./img/edges5_AngelaMerkel3_1.png,0,54,54,6,,,None,None,1,None,None,None,None,None,None,4,Merkel,"['lshift', 'm', 'e', 'r', 'k', 'e', 'l', 'return']","[0.6501797467863071, 0.8334592378814705, 1.233238094963781, 1.59952249296839, 2.1496368335447187, 2.4158779588779, 2.682734011646062, 3.482363579615594]",1.46641460095,1.98260015186,2017_Feb_24_1121,60.0113768708,famFaceFilter,001,24,
40,./img/edges5_NicoleKidman3_1.png,0,55,55,39,,,None,None,1,None,None,None,None,None,None,1,Nicole Kitman,"['lshift', 'n', 'i', 'c', 'o', 'l', 'e', 'space', 'lshift', 'k', 'i', 't', 'm', 'a', 'n', 'return']","[0.41693427397603955, 0.7334621569416413, 0.9999974337924868, 1.333289707808035, 1.6164925013817992, 1.8497524091071682, 1.9995698394932333, 2.1494992206744428, 2.5160681469187693, 2.7327218061218446, 2.9658514788243338, 3.3157525675705983, 3.6822278272466065, 3.915476187038621, 4.09865367139264, 4.71509324474755]",3.44891050063,2.61565463468,2017_Feb_24_1121,60.0113768708,famFaceFilter,001,24,
17,./img/edges5_NeilPatrickHarris(Barney)3_7.png,0,56,56,16,,,None,None,1,None,None,None,None,None,None,1,Barney,"['lshift', 'b', 'a', 'r', 'n', 'e', 'y', 'return']","[0.5337659958922814, 0.750469375362627, 1.083731496441942, 1.6168706961889256, 2.266466630803734, 2.4831193276786507, 2.9494405828363597, 3.749235991956084]",1.23330257092,0.783082983769,2017_Feb_24_1121,60.0113768708,famFaceFilter,001,24,
30,./img/edges5_MariskaHargitay(Liv)8_8.png,0,57,57,29,,,None,None,2,None,None,None,None,None,None,1,,['return'],[0.9499397101662908],9.69635640257,0.949994562849,2017_Feb_24_1121,60.0113768708,famFaceFilter,001,24,
2,./img/edges5_OmarEpps(DrEricForeman)1_5.png,0,58,58,1,,,None,None,1,None,None,None,None,None,None,1,Dr Haus Arzt,"['lshift', 'd', 'r', 'space', 'lshift', 'h', 'a', 'u', 's', 'space', 'lshift', 'a', 'r', 'z', 't', 'return']","[0.5668780900741694, 0.8001399224558554, 1.0999685318820411, 1.6160293009552333, 1.8328693309676964, 2.1829199012909157, 2.416114691504845, 2.6159128592971683, 2.7992982064452008, 2.9323913427715524, 3.2324316643043858, 3.532323145810551, 4.065087358510027, 5.081670831941665, 5.2978814996022265, 6.081190951167628]",1.53300992705,0.600076152204,2017_Feb_24_1121,60.0113768708,famFaceFilter,001,24,
59,./img/edges5_BastianSchweinsteiger3_1.png,0,59,59,58,,,None,None,1,None,None,None,None,None,None,5,Schweinsteiger,"['lshift', 's', 'c', 'h', 'w', 'e', 'i', 'n', 's', 't', 'e', 'i', 'g', 'e', 'r', 'return']","[0.5335305463677287, 0.7667189210642391, 1.1165253809131173, 1.3165320530524696, 1.6495452520193794, 1.8992612851370723, 2.149431536956399, 2.399301542514877, 2.5827282697573537, 2.7826691828331604, 2.999192286237303, 3.315675260574608, 3.64885205525934, 3.8155589793041145, 4.115223993012478, 4.448599989542345]",1.34992193918,1.23321018746,2017_Feb_24_1121,60.0113768708,famFaceFilter,001,24,
1,./img/edges5_BastianSchweinsteiger6_2.png,0,60,60,0,,,None,None,1,None,None,None,None,None,None,5,Schweinsteiger,"['lshift', 's', 'c', 'h', 'w', 'e', 'i', 'n', 's', 't', 'e', 'i', 'g', 'e', 'r', 'return']","[0.5001907012838274, 0.6170471229452232, 1.000037210006667, 1.1333093392950104, 1.516412339479757, 1.766366067553463, 1.9662639966563802, 2.1995453963691034, 2.3995270479863393, 2.59957542099437, 2.7993113582588194, 3.0660561017839427, 3.382443805672665, 3.5656976346945157, 3.832404205885723, 4.048709181665799]",1.44995943789,1.033239763,2017_Feb_24_1121,60.0113768708,famFaceFilter,001,24,
13,./img/edges5_MariskaHargitay(Liv)6_5.png,0,61,61,12,,,None,None,2,None,None,None,None,None,None,1,,['return'],[0.4500046672892495],3.01580366717,1.24956526844,2017_Feb_24_1121,60.0113768708,famFaceFilter,001,24,
70,./img/edges5_BastianSchweinsteiger1_1.png,0,62,62,69,,,None,None,1,None,None,None,None,None,None,5,Schweinsteiger,"['lshift', 's', 'c', 'h', 'w', 'i', 'backspace', 'e', 'i', 'n', 's', 't', 'e', 'i', 'g', 'e', 'r', 'return']","[0.5667972545434168, 0.7500982376250249, 1.0997038917503232, 1.2665471455593433, 1.5327327766590315, 1.9493789938605914, 2.7492026312611415, 3.0490713376775602, 3.632184217761278, 3.91553136049788, 4.148801853828445, 4.348470107373942, 4.531783600716153, 4.8149459765236315, 5.1316114723586, 5.281526418623798, 5.564546049147793, 5.947992921117475]",1.13306137951,1.99965741132,2017_Feb_24_1121,60.0113768708,famFaceFilter,001,24,
23,./img/edges5_UrsulavonderLeyen1_1.png,0,63,63,22,,,None,None,1,None,None,None,None,None,None,4,von der Line,"['v', 'o', 'n', 'space', 'd', 'e', 'r', 'space', 'lshift', 'l', 'i', 'n', 'd', 'backspace', 'e', 'return']","[0.7500844442602101, 0.9331939241192231, 1.21637715036195, 1.3996418857650497, 1.5661678921915154, 1.7830197909115668, 2.0495133668928247, 2.166105789973699, 2.5326692630269463, 2.6993030501616886, 2.915819096496307, 3.1490174152459076, 3.465692855133966, 4.031816801023524, 4.548467156235347, 5.131584847957129]",1.28323615427,1.89949063992,2017_Feb_24_1121,60.0113768708,famFaceFilter,001,24,
11,./img/edges5_RobertSeanLeonard(Wilson)1_1.png,0,64,64,10,,,None,None,1,None,None,None,None,None,None,1,Freund von Dr Haus,"['lshift', 'f', 'r', 'e', 'u', 'n', 'd', 'space', 'v', 'o', 'n', 'space', 'lshift', 'd', 'r', 'space', 'lshift', 'h', 'a', 'u', 's', 'return']","[0.3835139141365289, 0.7334210976250688, 0.9499820525879841, 1.1663101242338598, 1.3830651486268835, 1.6162653920318917, 1.8162983677957527, 1.9161421178459932, 2.2827553111674206, 2.465948513540752, 2.7657870670209377, 3.1157019491311075, 3.3322333927089858, 3.4823459369399643, 3.7154717603316385, 4.015685942412347, 4.248642396119067, 4.4985961241927725, 4.781688250074694, 4.981678883417771, 5.39827858811168, 6.031238762819157]",1.53312797259,0.866437568506,2017_Feb_24_1121,60.0113768708,famFaceFilter,001,24,
5,./img/edges5_AlysonHannigan(Lily)1_1.png,0,65,65,4,,,None,None,2,None,None,None,None,None,None,1,Lilly,"['lshift', 'l', 'i', 'l', 'l', 'y', 'return']","[0.5168335182606825, 0.7001248780652531, 0.9499916758650215, 1.2328983932657138, 1.3664813544182834, 1.6163587378241573, 2.266220595674895]",2.68265445922,2.39906160213,2017_Feb_24_1121,60.0113768708,famFaceFilter,001,24,
24,./img/edges5_JasonSegel(Marshall)7_1.png,0,66,66,23,,,None,None,1,None,None,None,None,None,None,1,Marschal,"['lshift', 'm', 'a', 'r', 's', 'c', 'h', 'a', 'l', 'return']","[0.4502211910339611, 0.6668097327255964, 0.9000324304452079, 1.6831208674029767, 2.0494588349865808, 2.349087921791579, 2.4994448972729515, 2.7159487541221097, 2.982611058236216, 3.615609084501557]",1.44972142215,1.14983250685,2017_Feb_24_1121,60.0113768708,famFaceFilter,001,24,
34,./img/edges5_KatjaBurkard1_1.png,0,67,67,33,,,None,None,1,None,None,None,None,None,None,1,Ex von Aschton Kutscher,"['lshift', 'e', 'x', 'space', 'v', 'o', 'n', 'space', 'lshift', 'a', 's', 'c', 'h', 't', 'o', 'n', 'space', 'lshift', 'k', 'u', 't', 's', 'c', 'h', 'e', 'r', 'return']","[0.9167451765724763, 5.498085769706449, 6.214483610114257, 6.381112264834883, 6.7142832855533925, 6.964354096837269, 7.414046969934134, 7.61391057601395, 8.33021474985344, 8.48042031910154, 8.946830108412541, 9.23003995905583, 9.379895882551864, 9.613153865621825, 10.079615299856414, 10.379540783610537, 10.57951890669301, 10.745990701989285, 11.0291957409936, 11.379084961030458, 11.713510857141955, 12.312065889939731, 12.578703815083827, 12.728493017189066, 12.928530163040705, 13.17830714358297, 14.111420873722636]",8.68012578265,1.38327301142,2017_Feb_24_1121,60.0113768708,famFaceFilter,001,24,
41,./img/edges5_OmarEpps(DrEricForeman)3_1.png,0,68,68,40,,,None,None,1,None,None,None,None,None,None,1,Arzt dr Haus,"['lshift', 'a', 'r', 'z', 't', 'space', 'd', 'r', 'space', 'lshift', 'h', 'a', 'u', 's', 'return']","[0.8167715122754089, 1.0500051163762691, 1.8497902606659409, 3.449010582718074, 3.6322111629378924, 3.9154595066911497, 4.415260144458443, 4.64857939572903, 4.898386208431475, 5.081637150470669, 5.764889536000737, 6.048014381026405, 6.164673846273217, 6.397659169812869, 6.81422166450011]",1.31656445142,0.883265152413,2017_Feb_24_1121,60.0113768708,famFaceFilter,001,24,
47,./img/edges5_UrsulavonderLeyen5_1.png,0,69,69,46,,,None,None,1,None,None,None,None,None,None,4,von der line,"['v', 'o', 'n', 'space', 'd', 'e', 'r', 'space', 'l', 'i', 'n', 'd', 'backspace', 'e', 'return']","[0.5667353447906862, 1.0833574717216834, 1.5663956430935286, 1.782122259892276, 1.89910538804088, 2.1494783702401037, 2.399191837151193, 2.5327770437361323, 2.865208034410898, 3.0982684195150796, 3.332294340133558, 3.532308069343344, 4.131890868183291, 4.315230985927883, 4.548448551231559]",1.31669276179,1.56625578479,2017_Feb_24_1121,60.0113768708,famFaceFilter,001,24,
54,./img/edges5_KatjaBurkard5_3.png,0,70,70,53,,,None,None,1,None,None,None,None,None,None,3,Punkt 12,"['lshift', 'p', 'i', 'backspace', 'u', 'n', 'k', 't', 'space', '1', '2', 'return']","[0.9999647146487405, 1.1497109327810904, 1.4498709037316075, 1.94969014650178, 2.5826461511223897, 2.865938761952748, 3.1321577537473786, 3.432408825058701, 3.6822820383767976, 4.098784547967625, 4.365065770291039, 5.031700680141512]",1.59944422364,1.21654331229,2017_Feb_24_1121,60.0113768708,famFaceFilter,001,24,
39,./img/edges5_AlysonHannigan(Lily)8_3.png,0,71,71,38,,,None,None,1,None,None,None,None,None,None,1,Lilly,"['lshift', 'l', 'i', 'l', 'l', 'y', 'return']","[0.6668523959233426, 0.866821537279975, 1.11673099827658, 1.5498676638944744, 1.699748287136572, 2.332906701361935, 2.965787965193158]",1.89924300091,0.900004202164,2017_Feb_24_1121,60.0113768708,famFaceFilter,001,24,
72,./img/gray_WillSmith4_1.png,0,0,0,71,,,None,None,1,None,None,None,None,None,None,1,Will Smith,"['lshift', 'w', 'i', 'l', 'l', 'space', 'lshift', 's', 'm', 'i', 't', 'h', 'return']","[0.9159053852181387, 1.133281431789328, 1.5830105525656109, 1.8662839168409846, 2.0327553913612064, 2.332852169455691, 2.5327202663975186, 2.6826098713654574, 3.215713464986038, 3.4824104128992985, 3.8653703470254186, 4.148626710176359, 4.898338412819612]",1.58299483455,2.23286342869,2017_Feb_24_1121,60.0113768708,famFaceFilter,001,24,
38,./img/gray_MariskaHargitay(Liv)4_4.png,0,1,1,37,,,None,None,1,None,None,None,None,None,None,1,Penelope Chruse,"['lshift', 'p', 'e', 'n', 'e', 'l', 'o', 'p', 'e', 'space', 'lshift', 'c', 'h', 'r', 'u', 's', 'e', 'return']","[0.7333941524475449, 0.9333822195840185, 1.399801632172057, 1.733131436970325, 2.2328127460959877, 2.5324803260109547, 2.7659609275688126, 3.3656697913447715, 3.582140287498987, 3.7319641334033804, 4.048582475177682, 4.148726471487862, 4.481884340393663, 4.698632307717162, 5.1316557394357005, 5.3649002499169, 5.598117815221485, 5.94815908304281]",3.61547179241,0.966834015464,2017_Feb_24_1121,60.0113768708,famFaceFilter,001,24,
37,./img/gray_TomCruise1_1.png,0,2,2,36,,,None,None,1,None,None,None,None,None,None,1,Tom Chruse,"['lshift', 't', 'o', 'm', 'space', 'lshift', 'c', 'h', 'r', 'u', 's', 'e', 'return']","[0.6000735859952329, 0.7831830658542458, 1.3666115894411632, 1.5998153613809336, 1.8329684507261845, 2.0161295755078754, 2.3992582377659346, 2.715793819354076, 2.9492461926301985, 3.1987768172675715, 3.4655350333814567, 3.698676574793353, 3.9985391864674966]",1.26651089788,0.866473816184,2017_Feb_24_1121,60.0113768708,famFaceFilter,001,24,
19,./img/gray_JasonSegel(Marshall)9_1.png,0,3,3,18,,,None,None,1,None,None,None,None,None,None,1,Marschal,"['lshift', 'm', 'a', 'r', 's', 'c', 'h', 'a', 'l', 'return']","[0.6500889672006451, 0.7512308973928157, 1.0333667902614252, 1.383177740973224, 1.5829050172878851, 1.8663082958100858, 1.9495765918263714, 2.1829317699994135, 2.499157482049668, 3.2322526713414845]",1.23311716244,0.750047234254,2017_Feb_24_1121,60.0113768708,famFaceFilter,001,24,
46,./img/gray_GuentherJauch3_1.png,0,4,4,45,,,None,None,1,None,None,None,None,None,None,3,günter Jauch,"['g', u'\xfc', 'n', 't', 'e', 'r', 'space', 'lshift', 'j', 'a', 'z', 'u', 'backspace', 'backspace', 'u', 'c', 'h', 'return']","[0.4843395592733941, 1.2500550932645638, 1.6332626663988776, 1.9831307152244335, 2.1662469313778274, 2.4328563074650447, 2.532786025461064, 2.8327763059514837, 2.849205165390231, 3.5825479936911506, 4.665336088157346, 5.231724032628335, 6.164647221871746, 6.847618607697768, 7.047734022873556, 7.181116499077689, 7.913306458726765]",1.1165375704,1.46636905077,2017_Feb_24_1121,60.0113768708,famFaceFilter,001,24,
56,./img/gray_GuentherJauch2_1.png,0,5,5,55,,,None,None,1,None,None,None,None,None,None,3,Günter Jauch,"['lshift', 'g', u'\xfc', 'n', 't', 'e', 'r', 'space', 'lshift', 'j', 'a', 'u', 'c', 'h', 'return']","[0.45014067627926124, 0.7002868699037208, 1.3665862481439035, 1.7665107374932632, 2.0659749454762277, 2.282784501776405, 2.5328630116819113, 2.6493980158729755, 3.06576547880195, 3.182491344664413, 3.4324845281762464, 3.598957606575823, 4.332000188616803, 4.465384268700291, 5.081671794269823]",1.15068256304,1.49967168585,2017_Feb_24_1121,60.0113768708,famFaceFilter,001,24,
4,./img/gray_AngelaMerkel1_1.png,0,6,6,3,,,None,None,1,None,None,None,None,None,None,4, AngelaMerkel,"['space', 'lshift', 'a', 'n', 'g', 'e', 'l', 'a', 'space', 'lshift', 'comma', 'backspace', 'lshift', 'm', 'e', 'r', 'k', 'e', 'l', 'return']","[0.3836213740696621, 0.6502220892070909, 0.816776003139239, 1.2998850659887466, 1.5830307614487538, 1.7831003056680856, 2.0996381326867777, 2.332756899008018, 2.8493902530954074, 3.1989471492806842, 3.3825230373249724, 4.015464607028662, 4.398512754532021, 4.715117302942417, 5.481479200409012, 5.7647448660618466, 6.047979095675146, 6.247836286236634, 6.747444779228317, 7.463999799836529]",1.79968859074,2.64935342802,2017_Feb_24_1121,60.0113768708,famFaceFilter,001,24,
55,./img/gray_Ice-T(OdafinFinTutuola)6_1.png,0,7,7,54,,,None,None,1,None,None,None,None,None,None,2,Hip Hop Produzent,"['lshift', 'h', 'i', 'p', 'space', 'lshift', 'h', 'o', 'p', 'space', 'lshift', 'p', 'r', 'o', 'd', 'u', 'z', 'e', 'n', 't', 'return']","[0.5501717594652291, 0.8167310945100326, 1.1999171756579017, 1.5165133838936526, 1.7997710301497136, 1.9996349570046732, 2.0828779117227896, 2.4492954317338445, 2.6992767465362704, 2.949118203038779, 3.1656996876599806, 3.382306834355404, 3.865508601445981, 4.21536927242596, 4.698538320371881, 4.948442007403173, 5.448295252420394, 5.631443546164519, 5.814627125260813, 6.147897265737811, 6.897500546120682]",1.28320279357,1.53303879689,2017_Feb_24_1121,60.0113768708,famFaceFilter,001,24,
18,./img/gray_JasonSegel(Marshall)7_1.png,0,8,8,17,,,None,None,1,None,None,None,None,None,None,1,Marschal,"['lshift', 'm', 'a', 'r', 's', 'c', 'h', 'a', 'l', 'return']","[0.4666818072901151, 0.6168155227314855, 0.8832997962108493, 1.3508877954709533, 1.8495910588208062, 2.13288431120327, 2.2829221146448617, 2.4993454567384106, 2.7327474681960666, 3.415699607467104]",1.13320220014,0.68321389242,2017_Feb_24_1121,60.0113768708,famFaceFilter,001,24,
48,./img/gray_LeonardoDiCaprio2_1.png,0,9,9,47,,,None,None,1,None,None,None,None,None,None,1,Leonardo di Kaprio,"['lshift', 'l', 'e', 'o', 'n', 'a', 'r', 'd', 'u', 'backspace', 'o', 'space', 'd', 'i', 'e', 'backspace', 'space', 'lshift', 'k', 'a', 'p', 'r', 'i', 'o', 'return']","[1.3664297094956055, 1.5831212202574534, 2.0330062381299285, 2.7160478738815073, 3.4990156990943433, 3.8988211805772153, 4.265384332855319, 4.631775870017009, 4.881678915495286, 5.581423994873148, 6.281264023922631, 6.547619345482417, 6.747759139628215, 6.897523641987391, 7.047531292492749, 7.4973752510477425, 7.913960841600783, 8.130197812885854, 8.330269923312699, 8.54683151982681, 8.863430615046127, 9.263234492649644, 9.596420910612323, 9.813012660063578, 10.39618231748409]",1.79906788934,0.716464882576,2017_Feb_24_1121,60.0113768708,famFaceFilter,001,24,
52,./img/gray_EmilyDeschanel5_1.png,0,10,10,51,,,None,None,1,None,None,None,None,None,None,1,Nicole Kitman,"['lshift', 'n', 'i', 'c', 'o', 'l', 'e', 'space', 'lshift', 'k', 'i', 't', 'm', 'a', 'n', 'return']","[0.5832508137282275, 0.7335368977310281, 1.5332485843355244, 1.9998254979000194, 2.2329724925020855, 2.46629046066937, 3.015458512285477, 3.1825179690649747, 3.748916178365107, 4.1821510014142405, 5.131783408250158, 5.481453217558737, 5.8313340974209495, 6.031192250310596, 6.247548229461245, 6.764393295654372]",5.3147863905,0.933500585897,2017_Feb_24_1121,60.0113768708,famFaceFilter,001,24,
2,./img/gray_BastianSchweinsteiger1_1.png,0,11,11,1,,,None,None,1,None,None,None,None,None,None,5,Schweinsteiger,"['lshift', 's', 'c', 'h', 'w', 'e', 'i', 'n', 's', 't', 'e', 'i', 'g', 'e', 'r', 'return']","[0.4835283169750255, 0.6167680478956754, 0.9331913579117099, 1.0998751860897755, 1.3497339644918611, 2.3992861452707075, 3.2323559611868404, 3.4822445717491064, 3.6822900577744804, 3.882153343078244, 4.049007503269422, 4.315257289552392, 4.665223495809187, 4.81497452558051, 5.081715419793909, 5.314922720269351]",1.33315818968,1.33308312812,2017_Feb_24_1121,60.0113768708,famFaceFilter,001,24,
53,./img/gray_Ice-T(OdafinFinTutuola)5_1.png,0,12,12,52,,,None,None,1,None,None,None,None,None,None,2,Hip Hop Produzent,"['lshift', 'h', 'i', 'p', 'space', 'lshift', 'h', 'o', 'p', 'space', 'lshift', 'p', 'r', 'o', 'd', 'u', 'z', 'e', 'n', 't', 'return']","[0.6164896143982332, 0.7832584481948288, 1.1331787834960778, 1.5497047097287577, 1.8495519241587317, 2.0327951675753866, 2.1328015510162004, 2.482737604336762, 2.7327240515542144, 2.999201588739197, 3.132435866468768, 3.7157479483976203, 4.215384990446182, 4.548444060368638, 4.831660005755111, 5.081604431326923, 5.464759076435257, 5.66473591641352, 5.848049409756641, 6.397685473438287, 6.763956719630187]",1.63239464676,1.01702935196,2017_Feb_24_1121,60.0113768708,famFaceFilter,001,24,
