num,pic,trials.thisRepN,trials.thisTrialN,trials.thisN,trials.thisIndex,key_resp_2.keys,key_resp_2.rt,ratingBekannt.response,ratingBekannt.rt,key_resp_5.keys,ratingK1.response,ratingK1.rt,ratingK2.response,ratingK2.rt,ratingK3.response,ratingK3.rt,key_resp_6.keys,inputText,key_resp_4.keys,key_resp_4.rt,date,frameRate,expName,session,participant,
,,,,,,space,11.80865524,,,,,,,,,,,,,,2017_Feb_24_1505,60.0121855439,famFaceFilter,001,25,
71,./img/smoo15_AngelaMerkel1_1.png,0,0,0,70,,,1.ja,2.877,None,None,None,None,None,polit,1.153,None,Angela Merkel,"['lshift', 'a', 'n', 'g', 'e', 'l', 'a', 'space', 'lshift', 'm', 'e', 'r', 'k', 'e', 'l', 'return']","[1.4660915796011977, 1.632934512635984, 1.849498033803684, 2.066244397250557, 2.166006028663105, 2.3160909861653636, 2.4826397676843044, 2.616065227859508, 2.782551458072703, 2.9158296821042313, 3.0989815043831186, 3.1990196446386108, 3.382192638131528, 3.5488668430298276, 3.6655170057747455, 3.9820423225355626]",2017_Feb_24_1505,60.0121855439,famFaceFilter,001,25,
56,./img/smoo15_MariskaHargitay(Liv)6_5.png,0,1,1,55,,,1.ja,18.182,None,act,0.837,None,None,None,None,None,Robin,"['lshift', 'r', 'o', 'b', 'i', 'n', 'return']","[0.8831281810962537, 1.066651141114562, 1.533022116538632, 1.8661841555294814, 2.032863172069483, 2.2495052833401132, 2.5491953175696835]",2017_Feb_24_1505,60.0121855439,famFaceFilter,001,25,
39,./img/smoo15_BarackObama2_1.png,0,2,2,38,,,1.ja,1.69,None,None,None,None,None,polit,0.824,None,Obama,"['lshift', 'o', 'b', 'a', 'comma', 'a', 'backspace', 'm', 'a', 'return']","[0.533558453873411, 0.9168186342576519, 1.2334645627634018, 1.3664742973487591, 1.4999568556413578, 1.5998913852745318, 2.198976339888759, 2.9492198890075088, 3.0491666081252333, 3.298949683412502]",2017_Feb_24_1505,60.0121855439,famFaceFilter,001,25,
2,./img/smoo15_WillSmith5_1.png,0,3,3,1,,,1.ja,1.589,None,act,0.573,None,None,None,None,None,Will Smith,"['lshift', 'w', 'i', 'l', 'l', 'space', 'lshift', 's', 'm', 'i', 't', 'h', 'return']","[0.5335401696429471, 0.7835012755640491, 0.9667948808018991, 1.149952156269137, 1.3000281320455542, 1.4165114913157595, 1.4996097760958946, 1.6497543979166949, 1.832927391405974, 2.0496631692476512, 2.3657682695520634, 2.5494301255421306, 2.932487254769512]",2017_Feb_24_1505,60.0121855439,famFaceFilter,001,25,
20,./img/smoo15_NicoleKidman5_1.png,0,4,4,19,,,1.ja,1.89,None,act,0.607,None,None,None,None,None,Nicole Kidman,"['lshift', 'n', 'i', 'c', 'o', 'l', 'e', 'space', 'lshift', 'k', 'i', 'd', 'm', 'a', 'n', 'return']","[0.6504094223455468, 0.983287253871822, 1.2667630277537683, 1.4168383619762608, 1.6000472823689051, 1.783295337427262, 1.866596352585475, 1.983119167292898, 2.2664367986435536, 2.449411873392819, 2.6328636211546836, 2.7494114563851326, 2.8827259280915314, 2.99938731799557, 3.1326892794459127, 3.3992742765622097]",2017_Feb_24_1505,60.0121855439,famFaceFilter,001,25,
11,./img/smoo15_LeonardoDiCaprio3_1.png,0,5,5,10,,,1.ja,1.623,None,act,0.608,None,None,None,None,None,Leonardo DiCaprio,"['lshift', 'l', 'e', 'o', 'n', 'a', 'r', 'd', 'o', 'space', 'lshift', 'd', 'i', 'lshift', 'c', 'a', 'p', 'r', 'i', 'o', 'return']","[0.866668847942492, 1.1163348400186806, 1.2664945383112354, 1.499816997340531, 1.732870004598226, 1.8825751634103653, 2.0495310095684545, 2.2494379203963035, 2.3993458095937967, 2.56739935094447, 2.9490976733795833, 3.13216898090468, 3.3157285093766404, 4.031982962951588, 4.131986138632783, 4.398372896230285, 4.61500891275864, 4.748091142704652, 4.914975455831154, 5.097922302298684, 5.53118278742113]",2017_Feb_24_1505,60.0121855439,famFaceFilter,001,25,
23,./img/smoo15_JoachimLoew4_1.png,0,6,6,22,,,1.ja,1.785,None,None,None,None,None,sport,1.673,None,Jogi Löw,"['lshift', 'j', 'o', 'g', 'i', 'space', 'lshift', 'l', u'\xf6', 'w', 'return']","[0.7500469134793093, 1.0333805836271495, 1.8495615474348597, 2.1994822035121615, 2.4992636588794994, 2.682690386121976, 2.982545940725686, 3.248809199598327, 3.4481156179062964, 3.5480860744428355, 3.7820452736705192]",2017_Feb_24_1505,60.0121855439,famFaceFilter,001,25,
37,./img/smoo15_Ice-T(OdafinFinTutuola)5_1.png,0,7,7,36,,,1.ja,1.79,None,act,0.79,None,None,None,None,None,,['return'],[0.7002467729143973],2017_Feb_24_1505,60.0121855439,famFaceFilter,001,25,
16,./img/smoo15_WillSmith4_1.png,0,8,8,15,,,1.ja,1.674,None,act,0.741,None,None,None,None,None,Will Smith,"['lshift', 'w', 'i', 'l', 'l', 'space', 'lshift', 's', 'm', 'i', 't', 'h', 'return']","[0.4334433273979812, 0.7166968035635364, 0.8998983461133321, 1.1000111950816063, 1.2496095355127181, 1.3165073533091345, 1.416403710609302, 1.5498221137168002, 1.6832065145754314, 1.933036743921548, 2.166223193959013, 2.3663142301666085, 2.682345231234649]",2017_Feb_24_1505,60.0121855439,famFaceFilter,001,25,
61,./img/smoo15_OmarEpps(DrEricForeman)3_1.png,0,9,9,60,,,1.ja,2.173,None,act,3.073,None,None,None,None,None,,['return'],[1.0330800165902474],2017_Feb_24_1505,60.0121855439,famFaceFilter,001,25,
66,./img/smoo15_NicoleKidman3_1.png,0,10,10,65,,,1.ja,1.691,None,dummy,1.607,None,None,None,None,None,Nicole Kidman,"['lshift', 'n', 'i', 'c', 'o', 'l', 'e', 'space', 'lshift', 'k', 'i', 'd', 'm', 'a', 'n', 'return']","[0.7834287802070321, 1.0999601917064865, 1.3165439217591484, 1.4664848508728028, 1.5831776768172858, 1.7495939778782486, 1.8496824799549358, 1.9663220570946578, 2.182850934466842, 2.599412146049872, 2.8326021246248274, 2.9657680770833394, 3.0992628248604888, 3.2657137697206053, 3.3658090080934926, 3.6656360136403237]",2017_Feb_24_1505,60.0121855439,famFaceFilter,001,25,
59,./img/smoo15_JoshRadnor(Ted)1_2.png,0,11,11,58,,,1.ja,1.44,None,act,0.473,None,None,None,None,None,Ted,"['lshift', 't', 'e', 'd', 'return']","[0.3668441519839689, 0.766681069504557, 0.9181873851011915, 1.0999508892055019, 1.4164880746757262]",2017_Feb_24_1505,60.0121855439,famFaceFilter,001,25,
38,./img/smoo15_AlysonHannigan(Lily)5_4.png,0,12,12,37,,,1.ja,1.507,None,act,0.924,None,None,None,None,None,Lilli,"['lshift', 'l', 'i', 'l', 'l', 'i', 'return']","[0.4667668129077356, 0.7500651977024972, 0.9499624852542183, 1.1831482937413966, 1.3162837724885321, 1.4997980715561425, 1.7330108252244827]",2017_Feb_24_1505,60.0121855439,famFaceFilter,001,25,
41,./img/smoo15_AngelaMerkel3_1.png,0,13,13,40,,,1.ja,1.457,None,act,0.524,None,None,None,None,None,Angela Merkel,"['lshift', 'a', 'n', 'g', 'e', u'\xf6', 'a', 'backspace', 'backspace', 'l', 'a', 'space', 'lshift', 'm', 'e', 'r', 'k', 'e', 'l', 'return']","[0.8000828243420983, 1.0165844357616152, 1.166832988979877, 1.366640459276823, 1.4666202183143469, 1.6664661817194428, 1.7830031105659145, 2.099519124822109, 2.266115381175041, 2.815931400145928, 2.932669776269904, 3.049207025891519, 3.132597858308145, 3.299162999395776, 3.415836578784365, 3.5323658090092067, 3.649004744598642, 3.7656042247472215, 3.9155894209397957, 4.365040428994689]",2017_Feb_24_1505,60.0121855439,famFaceFilter,001,25,
60,./img/smoo15_LeonardoDiCaprio2_1.png,0,14,14,59,,,1.ja,1.718,None,act,3.839,None,None,None,None,None,Leonardo DiCaprio,"['lshift', 'l', 'e', 'o', 'n', 'a', 'r', 'd', 'o', 'space', 'lshift', 'd', 'i', 'lshift', 'c', 'a', 'p', 'r', 'i', 'o', 'return']","[1.0665831366168277, 1.366511828131479, 1.6164501589591964, 1.8996272904587386, 2.116186320767156, 2.2162077806751768, 2.416011401659489, 2.599330989742157, 2.782430525548989, 2.932520936243236, 3.1823344852382434, 3.548942546145554, 3.7154980639570567, 4.348558320751181, 4.5985345031367615, 4.8149976214444905, 4.99832105884343, 5.181549867342255, 5.314792485245562, 5.481416007551161, 5.798018952082202]",2017_Feb_24_1505,60.0121855439,famFaceFilter,001,25,
26,./img/smoo15_TomCruise4_1.png,0,15,15,25,,,1.ja,4.0,None,dummy,0.724,None,None,None,None,None,,['return'],[1.0166341560288856],2017_Feb_24_1505,60.0121855439,famFaceFilter,001,25,
64,./img/smoo15_JoachimLoew8_1.png,0,16,16,63,,,1.ja,1.141,None,None,None,None,None,sport,0.674,None,Jogi Löw,"['lshift', 'j', 'o', 'g', 'i', 'space', 'lshift', 'l', u'\xf6', 'w', 'return']","[1.7995445623491833, 2.182736096689041, 2.8160314822307555, 3.0991515156165406, 3.249202791648713, 3.365803554901504, 3.6156658618383517, 4.082103237880801, 4.415360868097196, 4.548616637814121, 4.848497212937218]",2017_Feb_24_1505,60.0121855439,famFaceFilter,001,25,
45,./img/smoo15_RobertSeanLeonard(Wilson)2_6.png,0,17,17,44,,,1.ja,1.47,None,act,0.691,None,None,None,None,None,,['return'],[0.700149898584641],2017_Feb_24_1505,60.0121855439,famFaceFilter,001,25,
70,./img/smoo15_JasonSegel(Marshall)7_1.png,0,18,18,69,,,1.ja,1.44,None,act,0.458,None,None,None,None,None,Marshall,"['lshift', 'm', 'a', 'r', 's', 'a', 'backspace', 'h', 'a', 'l', 'l', 'return']","[1.8663285046932288, 2.0493921135966957, 2.2661525911789795, 2.532741758383054, 3.2822468813355954, 3.532292672098265, 4.015139981798711, 4.531884003579762, 4.648479313640564, 4.848110998733318, 4.998451935418416, 5.2316332530426735]",2017_Feb_24_1505,60.0121855439,famFaceFilter,001,25,
13,./img/smoo15_GeorgeClooney3_1.png,0,19,19,12,,,1.ja,2.135,None,act,0.84,None,None,None,None,None,Marshall,"['lshift', 'm', 'a', 'r', 's', 'h', 'a', u'\xf6', u'\xf6', 'backspace', 'backspace', 'l', 'l', 'return']","[0.5999362939037383, 0.8667009255332232, 1.049876485230925, 1.283198302709934, 1.5997589048201917, 1.7329768229756155, 1.8329267498556874, 2.0662331700914365, 2.2327123432332883, 2.6992828412803647, 2.8674672592023853, 3.4822503457144194, 3.6155770069090067, 3.948652757182572]",2017_Feb_24_1505,60.0121855439,famFaceFilter,001,25,
49,./img/smoo15_TomCruise5_1.png,0,20,20,48,,,1.ja,1.656,None,dummy,0.458,None,None,None,None,None,,['return'],[0.7668254186683043],2017_Feb_24_1505,60.0121855439,famFaceFilter,001,25,
27,./img/smoo15_JasonSegel(Marshall)9_1.png,0,21,21,26,,,1.ja,1.241,None,dummy,3.424,None,None,None,None,None,Marshall,"['lshift', 'm', 'a', 'r', 's', 'h', 'a', u'\xf6', u'\xf6', 'backspace', 'backspace', 'l', 'l', 'return']","[0.5500922070386878, 0.8000007057089533, 0.9832917447347427, 1.2332935891972738, 1.7325877217881498, 1.8496500815890613, 1.9663371335664124, 2.199297115806985, 2.3662686799871153, 2.8492629050560936, 3.0157680610500393, 3.6988215655073873, 3.8320651457397616, 4.032444559496071]",2017_Feb_24_1505,60.0121855439,famFaceFilter,001,25,
5,./img/smoo15_BarackObama1_3.png,0,22,22,4,,,1.ja,1.485,None,None,None,None,None,polit,0.69,None,Obama,"['lshift', 'o', 'b', 'a', 'm', 'a', 'return']","[0.5833967667713296, 0.9668105988203024, 1.2499136310834729, 1.4165124536448275, 1.549655631013593, 1.6330942590393533, 2.299445282202214]",2017_Feb_24_1505,60.0121855439,famFaceFilter,001,25,
19,./img/smoo15_NicoleKidman7_1.png,0,23,23,18,,,1.ja,1.74,None,act,0.64,None,None,None,None,None,Nicole Kidman,"['lshift', 'n', 'i', 'c', 'o', 'e', 'backspace', 'l', 'e', 'space', 'lshift', 'k', 'i', 'd', 'm', 'a', 'n', 'return']","[0.9168388431389758, 1.183143802882114, 1.466574988909997, 1.6163516807537235, 2.18294684646753, 2.4994801826251205, 2.88253057555994, 3.4657079316020827, 3.5987994640490797, 3.782386258473707, 3.8821693818754284, 4.08216161909877, 4.282174385978578, 4.398678595680394, 4.581894893919525, 4.698503035022441, 4.848347089809977, 5.2316101571777835]",2017_Feb_24_1505,60.0121855439,famFaceFilter,001,25,
6,./img/smoo15_AlysonHannigan(Lily)1_1.png,0,24,24,5,,,1.ja,1.453,None,act,0.474,None,None,None,None,None,Lilli,"['lshift', 'l', 'i', 'l', 'l', 'i', 'return']","[0.5501974215367227, 0.8168366297868488, 1.033427416907216, 1.2166655279106635, 1.3666734991929843, 1.5498795326020627, 1.7831413649837486]",2017_Feb_24_1505,60.0121855439,famFaceFilter,001,25,
10,./img/smoo15_KatjaBurkard5_3.png,0,25,25,9,,,1.ja,2.006,None,None,None,host,1.506,None,None,None,,['return'],[1.4664858132055087],2017_Feb_24_1505,60.0121855439,famFaceFilter,001,25,
1,./img/smoo15_Ice-T(OdafinFinTutuola)6_1.png,0,26,26,0,,,1.ja,1.707,None,act,0.524,None,None,None,None,None,,['return'],[0.6332309095814708],2017_Feb_24_1505,60.0121855439,famFaceFilter,001,25,
46,./img/smoo15_NeilPatrickHarris(Barney)1_1.png,0,27,27,45,,,1.ja,1.525,None,act,0.691,None,None,None,None,None,Barney,"['lshift', 'b', 'a', 'r', 'n', 'e', 'y', 'return']","[0.7000437217575382, 0.900006447594933, 1.116484000820492, 1.249789170029544, 1.5164700791465293, 1.7330117875535507, 1.9160638485227537, 2.366011417700065]",2017_Feb_24_1505,60.0121855439,famFaceFilter,001,25,
43,./img/smoo15_JoachimLoew1_1.png,0,28,28,42,,,1.ja,1.34,None,None,None,None,None,sport,0.873,None,Jogi Löw,"['lshift', 'j', 'o', 'g', 'i', 'space', 'lshift', 'l', u'\xf6', 'w', 'return']","[0.6000536978899618, 0.8833273829404789, 1.1499787806751556, 1.4165862321060558, 1.7164581462820934, 1.8830207211649395, 2.2495617399035837, 2.4495841300631582, 2.6660424367328233, 2.8158954732425627, 3.0324288414776674]",2017_Feb_24_1505,60.0121855439,famFaceFilter,001,25,
7,./img/smoo15_LisaEdelstein(DrLisaCuddy)2_2.png,0,29,29,6,,,2.nein,1.923,None,None,None,host,3.006,None,None,None,,['return'],[1.0334145858760166],2017_Feb_24_1505,60.0121855439,famFaceFilter,001,25,
34,./img/smoo15_EmilyDeschanel5_1.png,0,30,30,33,,,1.ja,2.257,None,act,1.024,None,None,None,None,None,Bones,"['lshift', 'b', 'o', 'n', 'e', 's', 'return']","[0.4835725840530358, 0.7335282367821492, 1.1833391554173431, 1.3998725236524479, 1.4999684035719838, 1.6664308963663643, 1.9496920711571875]",2017_Feb_24_1505,60.0121855439,famFaceFilter,001,25,
14,./img/smoo15_BritneySpears7_1.png,0,31,31,13,,,1.ja,1.59,None,None,None,music,1.539,None,None,None,Britney Spears,"['lshift', 'b', 'r', 'i', 't', 'n', 'e', 'y', 'space', 'lshift', 's', 'p', 'e', 'a', 'r', 's', 'return']","[1.9662678459644667, 2.299375673828763, 2.549193713690329, 2.715985322574852, 2.9325908653918304, 3.165855263978301, 3.249127088529349, 3.4323498022895365, 3.6155972157903307, 3.8487981007492635, 4.032083045032778, 4.165400082951237, 4.398730561377306, 4.598486065973702, 4.748275268077123, 4.865148370088718, 5.231392991878238]",2017_Feb_24_1505,60.0121855439,famFaceFilter,001,25,
32,./img/smoo15_TomCruise1_1.png,0,32,32,31,,,1.ja,2.837,None,act,0.473,None,None,None,None,None,,['return'],[2.416329290594149],2017_Feb_24_1505,60.0121855439,famFaceFilter,001,25,
44,./img/smoo15_GuentherJauch2_1.png,0,33,33,43,,,1.ja,1.291,None,None,None,host,0.624,None,None,None,Günther Jauch,"['lshift', 'lshift', 'g', u'\xfc', 'n', 't', 'h', 'e', 'r', 'space', 'lshift', 'j', 'a', 'u', 'c', 'h', 'return']","[0.46661701055563753, 1.3833060513425153, 1.5165291019147844, 2.3993214306246955, 2.682645798271551, 2.915725109152845, 3.0992082929587923, 3.182566085455619, 3.265772471717355, 3.3990375439352647, 3.6655612728536653, 3.866814800985594, 3.9822190700651845, 4.148725829938485, 4.265447846486495, 4.365323674130195, 4.715109604319878]",2017_Feb_24_1505,60.0121855439,famFaceFilter,001,25,
29,./img/smoo15_GuentherJauch3_1.png,0,34,34,28,,,1.ja,1.667,None,None,None,host,0.725,None,None,None,Günther Jauch,"['lshift', 'g', u'\xfc', 'n', 't', 'h', 'e', 'r', 'space', 'lshift', 'j', 'a', 'u', 'c', 'h', 'return']","[0.7001014614215819, 1.1830206249287585, 1.6329066051293921, 1.999701357617596, 2.2329590199115046, 2.4161047474517545, 2.5659783136215992, 2.6492969714563515, 2.7826852216276166, 3.0657423829325126, 3.499020831506641, 3.682055249802943, 3.8155358834374056, 3.948728460298298, 4.031855614910455, 4.365206590919115]",2017_Feb_24_1505,60.0121855439,famFaceFilter,001,25,
68,./img/smoo15_AlysonHannigan(Lily)8_3.png,0,35,35,67,,,1.ja,1.586,None,act,0.773,None,None,None,None,None,Lilli,"['lshift', 'l', 'i', 'l', 'l', 'i', 'return']","[0.7999047937082651, 1.1498918504003086, 1.3664034058710968, 1.5830490456755797, 1.716389179458929, 1.9163137329633173, 2.2662847508581763]",2017_Feb_24_1505,60.0121855439,famFaceFilter,001,25,
36,./img/smoo15_BastianSchweinsteiger6_2.png,0,36,36,35,,,1.ja,1.29,None,None,None,None,None,sport,0.707,None,Schweinsteiger,"['lshift', 's', 'c', 'h', 'w', 'e', 'i', 'n', 's', 't', 'e', 'i', 'g', 'e', 'r', 'return']","[1.0833516977545514, 1.6997072278209089, 1.9829565339023247, 2.0995428622409236, 2.199529036799504, 2.3993426018350874, 2.516122999601066, 2.7659763248157105, 2.9155098685114353, 3.065896676154807, 3.2158010368148098, 3.848870275334775, 4.081858485857083, 4.1819829148334975, 4.265409353378345, 4.598438270364568]",2017_Feb_24_1505,60.0121855439,famFaceFilter,001,25,
31,./img/smoo15_BritneySpears1_1.png,0,37,37,30,,,1.ja,1.686,None,None,None,music,0.923,None,None,None,Britney Spears,"['lshift', 'b', 'r', 'i', 't', 'n', 'e', 'y', 'space', 'lshift', 's', 'p', 'e', 'a', 'r', 's', 'return']","[0.900007409924001, 1.1500204815420147, 1.3664255394069187, 1.5330904418078717, 1.7330534884204098, 1.9828984734594997, 2.0995483154292742, 2.73272790086412, 3.099134514493926, 3.398786697165633, 3.5323269951222755, 3.6488517344841966, 3.865618627583899, 4.048847436086362, 4.181935439995868, 4.282159951060748, 4.565303721865348]",2017_Feb_24_1505,60.0121855439,famFaceFilter,001,25,
4,./img/smoo15_UrsulavonderLeyen1_1.png,0,38,38,3,,,2.nein,4.136,None,None,None,None,None,polit,1.168,None,,['return'],[1.200001539724326],2017_Feb_24_1505,60.0121855439,famFaceFilter,001,25,
72,./img/smoo15_HughLaurie(DrHouse)2_1.png,0,39,39,71,,,1.ja,1.39,None,act,0.573,None,None,None,None,None,Dr House,"['lshift', 'd', 'r', 'period', 'space', 'lshift', 'h', 'o', 'u', 's', 'e', 'return']","[0.4669766003607947, 0.7001899955794215, 0.9333052333640808, 1.1666835074029223, 1.3167444067112228, 1.5332485843355244, 1.6828482078744855, 1.9663817214204755, 2.166233779567847, 2.2996390308617265, 2.466150602369453, 2.632684307420277]",2017_Feb_24_1505,60.0121855439,famFaceFilter,001,25,
55,./img/smoo15_MariskaHargitay(Liv)4_4.png,0,40,40,54,,,1.ja,3.738,None,act,0.856,None,None,None,None,None,,['return'],[1.2331553347758017],2017_Feb_24_1505,60.0121855439,famFaceFilter,001,25,
17,./img/smoo15_GeorgeClooney11_1.png,0,41,41,16,,,1.ja,1.874,None,act,0.49,None,None,None,None,None,George Clooney,"['lshift', 'g', 'e', 'o', 'r', 'g', 'e', 'space', 'lshift', 'c', 'l', 'o', 'o', 'n', 'e', 'y', 'return']","[0.5835818544765061, 1.0999508892055019, 1.2666250941074395, 1.54971369145278, 1.7663112148693472, 1.9329549460599083, 2.03306141158464, 2.1827973648869374, 2.349437888318789, 2.4994715216744225, 3.3324037247220986, 3.58222208535517, 3.7155788994859904, 3.9654803410849127, 4.098568344998057, 4.298606453176035, 5.231513924401952]",2017_Feb_24_1505,60.0121855439,famFaceFilter,001,25,
65,./img/smoo15_UrsulavonderLeyen4_1.png,0,42,42,64,,,1.ja,2.802,None,None,None,None,None,polit,1.023,None,,['return'],[0.9333831819130864],2017_Feb_24_1505,60.0121855439,famFaceFilter,001,25,
15,./img/smoo15_LisaEdelstein(DrLisaCuddy)1_1.png,0,43,43,14,,,2.nein,2.723,None,None,None,host,1.107,None,None,None,,['return'],[0.8167814563275897],2017_Feb_24_1505,60.0121855439,famFaceFilter,001,25,
48,./img/smoo15_JoshRadnor(Ted)6_2.png,0,44,44,47,,,1.ja,2.457,None,dummy,1.074,None,None,None,None,None,Ted,"['lshift', 't', 'e', 'd', 'return']","[0.8499195333606622, 1.1832833404041594, 1.366497393213649, 1.5663789627433289, 3.032141426250746]",2017_Feb_24_1505,60.0121855439,famFaceFilter,001,25,
53,./img/smoo15_GuentherJauch4_1.png,0,45,45,52,,,1.ja,1.44,None,None,None,host,0.74,None,None,None,Günther Jauch,"['lshift', 'g', u'\xfc', 'n', 't', 'h', 'e', 'r', 'space', 'lshift', 'j', 'a', 'u', 'c', 'h', 'return']","[1.0499268470521201, 1.2498530044358631, 1.783148422055092, 2.13282592998803, 2.382607401392306, 2.5828042936518614, 2.6994268696689687, 2.7825171350486926, 2.9158890256476298, 3.2323617351539724, 3.882127681004931, 4.065230745345616, 4.231990597418189, 4.331753511934949, 4.448604159631941, 5.26485890190088]",2017_Feb_24_1505,60.0121855439,famFaceFilter,001,25,
33,./img/smoo15_Ice-T(OdafinFinTutuola)7_1.png,0,46,46,32,,,1.ja,11.665,None,dummy,0.77,None,None,None,None,None,,['return'],[0.8836709339484514],2017_Feb_24_1505,60.0121855439,famFaceFilter,001,25,
62,./img/smoo15_RobertSeanLeonard(Wilson)1_1.png,0,47,47,61,,,1.ja,3.456,None,dummy,0.558,None,None,None,None,None,,['return'],[0.7833492277786718],2017_Feb_24_1505,60.0121855439,famFaceFilter,001,25,
40,./img/smoo15_NeilPatrickHarris(Barney)2_2.png,0,48,48,39,,,1.ja,1.424,None,act,0.525,None,None,None,None,None,Barney,"['lshift', 'b', 'a', 'r', 'n', 'e', 'y', 'return']","[1.200010200671386, 1.383156890537066, 1.5831350136213587, 1.71632726970347, 2.4334417235149886, 2.5659863330183725, 2.7660594057742856, 3.1491784447534883]",2017_Feb_24_1505,60.0121855439,famFaceFilter,001,25,
28,./img/smoo15_HughLaurie(DrHouse)5_3.png,0,49,49,27,,,1.ja,3.19,None,act,0.624,None,None,None,None,None,Dr House,"['lshift', 'd', 'r', 'period', 'space', 'lshift', 'h', 'o', 'u', 's', 'e', 'return']","[0.6500700414217135, 0.8833187219897809, 1.0829022906909813, 1.4664550187153509, 1.61637445584347, 1.7995535440750245, 1.9494370543034165, 2.232589165279933, 2.432656784843857, 2.565891062571609, 2.7490945297759026, 3.065720570171834]",2017_Feb_24_1505,60.0121855439,famFaceFilter,001,25,
22,./img/smoo15_WillSmith1_1.png,0,50,50,21,,,1.ja,1.34,None,act,1.007,None,None,None,None,None,Will Smith,"['lshift', 'w', 'i', 'l', 'l', 'space', 'lshift', 's', 'm', 'i', 't', 'h', 'return']","[0.5002006453360082, 0.8831955440364254, 1.0500849895797728, 1.2166953600717534, 1.3499017302965512, 1.4665419489901979, 1.5664569112923346, 1.6997001707495656, 1.8665350843839406, 2.0660978026535304, 2.316109591167333, 2.4993188323387585, 2.9658906134864083]",2017_Feb_24_1505,60.0121855439,famFaceFilter,001,25,
69,./img/smoo15_BritneySpears5_1.png,0,51,51,68,,,1.ja,1.257,None,None,None,music,1.373,None,None,None,Britney Spears,"['lshift', 'b', 'r', 'i', 't', 'n', 'e', 'y', 'space', 'lshift', 's', 'p', 'e', 'a', 'r', 's', 'return']","[0.5002465162942826, 0.8833062117300869, 1.1166758248182305, 1.766243531154032, 2.049372225490515, 2.2993682959822763, 2.3994170218466024, 2.5992572112845664, 2.765827805560548, 3.049055298881285, 3.1823954326646344, 3.3323485512628395, 3.5488424640607263, 3.715508008011966, 3.8821016981564753, 3.965659654826595, 4.281981599651772]",2017_Feb_24_1505,60.0121855439,famFaceFilter,001,25,
3,./img/smoo15_JoshRadnor(Ted)3_1.png,0,52,52,2,,,1.ja,1.269,None,act,0.824,None,None,None,None,None,Ted,"['lshift', 't', 'e', 'd', 'return']","[0.40015095714989, 0.7501328814250883, 0.9498787627417187, 1.1170042993617244, 1.3831344362261007]",2017_Feb_24_1505,60.0121855439,famFaceFilter,001,25,
21,./img/smoo15_NeilPatrickHarris(Barney)3_7.png,0,53,53,20,,,1.ja,1.707,None,act,0.807,None,None,None,None,None,Barney,"['lshift', 'b', 'a', 'r', 'n', 'e', 'y', 'return']","[1.6830416357515787, 1.9660253393740277, 2.2162818799151864, 2.3828117356533767, 2.6327077240603103, 2.7826823346476885, 3.016040079026425, 3.4157759521367552]",2017_Feb_24_1505,60.0121855439,famFaceFilter,001,25,
50,./img/smoo15_OmarEpps(DrEricForeman)2_2.png,0,54,54,49,,,1.ja,4.106,None,act,1.853,None,None,None,None,None,,['return'],[0.7502451529944665],2017_Feb_24_1505,60.0121855439,famFaceFilter,001,25,
47,./img/smoo15_BarackObama4_1.png,0,55,55,46,,,1.ja,1.607,None,None,None,None,None,polit,0.707,None,Obama,"['lshift', 'o', 'b', 'a', 'm', 'a', 'return']","[0.48355269594685524, 0.7501290321124543, 1.0832583519622858, 1.2832396828052879, 1.3993830195977353, 1.5158182624800247, 1.8490566461405251]",2017_Feb_24_1505,60.0121855439,famFaceFilter,001,25,
18,./img/smoo15_HughLaurie(DrHouse)4_1.png,0,56,56,17,,,1.ja,4.127,None,act,0.771,None,None,None,None,None,Marshall,"['lshift', 'm', 'a', 'r', 'h', 's', 'a', u'\xf6', u'\xf6', 'backspace', 'backspace', 'backspace', 'backspace', 'backspace', 's', 'h', 'a', 'l', 'l', 'return']","[1.349896597883344, 1.633235079669248, 1.832694508091663, 2.0828868934513594, 2.2827370269405947, 2.400937499700376, 2.6157563206506893, 2.7827381496572343, 2.965936805219826, 3.3990875849776785, 3.5657611483256915, 4.398538416604424, 4.598552466592082, 4.748537342005875, 5.331661128471751, 5.481604623793828, 5.598198009200132, 5.798172282971791, 5.931280495766259, 6.214582409098512]",2017_Feb_24_1505,60.0121855439,famFaceFilter,001,25,
30,./img/smoo15_KatjaBurkard4_1.png,0,57,57,29,,,1.ja,2.236,None,None,None,host,0.639,None,None,None,,['return'],[1.049977850419964],2017_Feb_24_1505,60.0121855439,famFaceFilter,001,25,
8,./img/smoo15_AngelaMerkel4_1.png,0,58,58,7,,,1.ja,1.374,None,None,None,None,None,polit,0.641,None,Angela Merkel,"['lshift', 'a', 'n', 'g', 'e', 'l', 'a', 'space', 'lshift', 'm', 'e', 'r', 'k', 'e', 'l', 'return']","[0.5501444935107429, 0.7498512401652988, 0.9333206306073407, 1.149555998010328, 1.23311972864758, 1.416392162675038, 1.5164415300860128, 1.6495827828002803, 1.766331423754309, 1.9162194248419837, 2.049428040496423, 2.166189512488927, 2.999092845700943, 3.1156596067085047, 3.215484110201942, 3.63208734343425]",2017_Feb_24_1505,60.0121855439,famFaceFilter,001,25,
67,./img/smoo15_GeorgeClooney4_2.png,0,59,59,66,,,1.ja,5.205,None,act,0.836,None,None,None,None,None,George Clooney,"['lshift', 'g', 'e', 'o', 'r', 'g', 'e', 'space', 'lshift', 'c', 'l', 'o', 'o', 'n', 'e', 'x', 'y', 'backspace', 'backspace', 'y', 'return']","[0.5335571707691997, 0.7668549300506129, 0.9500478116497106, 1.1332278622103331, 1.283301592553471, 1.4832627145151491, 1.616379267481534, 1.733085566011141, 1.9161870264724712, 2.0828195305039117, 2.282775840823888, 3.2158411338023143, 3.3490731661004247, 3.598924245878152, 3.6822714527697826, 3.9155233410965593, 4.41529831679145, 4.5985393147748255, 4.765118890780286, 5.198300144253153]",2017_Feb_24_1505,60.0121855439,famFaceFilter,001,25,
9,./img/smoo15_EmilyDeschanel6_12.png,0,60,60,8,,,1.ja,2.251,None,act,0.823,None,None,None,None,None,Bones,"['lshift', 'b', 'o', 'n', 'e', 's', 'return']","[0.5169964724263991, 0.6835651420515205, 1.0665818535126164, 1.2997442453597614, 1.433246050204616, 1.5664806487111491, 1.816457151875511]",2017_Feb_24_1505,60.0121855439,famFaceFilter,001,25,
12,./img/smoo15_MariskaHargitay(Liv)8_8.png,0,61,61,11,,,1.ja,3.589,None,act,0.841,None,None,None,None,None,,['return'],[0.9333289707828953],2017_Feb_24_1505,60.0121855439,famFaceFilter,001,25,
42,./img/smoo15_OmarEpps(DrEricForeman)1_5.png,0,62,62,41,,,1.ja,1.891,None,act,0.525,None,None,None,None,None,,['return'],[0.5335472267142904],2017_Feb_24_1505,60.0121855439,famFaceFilter,001,25,
25,./img/smoo15_JasonSegel(Marshall)6_1.png,0,63,63,24,,,1.ja,1.307,None,act,0.491,None,None,None,None,None,Marshall,"['lshift', 'm', 'a', 'r', 's', 'h', 'a', 'l', 'l', 'return']","[0.7167542224524368, 1.1665651410876308, 1.4163376307697035, 1.6496485418647353, 1.7994018170684285, 1.8995361900997523, 2.0329494607904053, 2.232769120571902, 2.3827158236526884, 2.89924235935905]",2017_Feb_24_1505,60.0121855439,famFaceFilter,001,25,
63,./img/smoo15_RobertSeanLeonard(Wilson)8_1.png,0,64,64,62,,,1.ja,1.339,None,act,0.441,None,None,None,None,None,,['return'],[1.0833722274146567],2017_Feb_24_1505,60.0121855439,famFaceFilter,001,25,
58,./img/smoo15_EmilyDeschanel3_1.png,0,65,65,57,,,1.ja,1.64,None,act,0.624,None,None,None,None,None,Bones,"['lshift', 'b', 'o', 'n', 'e', 's', 'return']","[0.466826156454772, 0.8334233109817433, 1.2665952619499876, 1.49976278621034, 1.632679495778575, 1.799544241577678, 3.2488406356387713]",2017_Feb_24_1505,60.0121855439,famFaceFilter,001,25,
52,./img/smoo15_BastianSchweinsteiger3_1.png,0,66,66,51,,,1.ja,1.473,None,None,None,None,None,sport,1.14,None,Schweinsteiger,"['lshift', 's', 'c', 'h', 'w', 'e', 'i', 'n', 's', 't', 'e', 'o', 'backspace', 'i', 'g', 'e', 'r', 'return']","[0.43346289472538047, 0.5998147198297374, 0.8333113601802324, 0.9166155831007927, 1.033271840587986, 1.2165737859977526, 1.333083448891557, 1.566329884029983, 1.6330820695548027, 1.8162659694280592, 1.9496330483852944, 2.132778455146763, 2.798955938538711, 3.1658119592320872, 3.365743569804181, 3.498922994851455, 3.5822653901050217, 4.398537454275356]",2017_Feb_24_1505,60.0121855439,famFaceFilter,001,25,
57,./img/smoo15_UrsulavonderLeyen5_1.png,0,67,67,56,,,1.ja,2.253,None,None,None,None,None,polit,0.64,None,,['return'],[0.7002573585195933],2017_Feb_24_1505,60.0121855439,famFaceFilter,001,25,
24,./img/smoo15_BastianSchweinsteiger1_1.png,0,68,68,23,,,1.ja,1.423,None,None,None,None,None,sport,0.823,None,Schweinsteiger,"['lshift', 's', 'c', 'h', 'w', 'e', 'i', 'n', 's', 't', 'e', 'i', 'g', 'e', 'r', 'return']","[0.4169195182839758, 0.8000783334791777, 1.0332144216990855, 1.133280790236313, 1.2499598228168907, 1.4163568773219595, 1.549792923105997, 1.7830444906576304, 2.4827469068368373, 2.732614025411749, 2.8659406866063364, 3.032453541221912, 3.2989952335883572, 3.465504238891299, 3.565602364247752, 4.498675676619314]",2017_Feb_24_1505,60.0121855439,famFaceFilter,001,25,
54,./img/smoo15_LisaEdelstein(DrLisaCuddy)6_3.png,0,69,69,53,,,2.nein,2.284,None,dummy,1.307,None,None,None,None,None,Robin,"['lshift', 'r', 'o', 'b', 'i', 'n', 'lshift', u'?', 'return']","[0.8333197003557871, 0.9833100289615686, 1.3664967516633624, 1.6664299340372963, 1.9329709848570928, 2.166216778441594, 2.649380693972489, 3.115717025597405, 4.248470781003562]",2017_Feb_24_1505,60.0121855439,famFaceFilter,001,25,
35,./img/smoo15_KatjaBurkard1_1.png,0,70,70,34,,,1.ja,2.071,None,None,None,host,0.757,None,None,None,,['return'],[0.6504636334757379],2017_Feb_24_1505,60.0121855439,famFaceFilter,001,25,
51,./img/smoo15_LeonardoDiCaprio1_1.png,0,71,71,50,,,1.ja,1.374,None,act,0.574,None,None,None,None,None,Leonardo DiCaprio,"['lshift', 'l', 'e', 'o', 'n', 'a', 'r', 'd', 'o', 'space', 'lshift', 'd', 'i', 'lshift', 'c', 'a', 'p', 'r', 'i', 'o', 'return']","[0.6835603304098186, 1.2667896521525108, 1.4499911946986686, 1.7332180464691191, 2.016474088843097, 2.166394167521503, 2.366375498364505, 2.566226273407665, 2.732890534254693, 2.882869314926211, 3.049399170664401, 3.23263952709749, 3.3992335380207805, 4.048963556968374, 4.282253938406939, 4.498696847829706, 4.648594472197146, 4.815416554796684, 4.948652757178934, 5.098454469545686, 5.298586244294711]",2017_Feb_24_1505,60.0121855439,famFaceFilter,001,25,
20,./img/edges5_JoshRadnor(Ted)1_2.png,0,0,0,19,,,1.ja,1.962,None,act,0.638,None,None,None,None,None,Ted,"['lshift', 't', 'e', 'd', 'return']","[0.4169490296699223, 1.0498633334209444, 1.2665663921143278, 1.4498208626864653, 1.7997171397946659]",2017_Feb_24_1505,60.0121855439,famFaceFilter,001,25,
7,./img/edges5_AngelaMerkel3_1.png,0,1,1,6,,,1.ja,1.238,None,None,None,None,None,polit,0.872,None,Angela Merkel,"['lshift', 'a', 'n', 'g', 'e', 'l', 'a', 'space', 'lshift', 'm', 'e', 'r', 'k', 'e', 'l', 'return']","[0.5502121772333339, 0.7500520458925166, 0.9666887039747962, 1.166673563348013, 1.2665509948710678, 1.4496335295516474, 1.5164129810327722, 1.6499452595890034, 1.7494140225935553, 1.8996144594239013, 2.066262681477383, 2.165979725039506, 2.3327206513313286, 2.5328177822775615, 2.9325222193474474, 3.365588955814019]",2017_Feb_24_1505,60.0121855439,famFaceFilter,001,25,
47,./img/edges5_UrsulavonderLeyen5_1.png,0,2,2,46,,,1.ja,2.239,None,None,None,None,None,polit,0.74,None,,['return'],[0.9500667374304612],2017_Feb_24_1505,60.0121855439,famFaceFilter,001,25,
32,./img/edges5_Ice-T(OdafinFinTutuola)7_1.png,0,3,3,31,,,1.ja,1.189,None,act,0.673,None,None,None,None,None,,['return'],[0.9833238223254739],2017_Feb_24_1505,60.0121855439,famFaceFilter,001,25,
44,./img/edges5_EmilyDeschanel5_1.png,0,4,4,43,,,1.ja,4.588,None,dummy,1.367,None,None,None,None,None,,['return'],[3.2657448849859065],2017_Feb_24_1505,60.0121855439,famFaceFilter,001,25,
25,./img/edges5_JoachimLoew8_1.png,0,5,5,24,,,1.ja,1.155,None,None,None,None,None,sport,0.756,None,Jogi Löw,"['lshift', 'j', 'o', 'g', 'i', 'space', 'lshift', 'l', u'\xf6', 'w', 'return']","[0.683761777690961, 0.9168731661629863, 1.166500665131025, 1.5497739973288844, 1.6998409913794603, 1.8163041417647037, 2.0496192229475128, 2.266140722469572, 2.449454215813603, 2.582769970627851, 3.4491475540344254]",2017_Feb_24_1505,60.0121855439,famFaceFilter,001,25,
41,./img/edges5_OmarEpps(DrEricForeman)3_1.png,0,6,6,40,,,1.ja,1.821,None,dummy,0.789,None,None,None,None,None,,['return'],[0.7835105780650338],2017_Feb_24_1505,60.0121855439,famFaceFilter,001,25,
55,./img/edges5_JoachimLoew1_1.png,0,7,7,54,,,1.ja,1.305,None,None,None,None,None,sport,1.338,None,Jogi Löw,"['lshift', 'j', 'o', 'g', 'i', 'space', 'lshift', 'l', u'\xf6', 'w', 'return']","[0.6000633211697277, 0.8998216806685377, 1.149551186375902, 1.46649479493135, 1.616327943338547, 1.7330772258428624, 2.332573094408872, 2.466011706397694, 2.6992132329069136, 2.8157434254571854, 3.165731444478297]",2017_Feb_24_1505,60.0121855439,famFaceFilter,001,25,
35,./img/edges5_WillSmith1_1.png,0,8,8,34,,,1.ja,1.489,None,act,0.472,None,None,None,None,None,Will Smith,"['lshift', 'w', 'i', 'l', 'l', 'space', 'lshift', 's', 'm', 'i', 't', 'h', 'return']","[0.6167728595355584, 0.9834585482130933, 1.149969478174171, 1.3498160831295536, 1.49978588207523, 1.5663757549882575, 1.716469373441214, 1.8663904144486878, 1.9829260601909482, 2.2162440283573233, 2.449359907695907, 2.6326772503489337, 3.0323986885414342]",2017_Feb_24_1505,60.0121855439,famFaceFilter,001,25,
67,./img/edges5_LeonardoDiCaprio2_1.png,0,9,9,66,,,1.ja,1.205,None,act,0.456,None,None,None,None,None,Leonardo DiCaprio,"['lshift', 'l', 'e', 'o', 'n', 'a', 'r', 'd', 'o', 'space', 'lshift', 'd', 'i', 'lshift', 'c', 'a', 'p', 'r', 'i', 'o', 'return']","[0.45008871057871147, 0.7166903880461177, 0.8834098223487672, 1.0668006226878788, 1.2665689583227504, 1.4164912824307976, 1.6331978696616716, 1.8331006104053813, 2.082881761034514, 2.2328794674867822, 2.499330059494241, 2.6492514212768583, 2.8326367684239813, 3.182404735165619, 3.3823581585020293, 3.648925512945425, 4.365264330583159, 4.498403979418072, 4.698538320371881, 4.8484067541285185, 5.048431068942591]",2017_Feb_24_1505,60.0121855439,famFaceFilter,001,25,
33,./img/edges5_BarackObama2_1.png,0,10,10,32,,,1.ja,1.318,None,None,None,None,None,polit,0.971,None,Obaa,"['lshift', 'o', 'b', 'a', 'a', 'backspace', 'comma', 'a', 'return']","[0.5169955101009691, 0.8667596275299729, 1.3665554536564741, 1.5165467445913237, 1.7663503495350596, 2.149665382603416, 2.4995837932474387, 2.5993778230294993, 3.082305647487374]",2017_Feb_24_1505,60.0121855439,famFaceFilter,001,25,
22,./img/edges5_JasonSegel(Marshall)6_1.png,0,11,11,21,,,1.ja,7.353,None,act,0.736,None,None,None,None,None,Marshall,"['lshift', 'm', 'a', 'r', 's', 'h', 'a', 'l', 'l', 'return']","[0.7168164529830392, 0.8668045361555414, 1.5165544432129536, 1.6998926363012288, 1.8497341248803423, 2.049642639587546, 2.2159611039969604, 2.9826357579840987, 3.132525362951128, 3.8319894426240353]",2017_Feb_24_1505,60.0121855439,famFaceFilter,001,25,
40,./img/edges5_NicoleKidman3_1.png,0,12,12,39,,,1.ja,1.489,None,act,0.888,None,None,None,None,None,Nicole Kidman,"['lshift', 'n', 'i', 'c', 'o', 'l', 'e', 'space', 'lshift', 'k', 'i', 'd', 'm', 'a', 'n', 'return']","[0.8666175237958669, 1.28323872047622, 1.5495420763363654, 1.7163407422958699, 1.8829450180455751, 2.0495435198281484, 2.166296651645098, 2.2829086420570093, 2.5992273791234766, 2.8325046087484225, 3.0325440000306116, 3.149112685692671, 3.2657545082656725, 3.3823642532443046, 3.5323889048740966, 3.9155368136889592]",2017_Feb_24_1505,60.0121855439,famFaceFilter,001,25,
19,./img/edges5_HughLaurie(DrHouse)2_1.png,0,13,13,18,,,1.ja,1.254,None,act,0.455,None,None,None,None,None,Dr House,"['lshift', 'd', 'r', 'period', 'space', 'lshift', 'h', 'o', 'u', 's', 'e', 'return']","[0.3836630749392498, 0.6500023577027605, 0.9002062909930828, 1.083370623535302, 1.2168198211293202, 1.3999049220183224, 1.5665091977680277, 1.8664478333375882, 2.09963300027448, 2.216256217841874, 2.382986879303644, 2.665815968932293]",2017_Feb_24_1505,60.0121855439,famFaceFilter,001,25,
34,./img/edges5_KatjaBurkard1_1.png,0,14,14,33,,,1.ja,2.655,None,None,None,host,1.288,None,None,None,,['return'],[1.0501985442533623],2017_Feb_24_1505,60.0121855439,famFaceFilter,001,25,
31,./img/edges5_GeorgeClooney4_2.png,0,15,15,30,,,1.ja,1.671,None,act,0.656,None,None,None,None,None,George Clooney,"['lshift', 'g', 'e', 'o', 'r', 'g', 'e', 'space', 'lshift', 'c', 'l', 'o', 'o', 'n', 'e', 'y', 'return']","[0.733498083845916, 1.016547546529182, 1.2500005613583198, 1.8495737369194103, 2.4994968629725918, 2.64927932878345, 2.7493466596497456, 2.8992397931506275, 3.0324830526078586, 3.199154049747449, 3.38236938566115, 3.68225252699267, 3.8151795013909577, 4.115390154936904, 4.265293232492695, 4.46535668197248, 4.731814651826426]",2017_Feb_24_1505,60.0121855439,famFaceFilter,001,25,
15,./img/edges5_LisaEdelstein(DrLisaCuddy)6_3.png,0,16,16,14,,,2.nein,4.317,None,None,None,None,None,polit,0.751,None,,['return'],[1.0001950317600858],2017_Feb_24_1505,60.0121855439,famFaceFilter,001,25,
57,./img/edges5_BritneySpears5_1.png,0,17,17,56,,,1.ja,4.788,None,None,None,music,0.882,None,None,None,Britney Spears,"['lshift', 'b', 'r', 'i', 't', 'n', 'e', 's', 'space', 'backspace', 'backspace', 'y', 'space', 'lshift', 's', 'p', 'e', 'a', 'r', 's', 'return']","[4.231804226608801, 4.398544832121843, 4.615188868050609, 4.781770368710568, 4.998330040569272, 5.214550973058067, 5.298263222943206, 5.48157382930367, 5.664654118554608, 6.381140172339656, 6.7476847196157905, 7.247389445383305, 7.730551757034846, 7.980430102768878, 8.14701192420398, 8.313779474894545, 8.846570311994583, 9.496508193740738, 9.646157858322113, 9.729731853785779, 10.162894823028182]",2017_Feb_24_1505,60.0121855439,famFaceFilter,001,25,
23,./img/edges5_UrsulavonderLeyen1_1.png,0,18,18,22,,,1.ja,1.952,None,None,None,None,None,polit,0.623,None,,['return'],[0.9833469181940018],2017_Feb_24_1505,60.0121855439,famFaceFilter,001,25,
14,./img/edges5_AngelaMerkel4_1.png,0,19,19,13,,,1.ja,1.489,None,None,None,None,None,polit,0.639,None,Angela Merkel,"['lshift', 'a', 'n', 'g', 'e', 'l', 'a', 'space', 'lshift', 'm', 'e', 'r', 'k', 'e', 'l', 'return', 'plus']","[0.5668440878289402, 0.7668016812531278, 0.9499480503400264, 1.1334107044858683, 1.2496948619082104, 1.3996296962832275, 1.4998760201087862, 1.6493515033653239, 1.7495859584851132, 1.8995082825967984, 2.032977368296997, 2.133919455092837, 2.3162138433435757, 2.466077144687006, 2.5993210456945235, 2.9159082722035237]",2017_Feb_24_1505,60.0121855439,famFaceFilter,001,25,
36,./img/edges5_AngelaMerkel1_1.png,0,20,20,35,,,1.ja,2.306,None,None,None,None,None,polit,0.939,None,Angela Merkel,"['lshift', 'a', 'n', 'g', 'e', 'l', 'a', 'space', 'lshift', 'm', 'e', 'r', 'k', 'e', 'l', 'return']","[0.4168268140456348, 0.6501021190160827, 0.8833524034635047, 1.0830780758988112, 1.1667739662116219, 1.333224590300233, 1.4331417980356491, 1.5831019737051975, 1.6664405196461303, 1.8327461530170694, 1.99936325980525, 2.0995919409542694, 2.249296137440979, 2.382806282461388, 3.182449964573607, 3.4324803580893786]",2017_Feb_24_1505,60.0121855439,famFaceFilter,001,25,
12,./img/edges5_UrsulavonderLeyen4_1.png,0,21,21,11,,,1.ja,1.556,None,None,None,None,None,polit,0.839,None,,['return'],[0.6168581859274127],2017_Feb_24_1505,60.0121855439,famFaceFilter,001,25,
68,./img/edges5_MariskaHargitay(Liv)4_4.png,0,22,22,67,,,1.ja,1.838,None,act,0.573,None,None,None,None,None,,['return'],[1.1332904135160788],2017_Feb_24_1505,60.0121855439,famFaceFilter,001,25,
17,./img/edges5_NeilPatrickHarris(Barney)3_7.png,0,23,23,16,,,1.ja,1.256,None,act,0.789,None,None,None,None,None,Barney,"['lshift', 'b', 'a', 'r', 'n', 'e', 'y', 'return']","[0.9164648184196267, 1.1166315577393107, 1.2999136150428967, 1.4665172492423153, 1.6996767541058944, 1.8330512109132542, 2.016303115276969, 2.4325615143934556]",2017_Feb_24_1505,60.0121855439,famFaceFilter,001,25,
49,./img/edges5_RobertSeanLeonard(Wilson)2_6.png,0,24,24,48,,,1.ja,1.439,None,act,0.839,None,None,None,None,None,,['return'],[1.1831697857305699],2017_Feb_24_1505,60.0121855439,famFaceFilter,001,25,
38,./img/edges5_GeorgeClooney11_1.png,0,25,25,37,,,1.ja,1.138,None,act,0.506,None,None,None,None,None,George Clooney,"['lshift', 'g', 'e', 'o', 'r', 'g', 'e', 'space', 'lshift', 'c', 'l', 'o', 'o', 'n', 'e', 'y', 'return']","[0.5167052078941197, 0.7666688800200063, 0.9834165265674528, 1.1497625777046778, 1.2831665458943462, 1.5330458539574465, 1.649883991391107, 1.78294857866058, 2.0660262696255813, 2.2827290075438214, 2.4824768135149498, 2.715797668664891, 3.882183496014477, 4.115497294096713, 4.232043525444169, 4.44847584926174, 4.998335814536404]",2017_Feb_24_1505,60.0121855439,famFaceFilter,001,25,
21,./img/edges5_JoshRadnor(Ted)3_1.png,0,26,26,20,,,1.ja,1.552,None,act,0.872,None,None,None,None,None,Ted,"['lshift', 't', 'e', 'd', 'return']","[0.4834247063554358, 0.8330412668583449, 1.0501715990794764, 1.2330873302817054, 1.4499850999600312]",2017_Feb_24_1505,60.0121855439,famFaceFilter,001,25,
65,./img/edges5_LisaEdelstein(DrLisaCuddy)1_1.png,0,27,27,64,,,2.nein,1.906,None,None,None,host,1.056,None,None,None,,['return'],[0.7668353627232136],2017_Feb_24_1505,60.0121855439,famFaceFilter,001,25,
10,./img/edges5_GuentherJauch4_1.png,0,28,28,9,,,1.ja,1.406,None,None,None,host,2.106,None,None,None,Günther Jauch,"['lshift', 'g', u'\xfc', 'n', 't', 'h', 'e', 'r', 'space', 'lshift', 'j', 'a', 'u', 'c', 'h', 'return']","[0.7999519477671129, 1.1499220033365418, 1.5497605247401225, 1.8162287594241207, 2.082852570427349, 2.2661253252263123, 2.3993381109721668, 2.4659456265580957, 2.5994852829608135, 2.915780924162391, 3.099171082951216, 3.232397020507051, 3.3823161368563888, 3.465489803977107, 3.5989483040757477, 3.9486822685648804]",2017_Feb_24_1505,60.0121855439,famFaceFilter,001,25,
70,./img/edges5_BastianSchweinsteiger1_1.png,0,29,29,69,,,1.ja,1.471,None,None,None,None,None,sport,0.989,None,Schweinsteiger,"['lshift', 's', 'c', 'h', 'w', 'e', 'i', 'n', 's', 't', 'e', 'i', 'g', 'e', 'r', 'return']","[1.2331412206367531, 1.3997050786201726, 1.6330114988559217, 1.7496780211731675, 1.8829607360676164, 2.0494700621457014, 2.166145245413645, 2.366044136841083, 2.4662109082419192, 2.649272271712107, 2.7655416734451137, 3.39902054281265, 3.598931302949495, 3.6989867651063832, 3.7821306000660115, 4.2487296471699665]",2017_Feb_24_1505,60.0121855439,famFaceFilter,001,25,
2,./img/edges5_OmarEpps(DrEricForeman)1_5.png,0,30,30,1,,,1.ja,2.199,None,act,0.955,None,None,None,None,None,,['return'],[0.7835089741856791],2017_Feb_24_1505,60.0121855439,famFaceFilter,001,25,
13,./img/edges5_MariskaHargitay(Liv)6_5.png,0,31,31,12,,,1.ja,2.288,None,act,0.805,None,None,None,None,None,,['return'],[0.700087026503752],2017_Feb_24_1505,60.0121855439,famFaceFilter,001,25,
11,./img/edges5_RobertSeanLeonard(Wilson)1_1.png,0,32,32,10,,,1.ja,2.053,None,act,1.204,None,None,None,None,None,,['return'],[0.8493982724939997],2017_Feb_24_1505,60.0121855439,famFaceFilter,001,25,
3,./img/edges5_NicoleKidman5_1.png,0,33,33,2,,,1.ja,2.678,None,dummy,0.656,None,None,None,None,None,Nicole Kidman,"['lshift', 'n', 'i', 'c', 'o', 'e', 'backspace', 'l', 'e', 'space', 'lshift', 'k', 'i', 'd', 'm', 'a', 'n', 'return']","[0.6334384516012506, 0.8500103129445051, 1.083354263962974, 1.2332984008353378, 1.3666058154740313, 1.6663824592033052, 2.182936902412621, 2.782690674819605, 2.899317420920852, 3.0325651712410036, 3.149123912848154, 3.299020254111383, 3.4659270215524884, 3.615624481746636, 3.765744083048048, 3.93209077573556, 4.049097641302069, 4.432136486302625]",2017_Feb_24_1505,60.0121855439,famFaceFilter,001,25,
72,./img/edges5_EmilyDeschanel6_12.png,0,34,34,71,,,1.ja,2.184,None,dummy,0.672,None,None,None,None,None,Bones,"['lshift', 'b', 'o', 'n', 'e', 's', 'return']","[0.4002808713958075, 0.683599465075531, 1.033148341863125, 1.233311231873813, 1.3830853575127549, 1.6164857650874183, 2.1329260120728577]",2017_Feb_24_1505,60.0121855439,famFaceFilter,001,25,
39,./img/edges5_AlysonHannigan(Lily)8_3.png,0,35,35,38,,,1.ja,1.522,None,act,0.573,None,None,None,None,None,Lilli,"['lshift', 'l', 'i', 'l', 'l', 'i', 'return']","[0.40024847302629496, 0.6333386902915663, 0.8336276452391758, 1.0500285330199404, 1.199988067135564, 1.3832518402123242, 1.7164931108563906]",2017_Feb_24_1505,60.0121855439,famFaceFilter,001,25,
50,./img/edges5_WillSmith5_1.png,0,36,36,49,,,1.ja,1.272,None,dummy,1.473,None,None,None,None,None,Will Smith,"['lshift', 'w', 'i', 'l', 'l', 'space', 'lshift', 's', 'm', 'i', 't', 'h', 'return']","[0.3670003698534856, 0.6668071665189927, 0.8833764616574626, 1.1167123932755203, 1.2665981489299156, 1.3832614634884521, 1.4496736265427899, 1.5665861839879653, 1.7494865179505723, 1.9828625465561345, 2.199414840568352, 2.3662641891205567, 2.6825700951521867]",2017_Feb_24_1505,60.0121855439,famFaceFilter,001,25,
28,./img/edges5_Ice-T(OdafinFinTutuola)5_1.png,0,37,37,27,,,1.ja,1.305,None,dummy,0.427,None,None,None,None,None,,['return'],[0.6335462323077081],2017_Feb_24_1505,60.0121855439,famFaceFilter,001,25,
43,./img/edges5_BarackObama1_3.png,0,38,38,42,,,1.ja,1.393,None,None,None,None,None,polit,0.838,None,Obama,"['lshift', 'o', 'b', 'a', 'm', 'a', 'return']","[0.41691919750883244, 0.7168456435902044, 1.0167361627682112, 1.2665933372918516, 1.466441546126589, 1.516384752751037, 1.9662838847616513]",2017_Feb_24_1505,60.0121855439,famFaceFilter,001,25,
8,./img/edges5_LeonardoDiCaprio3_1.png,0,39,39,7,,,1.ja,1.671,None,act,1.039,None,None,None,None,None,Leonardo DiCaprio,"['lshift', 'l', 'e', 'o', 'n', 'a', 'r', 'd', 'o', 'space', 'lshift', 'd', 'i', 'lshift', 'c', 'a', 'p', 'r', 'i', 'o', 'return']","[0.36688360742118675, 0.6669553649953741, 0.8334031020967814, 1.1666530336915457, 1.4332277659777901, 1.5498766456221347, 1.8331981262854242, 1.9995191568996233, 2.199491506016784, 2.366136199532775, 2.599452884594939, 2.765992042834114, 2.9825497900383198, 3.332437085417041, 3.6323048295053013, 3.8489498277594976, 4.015412320553878, 4.182079147609329, 4.315489531320054, 4.465315301877126, 4.69843438897442]",2017_Feb_24_1505,60.0121855439,famFaceFilter,001,25,
5,./img/edges5_AlysonHannigan(Lily)1_1.png,0,40,40,4,,,1.ja,1.498,None,act,0.855,None,None,None,None,None,Lilli,"['lshift', 'l', 'i', 'l', 'l', 'i', 'return']","[0.48343208419828443, 0.7001915994551382, 0.9167701970945927, 1.1334681233747688, 1.266751159040723, 1.433275882365706, 1.6498394035370438]",2017_Feb_24_1505,60.0121855439,famFaceFilter,001,25,
27,./img/edges5_OmarEpps(DrEricForeman)2_2.png,0,41,41,26,,,1.ja,1.505,None,dummy,0.572,None,None,None,None,None,,['return'],[1.0167063306071213],2017_Feb_24_1505,60.0121855439,famFaceFilter,001,25,
1,./img/edges5_BastianSchweinsteiger6_2.png,0,42,42,0,,,1.ja,1.289,None,None,None,None,None,sport,0.873,None,Schweinsteiger,"['lshift', 's', 'c', 'h', 'w', 'e', 'i', 'n', 's', 't', 'e', 'o', 'g', 'backspace', 'backspace', 'i', 'g', 'e', 'r', 'return']","[1.1330966648602043, 1.3165432802088617, 1.5664806487111491, 1.6998089137850911, 1.7829684667631227, 1.9662976781291945, 2.132818231362762, 2.3161519335881167, 2.4161541469438816, 2.582465875057096, 2.682684612154844, 2.8993132508367125, 3.132428488621372, 3.4989662996013067, 3.665634409760969, 4.281987694394047, 4.498654505408922, 4.581854155378096, 4.665157415969588, 4.881762317232642]",2017_Feb_24_1505,60.0121855439,famFaceFilter,001,25,
16,./img/edges5_BritneySpears7_1.png,0,43,43,15,,,1.ja,1.968,None,None,None,music,0.822,None,None,None,Britney Spears,"['lshift', 'b', 'r', 'i', 't', 'n', 'e', 'y', 'space', 'lshift', 's', 'p', 'e', 'a', 'r', 's', 'return']","[0.5835799298183701, 0.8499278735325788, 1.050015701981465, 1.2164704961542157, 1.4164697904452623, 1.6329733265192772, 1.699767212914594, 1.899755280050158, 2.099565316551889, 2.3661734095367137, 2.499410253472888, 2.6658522166071634, 2.8325886520360655, 3.015865256151301, 3.1824820421607, 3.265882497857092, 3.6320424348050437]",2017_Feb_24_1505,60.0121855439,famFaceFilter,001,25,
64,./img/edges5_EmilyDeschanel3_1.png,0,44,44,63,,,1.ja,1.306,None,act,1.089,None,None,None,None,None,Bones,"['lshift', 'b', 'p', 'n', 'backspace', 'backspace', 'o', 'n', 'e', 's', 'return']","[0.5833893889248429, 0.9666348136197485, 1.2999036709916254, 1.5661659675351984, 1.9828336767241126, 2.149417743592494, 2.8323220872516686, 3.0325160925276577, 3.115836675016908, 3.2823136027291184, 3.5157204258248385]",2017_Feb_24_1505,60.0121855439,famFaceFilter,001,25,
48,./img/edges5_GeorgeClooney3_1.png,0,45,45,47,,,1.ja,1.388,None,act,0.64,None,None,None,None,None,George Clooney,"['lshift', 'g', 'e', 'o', 'r', 'g', 'e', 'space', 'lshift', 'c', 'l', 'o', 'o', 'n', 'e', 'y', 'return']","[0.5503016737129656, 1.050099745272746, 1.1999749153219454, 1.4332742784863512, 1.5832970054616453, 1.7498477116350841, 1.8665148755026166, 1.983061106850073, 2.1494851065363036, 2.299662768276903, 2.5162429697957123, 3.399138267574017, 3.5490737434956827, 3.782452979863592, 3.89899953198983, 4.065461704005429, 4.332084231908084]",2017_Feb_24_1505,60.0121855439,famFaceFilter,001,25,
51,./img/edges5_Ice-T(OdafinFinTutuola)6_1.png,0,46,46,50,,,1.ja,1.835,None,dummy,1.721,None,None,None,None,None,,['return'],[4.93156534478112],2017_Feb_24_1505,60.0121855439,famFaceFilter,001,25,
52,./img/edges5_BarackObama4_1.png,0,47,47,51,,,1.ja,1.536,None,None,None,None,None,polit,0.89,None,Obama,"['lshift', 'o', 'b', 'a', 'a', 'backspace', 'm', 'a', 'return']","[0.8831746936048148, 1.0831646853948769, 1.3664803920910344, 1.4830506816360867, 1.7331192474885029, 2.18270305677288, 2.848893371199665, 2.9657930976100033, 3.2656877868757874]",2017_Feb_24_1505,60.0121855439,famFaceFilter,001,25,
58,./img/edges5_HughLaurie(DrHouse)5_3.png,0,48,48,57,,,1.ja,1.555,None,act,2.672,None,None,None,None,None,Dr House,"['lshift', 'd', 'r', 'period', 'space', 'lshift', 'h', 'o', 'u', 's', 'e', 'return']","[0.9831448293662106, 1.2330350438096502, 1.4994708801241359, 1.6663288896270387, 1.8329155227002047, 2.3993390732975968, 2.865779977873899, 3.4656373608995636, 3.6988818713834917, 3.8654306528987945, 4.0651123790339625, 4.33187187825024]",2017_Feb_24_1505,60.0121855439,famFaceFilter,001,25,
6,./img/edges5_GuentherJauch3_1.png,0,49,49,5,,,1.ja,2.535,None,None,None,host,0.888,None,None,None,Günther Jauch,"['lshift', 'g', u'\xfc', 'n', 't', 'h', 'e', 'r', 'space', 'lshift', 'j', 'a', 'u', 'c', 'h', 'return']","[1.0000080194004113, 1.1666690724887303, 1.5831728651828598, 1.9163387534863432, 2.132937880782265, 2.31613589479457, 2.449531843587465, 2.516026125274948, 2.6326509467216965, 2.88254501047777, 3.0324731085529493, 3.1991935051883047, 3.3158869726830744, 3.432412995145569, 3.5489848885699757, 3.965604160592193]",2017_Feb_24_1505,60.0121855439,famFaceFilter,001,25,
71,./img/edges5_HughLaurie(DrHouse)4_1.png,0,50,50,70,,,1.ja,1.488,None,act,2.471,None,None,None,None,None,Dr House,"['lshift', 'd', 'r', 'period', 'space', 'lshift', 'h', 'o', 'u', 's', 'e', 'return']","[0.9166916069953004, 1.1499803845545102, 1.3830888860466075, 1.716212431929307, 1.8329556196913472, 2.0163903663305973, 2.166240836635552, 3.3821535034658154, 4.298701723626436, 4.581923442976404, 4.765238540199789, 5.0316163160750875]",2017_Feb_24_1505,60.0121855439,famFaceFilter,001,25,
46,./img/edges5_TomCruise5_1.png,0,51,51,45,,,1.ja,1.636,None,dummy,0.672,None,None,None,None,None,,['return'],[0.733583089462627],2017_Feb_24_1505,60.0121855439,famFaceFilter,001,25,
29,./img/edges5_TomCruise4_1.png,0,52,52,28,,,1.ja,1.423,None,act,0.723,None,None,None,None,None,,['return'],[0.6167930684168823],2017_Feb_24_1505,60.0121855439,famFaceFilter,001,25,
56,./img/edges5_NeilPatrickHarris(Barney)1_1.png,0,53,53,55,,,1.ja,1.306,None,act,0.773,None,None,None,None,None,Barney,"['lshift', 'b', 'a', 'r', 'n', 'e', 'y', 'return']","[0.5832636447667028, 0.8335169775491522, 0.9997388884039538, 1.1998158104688628, 1.4496646448169486, 1.716469373441214, 1.9162733151970315, 2.199258622698835]",2017_Feb_24_1505,60.0121855439,famFaceFilter,001,25,
18,./img/edges5_JoshRadnor(Ted)6_2.png,0,54,54,17,,,1.ja,1.289,None,act,0.755,None,None,None,None,None,Ted,"['lshift', 't', 'e', 'd', 'return']","[0.6335497608451988, 0.8669447152351495, 1.0500420056087023, 1.2165224618547654, 1.799780974204623]",2017_Feb_24_1505,60.0121855439,famFaceFilter,001,25,
62,./img/edges5_AlysonHannigan(Lily)5_4.png,0,55,55,61,,,1.ja,1.356,None,act,0.739,None,None,None,None,None,Lilli,"['lshift', 'l', 'i', 'l', 'l', 'i', 'return']","[0.43356778845191, 0.7001184625478345, 0.9166191116346454, 1.16641277252711, 1.2832528346152685, 1.5164729661264573, 1.783058604796679]",2017_Feb_24_1505,60.0121855439,famFaceFilter,001,25,
66,./img/edges5_BritneySpears1_1.png,0,56,56,65,,,1.ja,2.304,None,None,None,music,0.988,None,None,None,Britney Spears,"['lshift', 'b', 'r', 'i', 't', 'n', 'e', 'y', 'space', 'lshift', 's', 'p', 'e', 'a', 'r', 'a', 's', 'backspace', 'backspace', 's', 'return']","[1.1165369288464717, 1.316719386191835, 1.5331677488065907, 1.6997168510970369, 1.9163371496069885, 2.1162119828441064, 2.1995771531837818, 2.4160595180474047, 2.649361126641452, 2.899152221325494, 3.0490684506949037, 3.21574907111426, 3.4323873330722563, 3.5989483040757477, 3.7321816194780695, 3.8821870245519676, 4.032223544891167, 4.498646165237005, 4.665225420467323, 4.781586243334459, 4.981624030737294]",2017_Feb_24_1505,60.0121855439,famFaceFilter,001,25,
61,./img/edges5_NeilPatrickHarris(Barney)2_2.png,0,57,57,60,,,1.ja,1.503,None,act,0.473,None,None,None,None,None,Barney,"['lshift', 'b', 'a', 'r', 'n', 'e', 'y', 'return']","[0.5004543790892058, 0.7505300020129653, 0.9665767531769234, 1.1167287528478482, 1.3666032492692466, 1.4832197305440786, 1.699851256205875, 1.9831111478961247]",2017_Feb_24_1505,60.0121855439,famFaceFilter,001,25,
30,./img/edges5_MariskaHargitay(Liv)8_8.png,0,58,58,29,,,1.ja,1.737,None,act,0.456,None,None,None,None,None,,['return'],[1.0666011000685103],2017_Feb_24_1505,60.0121855439,famFaceFilter,001,25,
59,./img/edges5_BastianSchweinsteiger3_1.png,0,59,59,58,,,1.ja,1.274,None,None,None,None,None,sport,0.873,None,Schweinsteiger,"['lshift', 's', 'c', 'h', 'w', 'e', 'i', 'm', 's', 'backspace', 'backspace', 'n', 's', 't', 'e', 'i', 'g', 'e', 'r', 'return']","[0.5335895691350743, 0.733500970825844, 0.9666896662965883, 1.0832320483350486, 1.1833763654212817, 1.3664781466577551, 1.5165916532168922, 1.7498332767136162, 1.816463888168073, 2.282807918414619, 2.4494955959053186, 3.0323515344789485, 3.165903380366217, 3.33225905477957, 3.449072813244129, 3.5823475087418046, 3.799035170191928, 3.865617665254831, 3.9656503523219726, 4.382031287841528]",2017_Feb_24_1505,60.0121855439,famFaceFilter,001,25,
42,./img/edges5_JoachimLoew4_1.png,0,60,60,41,,,1.ja,1.335,None,None,None,None,None,sport,0.687,None,Jogi Löw,"['lshift', 'j', 'o', 'g', 'i', 'space', 'lshift', 'l', u'\xf6', 'w', 'return']","[0.4339164718767279, 0.783693420340569, 1.1170225835885503, 1.4000903304986423, 1.8331634824862704, 2.066430768056307, 2.7994662930286722, 3.0493735085947264, 3.2827274036644667, 3.432435449460172, 3.8657976205504383]",2017_Feb_24_1505,60.0121855439,famFaceFilter,001,25,
54,./img/edges5_KatjaBurkard5_3.png,0,61,61,53,,,1.ja,1.438,None,None,None,host,0.689,None,None,None,,['return'],[0.9502524666859244],2017_Feb_24_1505,60.0121855439,famFaceFilter,001,25,
45,./img/edges5_WillSmith4_1.png,0,62,62,44,,,1.ja,1.806,None,act,0.69,None,None,None,None,None,Will Smith,"['lshift', 'w', 'i', 'l', 'l', 'space', 'lshift', 's', 'm', 'i', 't', 'h', 'return']","[0.36678127990307985, 0.6001338918686088, 0.8499615550063027, 1.0166678374989715, 1.183224959189829, 1.2999716754857218, 1.3994962534961815, 1.5331427282835648, 1.7496802666028088, 2.0162232420771034, 2.299385297108529, 2.499375288898591, 2.9158258327915973]",2017_Feb_24_1505,60.0121855439,famFaceFilter,001,25,
4,./img/edges5_LeonardoDiCaprio1_1.png,0,63,63,3,,,1.ja,1.354,None,act,0.438,None,None,None,None,None,Leonardo DiCaprio,"['lshift', 'l', 'e', 'o', 'm', 'n', 'a', 'backspace', 'backspace', 'backspace', 'n', 'a', 'r', 'd', 'o', 'space', 'lshift', 'd', 'i', 'lshift', 'c', 'a', 'p', 'r', 'i', 'o', 'return']","[0.46696890173552674, 0.8001822648766392, 0.9833523713823524, 1.1667008293006802, 1.4166725208269781, 1.5164906088029966, 1.9330688215086411, 2.1164933033214766, 2.2329356032714713, 2.8992696253117174, 3.04919034554041, 3.2156874821339443, 3.3824078787692997, 3.5656463105478906, 3.815630833109026, 3.982142083841609, 4.132296008167032, 4.348741804573365, 4.86516505043619, 5.131597358216823, 5.364966008979536, 5.581540436531213, 5.714854908237612, 5.897995182585873, 6.081361603955884, 6.381168721396534]",2017_Feb_24_1505,60.0121855439,famFaceFilter,001,25,
69,./img/edges5_GuentherJauch2_1.png,0,64,64,68,,,1.ja,1.887,None,None,None,host,0.839,None,None,None,Günther Jauch,"['lshift', 'g', u'\xfc', 'n', 't', 'h', 'e', 'r', 'space', 'lshift', 'j', 'a', 'u', 'c', 'h', 'return']","[0.7833694366636337, 1.2332566999648407, 1.6330730878289614, 1.9162027444945124, 2.149513655589544, 2.3326346833819116, 2.482636559921957, 2.549304060605209, 2.6824218966758053, 2.9492349654719874, 3.09910853164547, 3.265471904680453, 3.415699607467104, 3.4827334342480754, 3.615594649585546, 3.9155150009246427]",2017_Feb_24_1505,60.0121855439,famFaceFilter,001,25,
37,./img/edges5_JasonSegel(Marshall)9_1.png,0,65,65,36,,,1.ja,1.504,None,act,0.956,None,None,None,None,None,Marshall,"['lshift', 'm', 'a', 'r', 's', 'h', 'a', u'\xf6', u'\xf6', 'backspace', 'backspace', 'l', 'l', 'return']","[0.5670237223421282, 0.866672697255126, 1.0332920494729478, 1.2498632692659157, 2.066333252176264, 2.199327910297143, 2.299394920384657, 2.516129735893628, 2.665438415675453, 3.1491043455207546, 3.315859706726769, 4.082165789182909, 4.231984502672276, 4.465241523415898]",2017_Feb_24_1505,60.0121855439,famFaceFilter,001,25,
53,./img/edges5_KatjaBurkard4_1.png,0,66,66,52,,,1.ja,1.451,None,None,None,host,1.121,None,None,None,,['return'],[1.166278367418272],2017_Feb_24_1505,60.0121855439,famFaceFilter,001,25,
63,./img/edges5_LisaEdelstein(DrLisaCuddy)2_2.png,0,67,67,62,,,2.nein,2.539,None,None,None,host,2.589,None,None,None,,['return'],[0.9667265555290214],2017_Feb_24_1505,60.0121855439,famFaceFilter,001,25,
60,./img/edges5_TomCruise1_1.png,0,68,68,59,,,1.ja,1.456,None,act,0.64,None,None,None,None,None,,['return'],[0.7335426716963411],2017_Feb_24_1505,60.0121855439,famFaceFilter,001,25,
24,./img/edges5_JasonSegel(Marshall)7_1.png,0,69,69,23,,,1.ja,1.739,None,dummy,2.039,None,None,None,None,None,Marshall,"['lshift', 'm', 'a', 'r', 's', 'h', 'a', u'\xf6', u'\xf6', 'backspace', 'backspace', 'l', 'l', 'return']","[1.6828482078744855, 1.9329719471861608, 2.1495816600872786, 2.349347750288871, 2.5160559574360377, 2.616033150268777, 2.7489405573360273, 3.132330010415899, 3.332416876535717, 3.7654573093786894, 3.915232397343061, 4.648463274847018, 4.781788652937394, 5.031764835326612]",2017_Feb_24_1505,60.0121855439,famFaceFilter,001,25,
9,./img/edges5_RobertSeanLeonard(Wilson)8_1.png,0,70,70,8,,,1.ja,1.853,None,act,0.756,None,None,None,None,None,,['return'],[0.8500638825244096],2017_Feb_24_1505,60.0121855439,famFaceFilter,001,25,
26,./img/edges5_NicoleKidman7_1.png,0,71,71,25,,,1.ja,7.537,None,act,1.62,None,None,None,None,None,Nicole Kidman,"['lshift', 'n', 'i', 'c', 'o', 'l', 'e', 'space', 'lshift', 'k', 'i', 'd', 'm', 'a', 'n', 'return']","[0.7999503438877582, 0.983225344120001, 1.2665670336646144, 1.3999078090018884, 1.5497990178482723, 1.7324529959005304, 1.832384317778633, 1.9495874982058012, 2.266091322977445, 2.5327523439882498, 2.6825980026551406, 2.799414006552979, 2.9492022463309695, 3.065854012955242, 3.1824053767159057, 3.515637665637769]",2017_Feb_24_1505,60.0121855439,famFaceFilter,001,25,
10,./img/gray_HughLaurie(DrHouse)2_1.png,0,0,0,9,,,1.ja,1.666,None,act,0.906,None,None,None,None,None,Dr House,"['lshift', 'd', 'r', 'space', 'lshift', 'h', 'o', 'u', 's', 'e', 'return']","[0.45012495825722, 0.6501675572981185, 0.8835269055598474, 1.266533672969672, 1.466520777776168, 1.6160754926859227, 1.8829722839982423, 2.082975427601923, 2.2162847668951144, 2.432723185458599, 2.7993302840368415]",2017_Feb_24_1505,60.0121855439,famFaceFilter,001,25,
37,./img/gray_TomCruise1_1.png,0,1,1,36,,,1.ja,1.655,None,act,0.622,None,None,None,None,None,,['return'],[2.249452676089277],2017_Feb_24_1505,60.0121855439,famFaceFilter,001,25,
50,./img/gray_BastianSchweinsteiger3_1.png,0,2,2,49,,,1.ja,1.588,None,None,None,None,None,sport,1.339,None,Schweinsteiger,"['lshift', 's', 'c', 'h', 'w', 'e', 'i', 'n', 's', 't', 'e', 'o', 'backspace', 'i', 'g', 'e', 'r', 'return']","[0.4999882916781644, 0.7834303840863868, 1.000025020519388, 1.133333076712006, 1.2330007207820017, 1.3832104601169704, 1.533229017004487, 1.7496693602188316, 1.833155463085859, 2.0162473002674233, 2.14953097749094, 2.3661875236757623, 2.932497840374708, 3.299086975501268, 3.532352657195588, 3.6652995197000564, 3.698396216637775, 4.248742478204804]",2017_Feb_24_1505,60.0121855439,famFaceFilter,001,25,
4,./img/gray_AngelaMerkel1_1.png,0,3,3,3,,,1.ja,1.667,None,None,None,None,None,polit,0.988,None,Angela Merkel,"['lshift', 'a', 'n', 'g', 'e', 'l', 'a', 'space', 'lshift', 'm', 'e', 'r', 'k', 'e', 'l', 'return']","[0.483610435610899, 0.6501909739417897, 0.8500773551131715, 1.066654990423558, 1.166571235829906, 1.3498664449471107, 1.4664810015638068, 1.5831026152518461, 1.7829373515014595, 1.882819273883797, 2.116234757930215, 2.2163129951768497, 2.36610123495484, 2.4993509099294897, 2.6326990631096123, 3.0324528996679874]",2017_Feb_24_1505,60.0121855439,famFaceFilter,001,25,
46,./img/gray_GuentherJauch3_1.png,0,4,4,45,,,1.ja,4.569,None,None,None,host,0.866,None,None,None,Günther Jauch,"['lshift', 'g', u'\xfc', 'n', 't', 'h', 'e', 'r', 'space', 'lshift', 'j', 'a', 'u', 'c', 'h', 'return']","[1.1667351523283287, 1.517165521338029, 1.9168888841850276, 2.2501230977613886, 2.53333326918073, 2.7166313652778626, 2.833285698110558, 2.8992705876407854, 3.0163682327911374, 3.2831588472727162, 3.449686457581265, 3.616390815415798, 3.7659076787676895, 3.833081043074344, 3.966257581138052, 4.432727355546376]",2017_Feb_24_1505,60.0121855439,famFaceFilter,001,25,
60,./img/gray_EmilyDeschanel3_1.png,0,5,5,59,,,1.ja,2.067,None,act,0.604,None,None,None,None,None,Bones,"['lshift', 'b', 'o', 'n', 'e', 's', 'return']","[0.5173304001582437, 0.767138175189757, 1.1831133291707374, 1.4164082014685846, 1.4997785042287433, 1.666658647267468, 1.9160503759339917]",2017_Feb_24_1505,60.0121855439,famFaceFilter,001,25,
14,./img/gray_JoshRadnor(Ted)6_2.png,0,6,6,13,,,1.ja,1.527,None,dummy,1.176,None,None,None,None,None,Ted,"['lshift', 't', 'e', 'd', 'return']","[0.36681143283931306, 0.8165684611194592, 0.9832962355976633, 1.1501718877771054, 1.4497634438012028]",2017_Feb_24_1505,60.0121855439,famFaceFilter,001,25,
71,./img/gray_BritneySpears7_1.png,0,7,7,70,,,1.ja,1.375,None,dummy,1.642,None,None,None,None,None,Britney Spears,"['lshift', 'b', 'r', 'i', 't', 'n', 'e', 'y', 'space', 'lshift', 's', 'p', 'e', 'a', 'r', 's', 'return']","[0.8999945788891637, 1.2829987800905656, 1.48271867855874, 1.6998182162860758, 1.9165969780988235, 2.1661523024813505, 2.2665169926222006, 3.716119727687328, 4.032046476582764, 4.265259551022609, 4.365192156001285, 4.565146541666763, 4.7154079259235, 4.89839903946995, 5.048546548274317, 5.131646116158663, 5.46474399996805]",2017_Feb_24_1505,60.0121855439,famFaceFilter,001,25,
52,./img/gray_EmilyDeschanel5_1.png,0,8,8,51,,,1.ja,1.24,None,act,0.942,None,None,None,None,None,,['return'],[4.381877956951939],2017_Feb_24_1505,60.0121855439,famFaceFilter,001,25,
27,./img/gray_LeonardoDiCaprio1_1.png,0,9,9,26,,,1.ja,5.722,None,act,0.866,None,None,None,None,None,Leonardo DiCaprio,"['lshift', 'l', 'e', 'o', 'n', 'a', 'r', 'd', 'o', 'space', 'lshift', 'd', 'i', 'lshift', 'v', 'backspace', 'lshift', 'c', 'a', 'p', 'r', 'i', 'o', 'return']","[0.5001275084250665, 0.8165864245675039, 0.9833356910348812, 1.1997927146003349, 1.4164883954472316, 1.5496158547975938, 1.7833344720856985, 1.999594218461425, 2.399417663396889, 2.615927935763466, 2.848977093712165, 3.0324522581177007, 3.1990270224814594, 3.4154195700866694, 3.648661514362175, 4.181802638766385, 4.548139323243959, 4.7982839129908825, 5.081459119832289, 5.281464508869249, 5.448182660071325, 5.6151526203684625, 5.781092889967113, 6.014921533398592]",2017_Feb_24_1505,60.0121855439,famFaceFilter,001,25,
42,./img/gray_NicoleKidman5_1.png,0,10,10,41,,,1.ja,1.367,None,act,0.676,None,None,None,None,None,Nicole Kidman,"['lshift', 'n', 'i', 'c', 'o', 'l', 'e', 'space', 'lshift', 'k', 'i', 'd', 'm', 'a', 'n', 'return']","[1.1498292990945629, 1.4327911899526953, 1.666422876965953, 1.8162034181223135, 1.9329427565717197, 2.0993776626382896, 2.2158918163950148, 2.3328268281547935, 2.7161502013987047, 2.998760521848453, 3.1657628805151035, 3.2820207343138463, 3.398860796402005, 3.515634778650565, 3.631950692892133, 3.981709357129148]",2017_Feb_24_1505,60.0121855439,famFaceFilter,001,25,
53,./img/gray_Ice-T(OdafinFinTutuola)5_1.png,0,11,11,52,,,1.ja,1.426,None,act,0.444,None,None,None,None,None,,['return'],[0.5827940288218088],2017_Feb_24_1505,60.0121855439,famFaceFilter,001,25,
54,./img/gray_LeonardoDiCaprio3_1.png,0,12,12,53,,,1.ja,1.276,None,act,0.843,None,None,None,None,None,Leonardo DiCaprio,"['lshift', 'l', 'e', 'o', 'n', 'a', 'r', 'd', 'o', 'space', 'lshift', 'd', 'i', 'lshift', 'c', 'a', 'p', 'r', 'i', 'o', 'return']","[0.6006275660074607, 0.9000811883852293, 1.0999489645510039, 1.2833609361005074, 1.5164777777681593, 1.6334644344497065, 1.8335025426313223, 2.0168263008017675, 2.1834485400031554, 2.3992932023429603, 2.682487334965117, 2.8826951336050115, 3.115899547097797, 3.315749359811889, 3.4322153971806983, 3.6987176341099257, 3.8485963326966157, 4.081938359056949, 4.8650267960183555, 5.03155921796133, 5.29823403233604]",2017_Feb_24_1505,60.0121855439,famFaceFilter,001,25,
51,./img/gray_AlysonHannigan(Lily)1_1.png,0,13,13,50,,,1.ja,1.307,None,act,0.477,None,None,None,None,None,Lilli,"['lshift', 'l', 'i', 'l', 'l', 'i', 'return']","[0.40023917052531033, 0.6834503042700817, 0.900074131313886, 1.1332817525653809, 1.2831941326221568, 1.4664797184595955, 1.7162194889970124]",2017_Feb_24_1505,60.0121855439,famFaceFilter,001,25,
24,./img/gray_JoachimLoew1_1.png,0,14,14,23,,,1.ja,1.41,None,None,None,None,None,sport,0.953,None,Jogi Löw,"['lshift', 'j', 'o', 'g', 'i', 'space', 'lshift', 'l', u'\xf6', 'w', 'return']","[0.7497431386836979, 0.899911818702094, 1.1666305793769425, 1.5167513996275375, 1.7161473144151387, 1.8492776607490669, 2.049300692458928, 2.249815152878, 2.433027601804497, 2.53239596194544, 2.9489324737842253]",2017_Feb_24_1505,60.0121855439,famFaceFilter,001,25,
68,./img/gray_Ice-T(OdafinFinTutuola)7_1.png,0,15,15,67,,,1.ja,1.278,None,dummy,0.537,None,None,None,None,None,,['return'],[0.7331051333458163],2017_Feb_24_1505,60.0121855439,famFaceFilter,001,25,
57,./img/gray_UrsulavonderLeyen5_1.png,0,16,16,56,,,1.ja,1.794,None,None,None,None,None,polit,0.921,None,,['return'],[0.8504545875948679],2017_Feb_24_1505,60.0121855439,famFaceFilter,001,25,
41,./img/gray_RobertSeanLeonard(Wilson)1_1.png,0,17,17,40,,,1.ja,1.375,None,act,0.493,None,None,None,None,None,,['return'],[0.649415337771643],2017_Feb_24_1505,60.0121855439,famFaceFilter,001,25,
1,./img/gray_JoachimLoew8_1.png,0,18,18,0,,,1.ja,1.475,None,None,None,None,None,sport,0.625,None,Jogi Löw,"['lshift', 'j', 'o', 'g', 'i', 'space', 'lshift', 'l', u'\xf6', 'w', 'return']","[0.49999214099079836, 0.8667522496834863, 1.2500676035269862, 1.5831006906009861, 1.7831031926507421, 1.9165831847349182, 2.23274891168694, 2.5330083231747267, 2.7158473889321613, 2.832398752696463, 3.032582813917543]",2017_Feb_24_1505,60.0121855439,famFaceFilter,001,25,
9,./img/gray_RobertSeanLeonard(Wilson)8_1.png,0,19,19,8,,,1.ja,1.376,None,act,0.526,None,None,None,None,None,,['return'],[0.6339318049649592],2017_Feb_24_1505,60.0121855439,famFaceFilter,001,25,
55,./img/gray_Ice-T(OdafinFinTutuola)6_1.png,0,20,20,54,,,1.ja,1.176,None,act,0.61,None,None,None,None,None,,['return'],[1.0332234034249268],2017_Feb_24_1505,60.0121855439,famFaceFilter,001,25,
38,./img/gray_MariskaHargitay(Liv)4_4.png,0,21,21,37,,,1.ja,1.459,None,act,0.658,None,None,None,None,None,,['return'],[0.8501046210658387],2017_Feb_24_1505,60.0121855439,famFaceFilter,001,25,
22,./img/gray_GuentherJauch4_1.png,0,22,22,21,,,1.ja,1.124,None,None,None,host,0.708,None,None,None,Günther Jauch,"['lshift', 'h', 'backspace', 'lshift', 'g', u'\xfc', 'n', 't', 'h', 'e', 'r', 'space', 'lshift', 'j', 'a', 'u', 'c', 'h', 'return']","[0.5502641429302457, 0.8669559423869941, 1.3001307803388045, 1.5663488098070957, 1.8835907399661664, 2.316089382282371, 2.58270902320146, 2.8158925862589967, 3.0160545139406167, 3.1157657835356076, 3.1828150075634767, 3.2993625220151444, 3.549213922571653, 3.782219134216575, 3.9487913323755492, 4.099233955028467, 4.198998794203362, 4.298676061549486, 4.615125033640652]",2017_Feb_24_1505,60.0121855439,famFaceFilter,001,25,
26,./img/gray_BarackObama1_3.png,0,23,23,25,,,1.ja,1.755,None,None,None,None,None,polit,0.742,None,Obama,"['lshift', 'o', 'b', 'a', 'comma', 'a', 'backspace', 'm', 'a', 'return']","[0.4833454747022188, 0.7664837923184677, 1.0668426443371573, 1.2001022633630782, 1.3496694885325269, 1.466829043438338, 2.0159701498778304, 2.999230137796985, 3.115964343833184, 3.5319462341067265]",2017_Feb_24_1505,60.0121855439,famFaceFilter,001,25,
2,./img/gray_BastianSchweinsteiger1_1.png,0,24,24,1,,,1.ja,1.492,None,None,None,None,None,sport,1.126,None,Schweinsteiger,"['lshift', 's', 'c', 'h', 'w', 'e', 'i', 'n', 's', 't', 'e', 'i', 'g', 'e', 'r', 'return']","[0.5171292736558826, 0.7001515024639957, 0.9333058749143675, 1.0166187587819877, 1.1336102271052368, 1.316456670712796, 2.0997388563228014, 2.2827351022824587, 2.3830821497504076, 2.53270615225847, 2.665917654896475, 2.8658133385688416, 3.415807708948705, 3.58278087700819, 3.665782287458569, 3.9327964827571122]",2017_Feb_24_1505,60.0121855439,famFaceFilter,001,25,
64,./img/gray_LisaEdelstein(DrLisaCuddy)2_2.png,0,25,25,63,,,2.nein,2.219,None,None,None,host,1.092,None,None,None,,['return'],[1.1163659552839817],2017_Feb_24_1505,60.0121855439,famFaceFilter,001,25,
3,./img/gray_KatjaBurkard1_1.png,0,26,26,2,,,1.ja,1.195,None,None,None,host,0.771,None,None,None,,['return'],[0.8830489494430367],2017_Feb_24_1505,60.0121855439,famFaceFilter,001,25,
48,./img/gray_LeonardoDiCaprio2_1.png,0,27,27,47,,,1.ja,1.656,None,dummy,1.439,None,None,None,None,None,Leonardo DiCaprio,"['lshift', 'l', 'e', 'o', 'n', 'a', 'r', 'd', 'o', 'space', 'lshift', 'd', 'i', 'lshift', 'c', 'a', u'\xfc', 'backspace', 'p', 'r', 'i', 'o', 'return']","[4.6484998433006695, 4.86508132792369, 5.081694890137442, 5.264686324455397, 5.498161793599138, 5.664732387878757, 5.84802952165046, 6.014640533692727, 6.847625664766383, 6.96426588346003, 7.264046055723156, 7.430752979766112, 7.630655078955897, 7.896994040944264, 8.080146504777076, 8.346944176329998, 8.930148798324808, 9.562966548524855, 10.39614254127082, 10.529448031255015, 10.696144048917631, 10.879298758180084, 11.195846208476723]",2017_Feb_24_1505,60.0121855439,famFaceFilter,001,25,
13,./img/gray_NeilPatrickHarris(Barney)2_2.png,0,28,28,12,,,1.ja,1.418,None,act,1.739,None,None,None,None,None,Barney,"['lshift', 'b', 'a', 'r', 'n', 'e', 'y', 'return']","[1.016715633111744, 1.1999704244590248, 1.3998776560656552, 1.566493158970843, 1.8163695800503774, 1.9996455426080502, 2.1829073910303123, 2.499194692056335]",2017_Feb_24_1505,60.0121855439,famFaceFilter,001,25,
72,./img/gray_WillSmith4_1.png,0,29,29,71,,,1.ja,3.021,None,act,1.355,None,None,None,None,None,Will Smith,"['lshift', 'w', 'i', 'l', 'l', 'space', 'lshift', 's', 'm', 'i', 't', 'h', 'return']","[0.750112351764983, 0.9833549375907751, 1.1499556848066277, 1.366006606062001, 1.5164007915482216, 1.5996479163513868, 1.71628011564826, 1.8662281018332578, 2.016036229717429, 2.781704930421256, 3.0326049474570027, 3.215745221801626, 3.732176166286081]",2017_Feb_24_1505,60.0121855439,famFaceFilter,001,25,
21,./img/gray_HughLaurie(DrHouse)4_1.png,0,30,30,20,,,1.ja,3.42,None,dummy,0.67,None,None,None,None,None,Dr House,"['lshift', 'd', 'r', 'space', 'lshift', 'h', 'p', 'backspace', 'o', 'u', 's', 'e', 'return']","[0.36688168276668875, 0.6333906559921161, 0.9167718009739474, 1.1331675563415047, 1.2997724736414966, 1.4996370420485619, 1.7829331814136822, 2.316034529605531, 2.9656830714702664, 3.182373940679099, 3.282398287570686, 3.4989245987344475, 3.798732678504166]",2017_Feb_24_1505,60.0121855439,famFaceFilter,001,25,
58,./img/gray_GeorgeClooney3_1.png,0,31,31,57,,,1.ja,1.155,None,act,0.473,None,None,None,None,None,George Clooney,"['lshift', 'g', 'e', 'o', 'r', 'g', 'e', 'space', 'lshift', 'c', 'l', 'o', 'o', 'n', 'e', 'y', 'return']","[0.4170754153819871, 0.7334679309096828, 0.9167121366554056, 1.149977176795801, 1.3167209900711896, 1.5330766484439664, 1.6664427650757716, 1.7829963742697146, 1.999576896563667, 2.1661891917137837, 2.4160883878830646, 2.749296939382475, 3.232494536387094, 3.582219198375242, 3.715618034151703, 3.882042354613077, 4.248656510262663]",2017_Feb_24_1505,60.0121855439,famFaceFilter,001,25,
20,./img/gray_WillSmith1_1.png,0,32,32,19,,,1.ja,1.567,None,act,0.755,None,None,None,None,None,Will Smith,"['lshift', 'w', 'i', 'l', 'l', 'space', 'lshift', 's', 'comma', 'm', 'i', 't', 'h', 'return']","[0.36668216014368227, 0.7167468446059502, 0.9166486230205919, 1.1500089336077508, 1.282978891980747, 1.3664569754473632, 1.449731686981977, 1.5826747001774493, 1.6996603945335664, 2.6992196484206943, 2.9157552620854403, 3.165657986788574, 3.332267074179981, 3.9320641513331793]",2017_Feb_24_1505,60.0121855439,famFaceFilter,001,25,
32,./img/gray_MariskaHargitay(Liv)6_5.png,0,33,33,31,,,1.ja,1.57,None,act,0.788,None,None,None,None,None,,['return'],[1.233432805944176],2017_Feb_24_1505,60.0121855439,famFaceFilter,001,25,
16,./img/gray_JoshRadnor(Ted)1_2.png,0,34,34,15,,,1.ja,1.372,None,act,0.538,None,None,None,None,None,Ted,"['lshift', 't', 'e', 'd', 'return']","[0.4667087524685485, 0.8166525044107402, 1.0333071259410644, 1.2165324059060367, 1.4831318379401637]",2017_Feb_24_1505,60.0121855439,famFaceFilter,001,25,
30,./img/gray_BarackObama4_1.png,0,35,35,29,,,1.ja,2.239,None,None,None,None,None,polit,0.756,None,Obama,"['lshift', 'o', 'b', 'a', 'm', 'a', 'return']","[1.7663384808220144, 2.049717059599061, 2.3159848093346227, 2.482364862717077, 2.5995228137435333, 2.682920061677578, 3.082436203283578]",2017_Feb_24_1505,60.0121855439,famFaceFilter,001,25,
70,./img/gray_WillSmith5_1.png,0,36,36,69,,,1.ja,2.189,None,dummy,0.772,None,None,None,None,None,Will Smith,"['lshift', 'w', 'i', 'l', 'l', 'space', 'lshift', 's', 'm', 'i', 't', 'h', 'return']","[2.332725783744536, 2.6158307406622043, 2.799236296694289, 2.999109205273271, 3.1325054748413095, 3.232383547914651, 3.565580872258579, 3.7655076711962465, 3.882144682127546, 4.098786151847889, 4.298643663183611, 4.498590029448678, 4.931678257904423]",2017_Feb_24_1505,60.0121855439,famFaceFilter,001,25,
31,./img/gray_AngelaMerkel3_1.png,0,37,37,30,,,1.ja,1.5,None,None,None,None,None,polit,1.52,None,Angela Merkel,"['lshift', 'e', 'backspace', 'lshift', 'a', 'n', 'g', 'e', 'l', 'a', 'space', 'lshift', 'm', 'e', 'r', 'k', 'e', 'l', 'return']","[0.5836639731132891, 0.850191872115829, 1.3497230581124313, 1.5331064806050563, 1.6832693866563204, 1.9164978583394259, 2.133065549598541, 2.199652535524365, 2.433011242235807, 2.5328662194406206, 3.032501657609828, 3.2491886775096646, 3.3825031492197013, 3.582466837382526, 3.715537840173056, 3.8156674015663157, 3.948697345032997, 4.048886249973293, 4.332188484080689]",2017_Feb_24_1505,60.0121855439,famFaceFilter,001,25,
66,./img/gray_NeilPatrickHarris(Barney)3_7.png,0,38,38,65,,,1.ja,2.596,None,act,0.471,None,None,None,None,None,Barney,"['lshift', 'b', 'a', 'r', 'n', 'e', 'y', 'return']","[0.7499253394053085, 1.0168362448566768, 1.1497545583079045, 1.3497840055351844, 1.599655935751798, 1.7331356070571928, 1.9158800439217885, 2.2660910022059397]",2017_Feb_24_1505,60.0121855439,famFaceFilter,001,25,
33,./img/gray_KatjaBurkard4_1.png,0,39,39,32,,,1.ja,1.371,None,None,None,host,0.838,None,None,None,,['return'],[0.8168555555639614],2017_Feb_24_1505,60.0121855439,famFaceFilter,001,25,
19,./img/gray_JasonSegel(Marshall)9_1.png,0,40,40,18,,,1.ja,1.288,None,act,0.806,None,None,None,None,None,Marshall,"['lshift', 'm', 'a', 'r', 's', 'h', 'a', 'l', 'l', 'return']","[0.6501781429069524, 0.8667095864875591, 1.0334376817409066, 1.2498687224579044, 1.3664078967340174, 1.4998724915749335, 1.6162823931554158, 1.8830544026350253, 2.032734540927777, 2.7326849168930494]",2017_Feb_24_1505,60.0121855439,famFaceFilter,001,25,
47,./img/gray_HughLaurie(DrHouse)5_3.png,0,41,41,46,,,1.ja,2.521,None,act,0.605,None,None,None,None,None,Dr House,"['lshift', 'd', 'r', 'space', 'lshift', 'h', 'o', 'u', 's', 'e', 'return']","[0.5835298887795943, 0.8334855415087077, 1.0833593963761814, 1.3832396507277736, 1.5664861019031378, 1.6831166973170184, 1.9663268687363598, 2.1828794835273584, 2.299548572049389, 2.5159561961263535, 2.749365264651715]",2017_Feb_24_1505,60.0121855439,famFaceFilter,001,25,
6,./img/gray_NicoleKidman3_1.png,0,42,42,5,,,1.ja,1.472,None,act,0.722,None,None,None,None,None,Nicole Kidman,"['lshift', 'n', 'i', 'c', 'o', 'l', 'e', 'space', 'lshift', 'k', 'i', 'd', 'm', 'a', 'n', 'return']","[0.41687717586319195, 0.6833136537316022, 0.9834399432074861, 1.083206386261736, 2.0995572971551155, 2.2661651014386734, 2.3327546535765578, 2.4661849253898254, 2.565948160685366, 2.6828010538119997, 2.882566181684524, 3.0158610860635235, 3.4494173265811696, 3.5989483040721097, 3.7157627040905936, 4.098721034333721]",2017_Feb_24_1505,60.0121855439,famFaceFilter,001,25,
23,./img/gray_TomCruise4_1.png,0,43,43,22,,,1.ja,1.216,None,act,0.405,None,None,None,None,None,,['return'],[0.6668039587602834],2017_Feb_24_1505,60.0121855439,famFaceFilter,001,25,
45,./img/gray_NicoleKidman7_1.png,0,44,44,44,,,1.ja,1.789,None,act,0.489,None,None,None,None,None,Nicole Kidman,"['lshift', 'n', 'i', 'c', 'o', 'l', 'e', 'space', 'lshift', 'k', 'i', 'd', 'm', 'a', 'n', 'return']","[0.4335434094828088, 0.7333264687295014, 0.9667252724284481, 1.1164461492626288, 1.733165759993426, 1.9163740388357837, 2.016212335693126, 2.1661811723133724, 2.4161778843590582, 2.5993845593220612, 2.7491410422844638, 2.899277003158204, 3.032490430450707, 3.149124233626935, 3.2489557941917155, 3.5656212900248647]",2017_Feb_24_1505,60.0121855439,famFaceFilter,001,25,
35,./img/gray_JoachimLoew4_1.png,0,45,45,34,,,1.ja,1.471,None,None,None,None,None,sport,0.821,None,Jogi Löw,"['lshift', 'j', 'o', 'g', 'i', 'space', 'lshift', 'l', u'\xf6', 'w', 'return']","[0.550125246958487, 0.7500972752968664, 1.0333754512103042, 1.2999222759935947, 1.483138895011507, 1.5997322804178111, 1.7997161774655979, 1.9828554894847912, 2.182869539472449, 2.316241109292605, 2.865915986862092]",2017_Feb_24_1505,60.0121855439,famFaceFilter,001,25,
39,./img/gray_UrsulavonderLeyen1_1.png,0,46,46,38,,,1.ja,1.604,None,None,None,None,None,polit,0.72,None,,['return'],[0.8167936458157783],2017_Feb_24_1505,60.0121855439,famFaceFilter,001,25,
44,./img/gray_BritneySpears5_1.png,0,47,47,43,,,1.ja,1.505,None,None,None,music,0.805,None,None,None,Britney Spears,"['lshift', 'b', 'r', 'i', 't', 'n', 'e', 'y', 'space', 'lshift', 's', 'p', 'e', 'a', 'r', 's', 'return']","[1.049714172615495, 1.2498558914157911, 1.4830824384480366, 1.633238928978244, 1.8494348409476515, 2.0661812043908867, 2.199439219537453, 2.3660922532289987, 2.549401576485252, 2.849208373147121, 3.0158476134747616, 3.165816450095008, 3.3823302509954374, 3.5823330738239747, 3.732216904823872, 3.915291099332535, 4.365178041862237]",2017_Feb_24_1505,60.0121855439,famFaceFilter,001,25,
15,./img/gray_GeorgeClooney11_1.png,0,48,48,14,,,1.ja,1.35,None,dummy,0.438,None,None,None,None,None,George Clooney,"['lshift', 'g', 'e', 'o', 'r', 'g', 'e', 'space', 'lshift', 'c', 'l', 'o', 'o', 'n', 'e', 'y', 'return']","[1.3664188031143567, 1.633035877825023, 1.766485075419041, 2.0493032586673507, 2.1996108346575056, 2.3494943448822596, 2.4491401761915768, 2.5327221910556545, 2.6993145980959525, 2.8492484701419016, 2.9992035133946047, 3.248727080961544, 3.382299135733774, 3.665677072960534, 3.7654884246403526, 3.9655384015277377, 4.29856635618853]",2017_Feb_24_1505,60.0121855439,famFaceFilter,001,25,
59,./img/gray_AlysonHannigan(Lily)5_4.png,0,49,49,58,,,1.ja,2.715,None,act,0.706,None,None,None,None,None,Lilli,"['lshift', 'l', 'i', 'l', 'l', 'i', 'return']","[0.4668992933620757, 0.6503741369924683, 0.8497963554073067, 1.0666739162006706, 1.2166802836036368, 1.4165377949393587, 1.6496969790277944]",2017_Feb_24_1505,60.0121855439,famFaceFilter,001,25,
49,./img/gray_NeilPatrickHarris(Barney)1_1.png,0,50,50,48,,,1.ja,1.655,None,act,0.639,None,None,None,None,None,Barney,"['lshift', 'b', 'a', 'r', 'n', 'e', 'y', 'return']","[0.38366596192281577, 0.6502785457669233, 0.8501065457203367, 1.0333863575906435, 1.283280421346717, 1.3998859962375718, 1.5998705348392832, 1.8995326615622616]",2017_Feb_24_1505,60.0121855439,famFaceFilter,001,25,
69,./img/gray_OmarEpps(DrEricForeman)3_1.png,0,51,51,68,,,1.ja,1.238,None,act,0.639,None,None,None,None,None,,['return'],[0.8334762390040851],2017_Feb_24_1505,60.0121855439,famFaceFilter,001,25,
65,./img/gray_KatjaBurkard5_3.png,0,52,52,64,,,1.ja,1.189,None,None,None,host,0.804,None,None,None,,['return'],[0.8161437538037717],2017_Feb_24_1505,60.0121855439,famFaceFilter,001,25,
62,./img/gray_LisaEdelstein(DrLisaCuddy)1_1.png,0,53,53,61,,,2.nein,1.673,None,None,None,host,1.539,None,None,None,,['return'],[1.199930969021807],2017_Feb_24_1505,60.0121855439,famFaceFilter,001,25,
29,./img/gray_UrsulavonderLeyen4_1.png,0,54,54,28,,,1.ja,1.339,None,None,None,None,None,polit,0.672,None,,['return'],[0.6500684375423589],2017_Feb_24_1505,60.0121855439,famFaceFilter,001,25,
40,./img/gray_BritneySpears1_1.png,0,55,55,39,,,1.ja,1.655,None,None,None,music,1.056,None,None,None,Britney Spears,"['lshift', 'b', 'r', 'i', 't', 'n', 'e', 'y', 'space', 'lshift', 's', 'p', 'e', 'r', 'backspace', 'a', 'r', 's', 'return']","[0.5835456067979976, 0.8167317360639572, 1.0833334135277255, 1.2331999226298649, 1.4331527044159884, 1.6497479824029142, 1.7830993433417461, 1.96625084484549, 2.166255271553382, 2.416048290891922, 2.5826025255992135, 2.7159336776567216, 2.8992186219402356, 3.1158360334666213, 3.6322913569201773, 3.882104264364898, 4.115405872958945, 4.265354821473011, 4.64853320399925]",2017_Feb_24_1505,60.0121855439,famFaceFilter,001,25,
11,./img/gray_EmilyDeschanel6_12.png,0,56,56,10,,,1.ja,5.998,None,dummy,1.751,None,None,None,None,None,Bones,"['lshift', 'b', 'o', 'n', 'e', 's', 'return']","[1.3665259422705276, 1.5997999641367642, 2.016302152951539, 2.2492255667384597, 2.315911672427319, 2.58250148118168, 2.99919421089362]",2017_Feb_24_1505,60.0121855439,famFaceFilter,001,25,
28,./img/gray_GeorgeClooney4_2.png,0,57,57,27,,,1.ja,1.255,None,act,0.472,None,None,None,None,None,George Clooney,"['lshift', 'g', 'e', 'o', 'r', 'g', 'e', 'space', 'lshift', 'c', 'l', 'o', 'o', 'n', 'e', 'y', 'return']","[0.35039604598932783, 0.6500007538234058, 0.850207269362727, 1.0333485060364183, 1.1832102035004937, 1.3499328455618524, 1.4164813383831643, 1.532932299280219, 1.682984858416603, 1.8660487880952132, 2.0829664458797197, 2.3494122262491146, 2.499403517180326, 2.7325681544607505, 2.86591694919116, 3.0491775145092106, 3.399009636432311]",2017_Feb_24_1505,60.0121855439,famFaceFilter,001,25,
67,./img/gray_AngelaMerkel4_1.png,0,58,58,66,,,1.ja,1.203,None,None,None,None,None,polit,1.021,None,Angela Merkel,"['lshift', 'a', 'n', 'g', 'e', 'l', 'a', 'space', 'lshift', 'm', 'e', 'r', 'k', 'e', 'l', 'return']","[0.400240774404665, 0.5834962073058705, 0.7667699244339019, 0.9501543092555949, 1.0165260545436468, 1.2000175785215106, 1.3164281216559175, 1.4331337786352378, 1.6664584830978129, 2.1328968214656925, 2.332812714019383, 2.432725430891878, 2.599305006897339, 2.7159509995544795, 2.8158361296991643, 3.049126511137729]",2017_Feb_24_1505,60.0121855439,famFaceFilter,001,25,
56,./img/gray_GuentherJauch2_1.png,0,59,59,55,,,1.ja,1.438,None,None,None,host,1.155,None,None,None,Günther Jauch,"['lshift', 'g', u'\xfc', 'n', 't', 'h', 'e', 'r', 'space', 'lshift', 'j', 'a', 'u', 'c', 'h', 'return']","[0.9002078948724375, 1.1501635476015508, 1.56640141706157, 1.8164719075684843, 2.0660233826420153, 2.2328615040350996, 2.3328810392886226, 2.41607234908588, 2.5327180209678772, 2.7325970242891344, 2.8992099609895376, 3.0492910691828, 3.832289688882156, 3.9653767304662324, 4.065331148209225, 4.350031644546107]",2017_Feb_24_1505,60.0121855439,famFaceFilter,001,25,
63,./img/gray_JoshRadnor(Ted)3_1.png,0,60,60,62,,,1.ja,1.433,None,act,0.938,None,None,None,None,None,Ted,"['lshift', 't', 'e', 'd', 'return']","[0.4833278320293175, 0.750185809451068, 0.9168561650403717, 1.13347710510061, 1.349969093240361]",2017_Feb_24_1505,60.0121855439,famFaceFilter,001,25,
36,./img/gray_TomCruise5_1.png,0,61,61,35,,,1.ja,1.405,None,act,0.589,None,None,None,None,None,,['return'],[0.6002814487910655],2017_Feb_24_1505,60.0121855439,famFaceFilter,001,25,
34,./img/gray_RobertSeanLeonard(Wilson)2_6.png,0,62,62,33,,,1.ja,1.122,None,act,0.506,None,None,None,None,None,,['return'],[1.1498886426379613],2017_Feb_24_1505,60.0121855439,famFaceFilter,001,25,
25,./img/gray_MariskaHargitay(Liv)8_8.png,0,63,63,24,,,1.ja,1.472,None,act,0.705,None,None,None,None,None,,['return'],[0.8834223326120991],2017_Feb_24_1505,60.0121855439,famFaceFilter,001,25,
8,./img/gray_BastianSchweinsteiger6_2.png,0,64,64,7,,,1.ja,1.406,None,None,None,None,None,sport,1.355,None,Schweinsteiger,"['lshift', 's', 'c', 'h', 'w', 'e', 'i', 'n', 's', 't', 'e', 'i', 'g', 'e', 'r', 'return']","[0.5335321502498118, 0.7500363278741133, 0.9999518836120842, 1.1833558357648144, 1.2832653448786004, 1.4665435528695525, 1.599827871643356, 1.7831124951517268, 1.8832333955979266, 2.0496817742496205, 2.149683666830242, 2.8493418159341672, 3.0826107053835585, 3.2157465049058374, 3.299001969884557, 3.532420982468466]",2017_Feb_24_1505,60.0121855439,famFaceFilter,001,25,
5,./img/gray_OmarEpps(DrEricForeman)2_2.png,0,65,65,4,,,1.ja,2.27,None,act,0.871,None,None,None,None,None,,['return'],[0.8998999499926867],2017_Feb_24_1505,60.0121855439,famFaceFilter,001,25,
18,./img/gray_JasonSegel(Marshall)7_1.png,0,66,66,17,,,1.ja,1.222,None,act,0.522,None,None,None,None,None,Marshall,"['lshift', 'm', 'a', 'r', 's', 'h', 'a', u'\xf6', u'\xf6', 'backspace', 'backspace', 'l', 'l', 'return']","[0.9334008245859877, 1.3332149670204672, 1.583074386973749, 1.7830319803979364, 1.982951080710336, 2.0995977149214013, 2.21605926142729, 2.466168245045992, 2.6325736397266155, 3.0824916975179804, 3.2323761700718023, 3.8988215013523586, 4.049100849060778, 4.232055394153576]",2017_Feb_24_1505,60.0121855439,famFaceFilter,001,25,
17,./img/gray_JasonSegel(Marshall)6_1.png,0,67,67,16,,,1.ja,1.2,None,dummy,0.522,None,None,None,None,None,Marshall,"['lshift', 'm', 'a', 'r', 's', 'h', 'a', u'\xf6', u'\xf6', 'backspace', 'backspace', 'l', 'l', 'return']","[0.6667478229719563, 0.8833392516462482, 1.0998421461699763, 1.3163437575858552, 2.249438241171447, 2.3827430896017177, 2.5326817732857307, 2.7658399950450985, 2.948482745941874, 3.415635773057147, 3.59891750958559, 4.465346096363646, 4.5818284933047835, 5.0815139725164045]",2017_Feb_24_1505,60.0121855439,famFaceFilter,001,25,
43,./img/gray_LisaEdelstein(DrLisaCuddy)6_3.png,0,68,68,42,,,2.nein,1.467,None,None,None,host,0.988,None,None,None,,['return'],[1.0162941335547657],2017_Feb_24_1505,60.0121855439,famFaceFilter,001,25,
12,./img/gray_BarackObama2_1.png,0,69,69,11,,,1.ja,1.722,None,None,None,None,None,polit,1.089,None,Obama,"['lshift', 'o', 'b', 'a', 'm', 'a', 'return']","[0.85012130141331, 1.033344335945003, 1.2832464190978499, 1.4498721868330904, 1.5664822525905038, 1.6664652193903748, 2.116239569568279]",2017_Feb_24_1505,60.0121855439,famFaceFilter,001,25,
7,./img/gray_OmarEpps(DrEricForeman)1_5.png,0,70,70,6,,,1.ja,1.454,None,act,0.822,None,None,None,None,None,,['return'],[0.766744903910876],2017_Feb_24_1505,60.0121855439,famFaceFilter,001,25,
61,./img/gray_AlysonHannigan(Lily)8_3.png,0,71,71,60,,,1.ja,11.234,None,act,0.986,None,None,None,None,None,Lilli,"['lshift', 'l', 'i', 'l', 'l', 'i', 'return']","[0.6333518421051849, 0.8832856820699817, 1.1333192833481007, 1.3165198635688284, 1.4665737058057857, 1.6330586529147695, 1.8996917664189823]",2017_Feb_24_1505,60.0121855439,famFaceFilter,001,25,
