num,pic,trials.thisRepN,trials.thisTrialN,trials.thisN,trials.thisIndex,key_resp_2.keys,key_resp_2.rt,ratingBekannt.response,ratingBekannt.rt,key_resp_5.keys,ratingK1.response,ratingK1.rt,ratingK2.response,ratingK2.rt,ratingK3.response,ratingK3.rt,key_resp_6.keys,inputText,key_resp_4.keys,key_resp_4.rt,key_resp_5.rt,key_resp_6.rt,date,frameRate,expName,session,participant,
,,,,,,space,45.3306404841,,,,,,,,,,,,,,,,2017_Feb_28_1246,60.0506619767,famFaceFilter,001,26,
14,./img/smoo15_BritneySpears7_1.png,0,0,0,13,,,1.ja,8.306,None,None,None,music,0.931,None,None,None,Britney Spears,"['lshift', 'b', 'r', 'i', 't', 'n', 'e', 'y', 'space', 'lshift', 's', 'p', 'e', 'a', 'r', 's', 'return']","[0.8665695555773709, 1.216699407708802, 1.4999271827218763, 1.6997955342158093, 1.9330555797914712, 2.366149011737434, 2.516014989452742, 2.71604950548317, 2.8323592284832557, 3.1825647849218512, 3.4491446696465573, 3.6324193428354192, 3.8655453019691777, 4.048866167617234, 4.165587131807115, 4.298814842662978, 4.881876581450342]",,,2017_Feb_28_1246,60.0506619767,famFaceFilter,001,26,
10,./img/smoo15_KatjaBurkard5_3.png,0,1,1,9,,,1.ja,2.585,None,None,None,host,0.657,None,None,None,Katja Burkhard,"['lshift', 'k', 'a', 't', 'j', 'a', 'space', 'lshift', 'b', 'u', 'r', 'k', 'h', 'a', 'r', 'd', 'return']","[0.6334060650697211, 0.86678159179246, 1.0333230469568662, 1.1831290386326145, 1.4995624547700572, 1.616373558410487, 1.8994021284452174, 2.1493713334730273, 2.2662212516097497, 2.5327126007887273, 2.732501077824054, 3.048978440952851, 3.6488808593858266, 3.8155503061534546, 3.9653800356190914, 4.098561874798179, 4.531964539590263]",,,2017_Feb_28_1246,60.0506619767,famFaceFilter,001,26,
19,./img/smoo15_NicoleKidman7_1.png,0,2,2,18,,,1.ja,2.584,None,act,1.325,None,None,None,None,None,Nicole Kidman,"['lshift', 'n', 'i', 'c', 'o', 'l', 'e', 'space', 'lshift', 'k', 'i', 'd', 'm', 'a', 'n', 'return']","[0.6333547401154647, 0.9000298967857816, 1.1498711102103698, 1.4163162669301528, 1.5664754384433763, 1.7329841739501717, 1.8164420772227459, 1.9662525598323555, 2.1494903432103456, 2.2494251605185127, 2.4327646314613958, 2.549422722582676, 2.6326275296778476, 2.766075296272902, 2.84942285089528, 3.2157745962012996]",,,2017_Feb_28_1246,60.0506619767,famFaceFilter,001,26,
59,./img/smoo15_JoshRadnor(Ted)1_2.png,0,3,3,58,,,1.ja,8.121,None,act,3.151,None,None,None,None,None,Ted Mosby,"['lshift', 't', 'e', 'd', 'space', 'lshift', 'm', 'o', 's', 'b', 'y', 'return']","[0.766692158060323, 0.9333227903316583, 1.1332899423614435, 1.2832143022114906, 1.4665739823540207, 1.7662975974781148, 1.916443616972174, 2.099564956861286, 2.2328706174903346, 2.4492999276317278, 2.582745448758942, 3.132559203333585]",,,2017_Feb_28_1246,60.0506619767,famFaceFilter,001,26,
17,./img/smoo15_GeorgeClooney11_1.png,0,4,4,16,,,1.ja,1.44,None,act,0.575,None,None,None,None,None,George Clooney,"['lshift', 'g', 'e', 'o', 'r', 'g', 'e', 'space', 'lshift', 'c', 'l', 'o', 'o', 'n', 'e', 'y', 'return']","[0.600197536916312, 0.7835113453820668, 1.0167633714336262, 1.2165771901636617, 1.4498013082738908, 1.5665485765021003, 1.6664304649530095, 1.8331794654004625, 1.9995958159906877, 2.1657584288404905, 2.5327700205816654, 2.766027499910706, 3.049343168906489, 3.249199651503659, 3.398997944435905, 3.5990533112289995, 4.198734390798563]",,,2017_Feb_28_1246,60.0506619767,famFaceFilter,001,26,
57,./img/smoo15_UrsulavonderLeyen5_1.png,0,5,5,56,,,2.nein,5.85,None,None,None,host,2.035,None,None,None,,['return'],[0.6170866544853197],,,2017_Feb_28_1246,60.0506619767,famFaceFilter,001,26,
60,./img/smoo15_LeonardoDiCaprio2_1.png,0,6,6,59,,,1.ja,1.058,None,dummy,0.574,None,None,None,None,None,Leonardoo de Caprio,"['lshift', 'l', 'e', 'o', 'n', 'a', 'r', 'd', 'o', 'o', 'space', 'd', 'i', 'e', 'space', 'lshift', 'c', 'backspace', 'backspace', 'backspace', 'backspace', 'e', 'space', 'lshift', 'c', 'a', 'p', 'r', 'i', 'o', 'return']","[0.8333164388677687, 1.0667163449434156, 1.249510167472181, 1.4330212562290399, 1.6660076756452327, 1.7829297694988782, 2.016182116332857, 2.166206239060557, 2.349531916421256, 2.5659329978388996, 2.8158556896269147, 2.965844847230983, 3.0658515194736538, 3.182567671950892, 3.3322934683856147, 3.4989754256112064, 3.6156075334765774, 3.932319708268551, 4.081867792050616, 4.198606719975942, 4.348754664153603, 4.598562195578779, 4.915179739986343, 5.214938320235888, 5.3150736256448, 5.581588071054284, 5.714848180785339, 5.914822069216825, 6.064715313312263, 6.181229373783935, 6.531137245490754]",,,2017_Feb_28_1246,60.0506619767,famFaceFilter,001,26,
46,./img/smoo15_NeilPatrickHarris(Barney)1_1.png,0,7,7,45,,,1.ja,1.385,None,dummy,0.491,None,None,None,None,None,Neil Patrik Harris,"['lshift', 'n', 'e', 'i', u'\xf6', 'l', 'backspace', 'backspace', 'l', 'space', 'lshift', 'p', 'a', 't', 'r', 'i', 'k', 'space', 'lshift', 'h', 'a', 'r', 'r', 'i', 's', 'return']","[0.5169439711135055, 0.7335619004606997, 0.8666783003227465, 0.9833655825113965, 1.1666803533207712, 1.649772630455118, 1.7665404286653938, 2.2830279284735298, 2.5495035593849025, 2.716074847179698, 2.8658734608925442, 2.9994068760042865, 3.2990942428787093, 3.549111885831735, 3.7324038811930222, 3.8990271355032746, 4.248962915155062, 5.281620341618691, 5.448393079856032, 5.58154316171931, 5.698189704726246, 5.831478043184688, 6.081402338877524, 6.1814616191986715, 6.531152001416558]",,,2017_Feb_28_1246,60.0506619767,famFaceFilter,001,26,
72,./img/smoo15_HughLaurie(DrHouse)2_1.png,0,8,8,71,,,1.ja,1.097,None,dummy,0.541,None,None,None,None,None,Dr House,"['lshift', 'd', 'r', 'space', 'lshift', 'h', 'o', 'u', 's', 'e', 'return']","[0.400227497857486, 0.6500138577375765, 0.816764462088031, 1.4496922427460959, 1.5998228647531505, 1.733023630007665, 2.099694231588728, 2.2660554078538553, 2.3827029132044117, 2.516135603093062, 2.6491384464952716]",,,2017_Feb_28_1246,60.0506619767,famFaceFilter,001,26,
67,./img/smoo15_GeorgeClooney4_2.png,0,9,9,66,,,1.ja,1.191,None,act,0.442,None,None,None,None,None,George Clooney,"['lshift', 'g', 'e', 'o', 'r', 'g', 'e', 'space', 'lshift', 'c', 'l', 'o', 'o', 'n', 'e', 'y', 'return']","[0.43361983350223454, 0.8168379209291743, 1.0500886638583324, 1.3166114495707006, 1.449548212096488, 1.5999020976505562, 1.683050126515809, 1.8330861181402724, 1.932919568665966, 2.0830774570549693, 2.449431447825191, 2.6826052033247834, 2.8328487402286555, 3.0159758541758492, 3.0994571744595305, 3.2825794766904437, 3.4324111308433203]",,,2017_Feb_28_1246,60.0506619767,famFaceFilter,001,26,
27,./img/smoo15_JasonSegel(Marshall)9_1.png,0,10,10,26,,,1.ja,0.958,None,dummy,0.658,None,None,None,None,None,Marshall Erikson,"['lshift', 'm', 'a', 'r', 's', 'h', 'a', 'l', 'l', 'space', 'lshift', 'e', 'r', 'i', 'k', 's', 'o', 'n', 'return']","[0.36707703105639666, 0.7168979711241263, 0.966831890245885, 1.1331946704158327, 1.3667443812009878, 1.533049420797397, 1.6332084639980167, 1.8665211176521552, 1.9830496132653934, 2.1496237880892295, 2.382888645379353, 2.632876134923208, 2.8327557137508848, 2.9826948295230977, 3.1492741368419956, 3.26588667706892, 3.365899764930873, 3.4825453455960087, 3.732362500448289]",,,2017_Feb_28_1246,60.0506619767,famFaceFilter,001,26,
2,./img/smoo15_WillSmith5_1.png,0,11,11,1,,,1.ja,1.991,None,None,None,music,0.808,None,None,None,Will Smith,"['lshift', 'lshift', 'w', 'i', 'l', 'l', 'space', 'lshift', 's', 'm', 'i', 't', 'h', 'return']","[0.3503030738520465, 1.3665477424729033, 1.5998908703168127, 1.8163111985923024, 2.0829696746513946, 2.199471866226304, 2.5328123636681994, 2.7493462484035263, 2.965524707833538, 3.1322714628131507, 3.315815912788821, 3.848760438213503, 3.998880474448015, 4.265369898941572]",,,2017_Feb_28_1246,60.0506619767,famFaceFilter,001,26,
6,./img/smoo15_AlysonHannigan(Lily)1_1.png,0,12,12,5,,,1.ja,1.033,None,act,0.991,None,None,None,None,None,Lilly Auldrin,"['lshift', 'l', 'i', 'l', 'l', 'y', 'space', 'lshift', 'a', 'u', 'l', 'd', 'r', 'i', 'n', 'return']","[0.950056970697915, 1.3499736318044597, 1.5331867150489416, 1.7996084547594364, 1.9162100884332176, 2.0829664668417536, 2.466136437124078, 2.66603333812418, 2.915952822102554, 3.1325011419794464, 3.5492183851110894, 3.8820558980060014, 4.065613500002655, 4.165474537690898, 4.282021959381382, 4.58203491893255]",,,2017_Feb_28_1246,60.0506619767,famFaceFilter,001,26,
21,./img/smoo15_NeilPatrickHarris(Barney)3_7.png,0,13,13,20,,,1.ja,3.682,None,act,0.574,None,None,None,None,None,Neil Patrick Harris,"['lshift', 'n', 'e', 'i', 'l', 'space', 'lshift', 'p', 'a', 't', 'r', 'i', 'c', 'k', 'space', 'lshift', 'h', 'a', 'r', 'r', 'i', 's', 'return']","[0.8666058038252231, 0.983190115326579, 1.4505824099123856, 1.5670425791813614, 1.766862813530679, 2.216911443923891, 2.3500749985887524, 2.5334029214154725, 2.666674900045109, 2.8165880325595936, 3.016318127460181, 3.2498511576341116, 4.849058443724061, 4.948935199679909, 5.432041591175221, 5.7319557501905365, 6.031981861760869, 6.2151904540714895, 6.365329416383247, 6.49849649963835, 6.981634006888271, 7.064690933959355, 7.264803078984187]",,,2017_Feb_28_1246,60.0506619767,famFaceFilter,001,26,
53,./img/smoo15_GuentherJauch4_1.png,0,14,14,52,,,1.ja,1.185,None,None,None,host,0.69,None,None,None,Günther Jauch,"['lshift', 'g', u'\xfc', 'n', 't', 'h', 'e', 'r', 'space', 'lshift', 'capslock', 'j', 'a', 'u', 'c', 'h', 'return']","[0.28353219614291447, 0.6002424462494673, 0.9167210925024847, 1.166564551393094, 1.3996905105286714, 1.5830226035086525, 1.6830052171808347, 1.7996001144547336, 1.9161982195364544, 2.099465193981814, 2.1828701683971303, 2.2828816523542628, 2.9160073548646324, 3.165827717526554, 3.2824880541156745, 3.598952906788327]",,,2017_Feb_28_1246,60.0506619767,famFaceFilter,001,26,
26,./img/smoo15_TomCruise4_1.png,0,15,15,25,,,1.ja,1.492,None,dummy,0.458,None,None,None,None,None,Tom cruise,"['lshift', 't', 'o', 'm', 'space', 'c', 'r', 'u', 'i', 's', 'e', 'return']","[0.4500146276132, 0.6665998373009643, 1.0000526080784766, 1.216536130201348, 1.8327816970086133, 2.299617757407759, 2.5823210555499827, 2.715986953196989, 2.88257620472541, 2.999178479960392, 3.1825025534180895, 3.349049782638758]",,,2017_Feb_28_1246,60.0506619767,famFaceFilter,001,26,
61,./img/smoo15_OmarEpps(DrEricForeman)3_1.png,0,16,16,60,,,1.ja,1.257,None,act,2.374,None,None,None,None,None,,"['return', 'pound']",[0.6500866750157002],,,2017_Feb_28_1246,60.0506619767,famFaceFilter,001,26,
52,./img/smoo15_BastianSchweinsteiger3_1.png,0,17,17,51,,,1.ja,1.258,None,None,None,None,None,sport,1.924,None,Bastian Schweinsteiger,"['lshift', 'b', 'a', 's', 't', 'i', 'a', 'n', 'space', 'lshift', 's', 'c', 'h', 'w', 'i', 'n', 's', 't', 'e', 'i', 'g', 'e', 'r', 'backspace', 'backspace', 'backspace', 'backspace', 'backspace', 'backspace', 'backspace', 'backspace', 'backspace', 'e', 'i', 'n', 's', 't', 'e', 'i', 'g', 'e', 'r', 'return']","[1.0833818781866285, 1.6832935992661078, 1.899753704379691, 2.049707576077708, 2.149637902452014, 2.3661830145210843, 2.4497204714716645, 2.566134769063865, 2.716147343677221, 2.8325837751563085, 2.9992869039251673, 3.1993015315365483, 3.2837516103209055, 3.4318751058581256, 3.5318115270711132, 3.682284743144919, 3.8154781304383505, 3.9153186381445266, 4.098588820399527, 4.21555967295717, 4.398136005995184, 4.515122256039831, 4.648291905541555, 5.498398019883098, 6.597850061847566, 6.764152214414935, 6.914502571380581, 7.097795208303069, 7.264249090265366, 7.38098288569563, 7.547556098175846, 7.697383582173643, 8.363875637071033, 8.480245987671879, 8.630392327946538, 9.196827668769401, 9.313168828302878, 9.46338638195084, 9.596852753840722, 9.779855404774935, 9.913106853422505, 10.063233305276299, 11.596036687076776]",,,2017_Feb_28_1246,60.0506619767,famFaceFilter,001,26,
29,./img/smoo15_GuentherJauch3_1.png,0,18,18,28,,,1.ja,2.169,None,None,None,host,0.491,None,None,None,GÜnther Jauch,"['lshift', 'g', u'\xdc', 'n', 't', 'h', 'e', 'r', 'space', 'lshift', 'j', 'a', 'u', 'c', 'h', 'return']","[0.6167870450699411, 0.8000726248101273, 1.1168492765755218, 1.3831693287211237, 1.6165224007763754, 1.7993187895535812, 1.883073094433712, 2.0329971335013397, 2.149533007079299, 2.3162380605335784, 2.4327505171004304, 2.532797928524815, 2.6326695519856003, 2.7827097137615056, 2.9158052628608857, 3.3658324009302305]",,,2017_Feb_28_1246,60.0506619767,famFaceFilter,001,26,
51,./img/smoo15_LeonardoDiCaprio1_1.png,0,19,19,50,,,1.ja,1.324,None,act,0.725,None,None,None,None,None,Leonardo de Caprio,"['lshift', 'l', 'e', 'o', 'n', 'a', 'd', 'backspace', 'r', 'd', 'o', 'space', 'd', 'i', 'e', 'backspace', 'backspace', 'e', 'space', 'lshift', 'c', 'a', 'p', 'r', 'i', 'o', 'return']","[0.466891234724244, 0.716915614077152, 0.9166668805210065, 1.0665925234952738, 1.2664637620164285, 1.349712195322354, 1.5328428378597891, 2.7494161786526092, 3.165744956040726, 3.332418893742215, 3.4825200039013, 3.632315089023905, 3.931963641403854, 4.0323937445155025, 4.165550241998062, 4.5986674117339135, 4.748142999020274, 4.865169988246635, 5.098377104965039, 5.298007757766754, 5.448195478786147, 5.6145656369171775, 5.848016226384061, 6.864366752721253, 7.031010857794172, 7.130906219044846, 7.480812486848663]",,,2017_Feb_28_1246,60.0506619767,famFaceFilter,001,26,
49,./img/smoo15_TomCruise5_1.png,0,20,20,48,,,1.ja,1.219,None,act,0.475,None,None,None,None,None,Tom Cruise,"['lshift', 't', 'o', 'm', 'space', 'lshift', 'c', 'r', 'u', 'i', 's', 'e', 'return']","[0.5003846163708658, 0.6669158065451484, 0.9834335880750587, 1.150112979054029, 1.316631017209147, 1.4497608898709586, 1.5498291520598286, 1.7998589846902178, 2.0163418652518885, 2.1663242864542553, 2.3326103999752377, 2.4661749308397702, 2.732630673332096]",,,2017_Feb_28_1246,60.0506619767,famFaceFilter,001,26,
47,./img/smoo15_BarackObama4_1.png,0,21,21,46,,,1.ja,1.325,None,None,None,None,None,polit,2.022,None,Barak Obama,"['lshift', 'b', 'a', 'r', 'a', 'c', 'k', 'backspace', 'backspace', 'k', 'space', 'lshift', 'o', 'b', 'a', 'm', 'a', 'return']","[0.38342659505178744, 0.6004471045034734, 0.7340873396733514, 0.8672496112139925, 1.0004830961279367, 1.3670632374760316, 1.4502751017516857, 2.0834518084357114, 2.1999568870396615, 2.5166450032593275, 2.9165151511260774, 4.18256221867523, 4.482518079215879, 4.765681377253713, 4.982038832460603, 5.132247725021443, 5.248786485626624, 5.598778081166529]",,,2017_Feb_28_1246,60.0506619767,famFaceFilter,001,26,
7,./img/smoo15_LisaEdelstein(DrLisaCuddy)2_2.png,0,22,22,6,,,1.ja,2.302,None,act,0.624,None,None,None,None,None,,['return'],[0.43328846676922694],,,2017_Feb_28_1246,60.0506619767,famFaceFilter,001,26,
66,./img/smoo15_NicoleKidman3_1.png,0,23,23,65,,,1.ja,1.441,None,act,0.592,None,None,None,None,None,Nicole Kidman,"['lshift', 'n', 'i', 'c', 'o', 'l', 'e', 'space', 'lshift', 'k', 'i', 'd', 'm', 'a', 'n', 'return']","[0.5169349892476021, 0.7002247391410492, 0.916815722886895, 1.1167049251434946, 1.2500516457348567, 1.4333545476474683, 1.5000195676384465, 1.6665318317373021, 1.7832248879840336, 1.899444150751151, 2.066336219506411, 2.1997281702133478, 2.2829162966991134, 2.399513118658433, 2.4996112134758732, 2.79940540041207]",,,2017_Feb_28_1246,60.0506619767,famFaceFilter,001,26,
15,./img/smoo15_LisaEdelstein(DrLisaCuddy)1_1.png,0,24,24,14,,,2.nein,1.674,None,act,0.808,None,None,None,None,None,,['return'],[0.5334009967300517],,,2017_Feb_28_1246,60.0506619767,famFaceFilter,001,26,
20,./img/smoo15_NicoleKidman5_1.png,0,25,25,19,,,2.nein,1.991,None,None,None,music,0.524,None,None,None,,['return'],[0.4168859739165782],,,2017_Feb_28_1246,60.0506619767,famFaceFilter,001,26,
5,./img/smoo15_BarackObama1_3.png,0,26,26,4,,,1.ja,1.158,None,None,None,None,None,polit,1.058,None,Barak Obama,"['lshift', 'b', 'a', 'r', 'a', 'c', 'backspace', 'k', 'space', 'lshift', 'o', 'b', 'a', 'm', 'a', 'return']","[0.41693601574661443, 0.6334788823478448, 0.8167500269464654, 0.9499710014006268, 1.1665347187645239, 1.5664937229576026, 1.9996805021637556, 2.26622381785819, 2.4327389689842676, 2.5661245040737413, 2.7495797769424826, 2.949284209364123, 3.1158792349506257, 3.1990654367491516, 3.332176062554936, 3.6156097789444175]",,,2017_Feb_28_1246,60.0506619767,famFaceFilter,001,26,
18,./img/smoo15_HughLaurie(DrHouse)4_1.png,0,27,27,17,,,1.ja,1.458,None,dummy,0.425,None,None,None,None,None,Dr House,"['lshift', 'd', 'r', 'space', 'lshift', 'h', 'o', 'u', 's', 'e', 'return']","[0.566927739597304, 0.7667903170331556, 1.0167001775844255, 1.1165471009098837, 1.3166069586368394, 1.4164445793139748, 1.5661896226065437, 1.7330278001609258, 1.8497086667302938, 1.999574965226202, 2.166160688164382]",,,2017_Feb_28_1246,60.0506619767,famFaceFilter,001,26,
23,./img/smoo15_JoachimLoew4_1.png,0,28,28,22,,,1.ja,1.075,None,None,None,None,None,sport,1.224,None,Jogi KÖw,"['lshift', 'j', 'o', 'g', 'i', 'space', 'lshift', 'k', u'\xd6', 'w', 'return']","[0.3336721849555033, 0.6333396634108794, 0.7834009967318707, 1.0329894347596564, 1.2333165030267992, 1.432978913142506, 1.6998635397794715, 1.8664312989840255, 2.066361561202939, 2.216244540308253, 2.366215734178695]",,,2017_Feb_28_1246,60.0506619767,famFaceFilter,001,26,
40,./img/smoo15_NeilPatrickHarris(Barney)2_2.png,0,29,29,39,,,1.ja,1.108,None,act,0.625,None,None,None,None,None,Neil Patrick Harris,"['lshift', 'n', 'e', 'i', 'l', 'space', 'lshift', 'p', 'a', 't', 'r', 'i', 'c', 'k', 'space', 'lshift', 'h', 'a', 'r', 'r', 'i', 's', 'return']","[0.4667600353113812, 0.6670056252150971, 0.8668829585749336, 0.9333843802760384, 1.1168521636027435, 1.383261713637694, 1.5998443570770178, 1.6997849484432663, 1.8832177666463394, 2.016357262737074, 2.1994256737689284, 2.3329792980803177, 2.4492030517812964, 2.5326420289784437, 2.766108015930513, 2.916115137268207, 3.0160823534533847, 3.116064004783766, 3.2823748184382566, 3.38251365243741, 3.649111180115142, 3.7324029188494023, 4.09896253021725]",,,2017_Feb_28_1246,60.0506619767,famFaceFilter,001,26,
42,./img/smoo15_OmarEpps(DrEricForeman)1_5.png,0,30,30,41,,,1.ja,1.366,None,dummy,0.541,None,None,None,None,None,,"['return', 'pound']",[0.5166068303242355],,,2017_Feb_28_1246,60.0506619767,famFaceFilter,001,26,
4,./img/smoo15_UrsulavonderLeyen1_1.png,0,31,31,3,,,2.nein,1.858,None,act,0.625,None,None,None,None,None,,['return'],[0.583421655024722],,,2017_Feb_28_1246,60.0506619767,famFaceFilter,001,26,
68,./img/smoo15_AlysonHannigan(Lily)8_3.png,0,32,32,67,,,1.ja,1.008,None,act,0.407,None,None,None,None,None,Lilly Auldrin,"['lshift', 'l', 'i', 'l', 'l', 'y', 'space', 'lshift', 'a', 'u', 'l', 'd', 'r', '4', 'i', 'n', 'backspace', 'backspace', 'backspace', 'backspace', 'd', 'r', 'i', 'n', 'backspace', 'backspace', 'backspace', 'backspace', 'r', 'i', 'n', 'return']","[0.48350544301138143, 0.7501392189369653, 0.9833075211590767, 1.1999270544092724, 1.3331445002750115, 1.4162456951198692, 1.599614677910722, 1.9662243311086058, 2.1827841990998422, 2.3163506546497956, 2.5160226881962444, 2.6659460857026716, 2.8658311178060103, 2.9324971001406084, 3.0825064669443236, 3.4157003674863518, 3.5656924121194606, 3.682283780801299, 3.9320646874057275, 4.83179272930829, 4.998515746496196, 5.131710416913847, 5.264952562911276, 5.631434224505938, 5.764666426295662, 5.898151724262789, 6.031326185478974, 6.631126274784037, 6.731112417046461, 6.864250630014794, 7.197505158157583]",,,2017_Feb_28_1246,60.0506619767,famFaceFilter,001,26,
56,./img/smoo15_MariskaHargitay(Liv)6_5.png,0,33,33,55,,,1.ja,0.968,None,act,0.408,None,None,None,None,None,Agent Benson,"['lshift', 'a', 'g', 'e', 'n', 't', 'space', 'lshift', 'b', 'e', 'n', 's', 'o', 'm', 'backspace', 'n', 'return']","[0.30013870568654966, 0.5335238558382116, 0.6667316782750277, 0.8000905885437533, 0.8999493807641556, 1.0500424713991379, 1.2499445048943016, 1.3332410553430236, 1.4333067512852722, 1.5164326462636382, 1.6330557722612866, 1.766428155329777, 1.9330132367049373, 2.0494281758601574, 2.682153222951456, 3.4823743693450524, 4.265268852937879]",,,2017_Feb_28_1246,60.0506619767,famFaceFilter,001,26,
43,./img/smoo15_JoachimLoew1_1.png,0,34,34,42,,,1.ja,1.217,None,None,None,None,None,sport,1.474,None,Jogi Löw,"['lshift', 'j', 'o', 'g', 'i', 'space', 'lshift', 'l', u'\xd6', 'w', 'backspace', 'backspace', u'\xd6', 'backspace', 'capslock', u'\xf6', 'w', 'return']","[0.48338322546442214, 0.9834412868185609, 1.1999469428283192, 1.433165607661067, 2.2329434347684582, 2.432847392949043, 2.632619510153745, 2.782602893699732, 2.932414017870542, 3.16566347767548, 3.632249649706864, 3.7488406976081023, 4.7153611095418455, 5.548315065925635, 5.781203005588395, 5.997940586232289, 6.74763808978787, 7.0475435877160635]",,,2017_Feb_28_1246,60.0506619767,famFaceFilter,001,26,
9,./img/smoo15_EmilyDeschanel6_12.png,0,35,35,8,,,2.nein,3.35,None,None,None,music,1.307,None,None,None,,['return'],[0.5171027576889173],,,2017_Feb_28_1246,60.0506619767,famFaceFilter,001,26,
22,./img/smoo15_WillSmith1_1.png,0,36,36,21,,,1.ja,1.823,None,act,1.908,None,None,None,None,None,Will Smith,"['lshift', 'w', 'i', 'l', 'l', 'space', 'lshift', 's', 'm', 'i', 't', 'h', 'return']","[0.6001548730491777, 0.7668810980467242, 0.9333545476474683, 1.1499230767258268, 1.2665731483248237, 1.4831644528512697, 1.6161300856620073, 1.766535296170332, 1.8663985793264146, 2.016328713232724, 2.83249748507842, 2.9493018523189676, 3.232453281461858]",,,2017_Feb_28_1246,60.0506619767,famFaceFilter,001,26,
34,./img/smoo15_EmilyDeschanel5_1.png,0,37,37,33,,,2.nein,2.84,None,act,1.041,None,None,None,None,None,,['return'],[1.1499914030700893],,,2017_Feb_28_1246,60.0506619767,famFaceFilter,001,26,
35,./img/smoo15_KatjaBurkard1_1.png,0,38,38,34,,,1.ja,1.507,None,None,None,host,0.641,None,None,None,Katja Burkhard,"['lshift', 'k', 'a', 't', 'j', 'a', 'space', 'lshift', 'b', 'u', 'i', 'backspace', 'backspace', 'u', 'r', 'k', 'h', 'a', 'r', 'd', 'return']","[0.5834174848714611, 0.7501273500420211, 1.0663705430688424, 1.200007249650298, 1.4332041013767594, 1.5664215472424985, 1.8996818494433683, 2.0995588620226044, 2.2329042994915653, 2.4164080102855223, 3.015831502743822, 3.132392397234071, 3.815615424688076, 3.965307539121568, 4.398627763206605, 4.731864969178787, 4.881951964975087, 5.015069006400154, 5.148177707518698, 5.431586082211652]",,,2017_Feb_28_1246,60.0506619767,famFaceFilter,001,26,
69,./img/smoo15_BritneySpears5_1.png,0,39,39,68,,,1.ja,1.35,None,None,None,music,1.107,None,None,None,Britney Spears,"['lshift', 'b', 'r', 'i', 't', 'n', 'e', 'y', 'space', 'lshift', 's', 'p', 'e', 'a', 'r', 's', 'return']","[0.4335900008718454, 0.6834543105269404, 0.8831991613496939, 1.0333807875304046, 1.2332539507387992, 1.4332031390349584, 1.5497800725734123, 1.7330807290200028, 1.8996616402437212, 2.116174353433962, 2.349403604037434, 2.56615080811207, 3.0493701145060186, 3.2491396654640994, 3.3823763581858657, 3.515647053691282, 3.8322305953188334]",,,2017_Feb_28_1246,60.0506619767,famFaceFilter,001,26,
55,./img/smoo15_MariskaHargitay(Liv)4_4.png,0,40,40,54,,,1.ja,0.991,None,dummy,0.508,None,None,None,None,None,Olivia Benson,"['lshift', 'o', 'l', 'i', 'v', 'i', 'a', 'space', 'lshift', 'b', 'e', 'n', 's', 'o', 'n', 'return']","[0.5500572273231228, 0.9331229437939328, 1.0999242315374431, 1.2831443719624076, 1.5164666490454692, 1.7329937973790948, 1.849614677910722, 2.066164601692435, 2.282765529647804, 2.3994486416850123, 2.5489970462494966, 2.682758536622714, 2.782525585489566, 2.8992834394903184, 3.0322355995012913, 3.3488255567481247]",,,2017_Feb_28_1246,60.0506619767,famFaceFilter,001,26,
13,./img/smoo15_GeorgeClooney3_1.png,0,41,41,12,,,1.ja,1.107,None,act,0.542,None,None,None,None,None,George Clooney,"['lshift', 'g', 'e', 'o', 'r', 'g', 'e', 'space', 'lshift', 'v', 'backspace', 'v', 'backspace', 'c', 'backspace', 'c', 'backspace', 'lshift', 'c', 'l', 'o', 'o', 'n', 'e', 'y', 'return']","[0.4168554997249885, 0.6831970441962767, 0.9499572078202618, 1.1163687466960255, 2.0663391065354517, 2.182952288323577, 2.2994772553465737, 2.7160745263990975, 2.8491922093853645, 3.2324930582999514, 3.5822742215295875, 3.8653852322713647, 4.348688904057781, 4.648597930578035, 5.364795316085292, 5.8814104867142305, 6.380958185560303, 6.681061284560201, 6.91428444032681, 7.564097168402441, 7.847418932235087, 7.963796981579435, 8.16388442646894, 8.313750724964848, 8.480213268014268, 8.647137094083519]",,,2017_Feb_28_1246,60.0506619767,famFaceFilter,001,26,
38,./img/smoo15_AlysonHannigan(Lily)5_4.png,0,42,42,37,,,None,None,1,None,None,None,None,None,None,1,Lilly Auldrin,"['lshift', 'l', 'i', 'l', 'l', 'y', 'space', 'lshift', 'a', 'u', 'l', 'd', 'r', 'i', 'n', 'return']","[1.2498078522057767, 1.4498465383894654, 1.666536964232364, 1.899509910848792, 2.016265198602923, 2.1494444715335703, 2.4829585114748625, 2.732689697029855, 2.932579220067055, 3.0491728342167335, 3.282147384737982, 3.399118878858644, 3.56559842329807, 3.698745938914726, 3.8322190472044895, 4.465295991009043]",2.59931731396,2.14958401125,2017_Feb_28_1246,60.0506619767,famFaceFilter,001,26,
16,./img/smoo15_WillSmith4_1.png,0,43,43,15,,,None,None,1,None,None,None,None,None,None,1,Will Smith,"['lshift', 'w', 'i', 'l', 'l', 'space', 'lshift', 's', 'm', 'i', 't', 'h', 'return']","[0.650158529950204, 0.816813220795666, 0.9668383058651671, 1.2000165522968018, 1.33317048353274, 1.5830864389208728, 1.7663925486431253, 1.9993911577366816, 2.132936441743368, 2.299244368368818, 2.5327562269994814, 2.616058872288704, 3.0826408741668274]",1.83311338452,0.933071939622,2017_Feb_28_1246,60.0506619767,famFaceFilter,001,26,
58,./img/smoo15_EmilyDeschanel3_1.png,0,44,44,57,,,None,None,2,None,None,None,None,None,None,1,,['return'],[1.5499792775499373],4.56513489481,1.39980278386,2017_Feb_28_1246,60.0506619767,famFaceFilter,001,26,
48,./img/smoo15_JoshRadnor(Ted)6_2.png,0,45,45,47,,,None,None,1,None,None,None,None,None,None,1,Ted Mosby,"['lshift', 't', 'e', 'd', 'space', 'lshift', 'm', 'o', 's', 'b', 'y', 'return']","[0.3836302909621736, 0.5335934653085133, 0.7335840343475866, 0.9500781422430009, 1.2833002715105977, 1.5165401078866125, 1.6330750191191328, 1.7998365300227306, 1.9498282538752392, 2.132984238107383, 2.2497090516699245, 2.5328191000699007]",1.79959209493,1.08334081822,2017_Feb_28_1246,60.0506619767,famFaceFilter,001,26,
64,./img/smoo15_JoachimLoew8_1.png,0,46,46,63,,,None,None,1,None,None,None,None,None,None,5,Jogi Löw,"['lshift', 'j', 'o', 'g', 'i', 'space', 'lshift', 'l', u'\xf6', 'w', 'return']","[0.6166580911212804, 0.833424862834363, 0.9999220502268145, 1.7331346202208806, 1.866059834630505, 2.1996473334111215, 2.3994595482363366, 2.565983360449536, 2.7160138987965183, 2.8993280280428735, 3.3491886807933042]",1.48288986435,2.03288165236,2017_Feb_28_1246,60.0506619767,famFaceFilter,001,26,
1,./img/smoo15_Ice-T(OdafinFinTutuola)6_1.png,0,47,47,0,,,None,None,1,None,None,None,None,None,None,2,Ice T,"['lshift', 'i', 'c', 'e', 'space', 'lshift', 't', 'return']","[0.5168509446357348, 0.783349350995195, 1.0333028377554, 1.1500693528432748, 1.5664876281189208, 1.7496657462379517, 1.7997698075814696, 2.282910522641032]",1.44988214507,2.4493560643,2017_Feb_28_1246,60.0506619767,famFaceFilter,001,26,
71,./img/smoo15_AngelaMerkel1_1.png,0,48,48,70,,,None,None,1,None,None,None,None,None,None,4,Angela Merkel,"['lshift', 'a', 'n', 'g', 'e', 'l', 'a', 'space', 'lshift', 'm', 'e', 'r', 'k', 'e', 'l', 'return']","[0.7832944974525162, 0.9833578837697132, 1.1165320242052985, 1.333302966069823, 1.4496274449920747, 1.599879642983069, 1.716524582087004, 1.8494709680398955, 1.9663215277378185, 2.066250570989723, 2.182867922931109, 2.3327249187786947, 2.4663795890919573, 2.5493986640121875, 2.6660224315710366, 3.015882506915659]",1.63275904987,1.11657212183,2017_Feb_28_1246,60.0506619767,famFaceFilter,001,26,
63,./img/smoo15_RobertSeanLeonard(Wilson)8_1.png,0,49,49,62,,,None,None,2,None,None,None,None,None,None,1,,['return'],[0.8666439767603151],1.88286394525,2.51583631446,2017_Feb_28_1246,60.0506619767,famFaceFilter,001,26,
39,./img/smoo15_BarackObama2_1.png,0,50,50,38,,,None,None,1,None,None,None,None,None,None,4,Barak Obama,"['lshift', 'b', 'lshift', 'r', 'a', 'backspace', 'backspace', 'r', 'a', 'k', 'space', 'backspace', 'backspace', 'backspace', 'backspace', 'a', 'r', 'a', 'k', 'space', 'lshift', 'o', 'b', 'a', 'm', 'a', 'return', 'plus']","[1.0001045745921147, 1.599817090696888, 1.8163140856195241, 2.3328410414851533, 2.4830091948660993, 2.8494286249533616, 2.9823987486979604, 3.549019500915165, 3.6824274906721257, 4.5987225860590115, 4.88192790640278, 5.331705476884963, 5.448384739551329, 5.581681097532055, 5.931468034817954, 6.2811991562175535, 6.447954893064889, 6.597850382628167, 6.7811122245766455, 7.197385827639664, 7.4307555803061405, 7.597516449646719, 7.880485995985509, 8.013972577076856, 8.180504408814159, 8.26379871379686, 8.697083010412825]",1.13369829652,1.33320288241,2017_Feb_28_1246,60.0506619767,famFaceFilter,001,26,
3,./img/smoo15_JoshRadnor(Ted)3_1.png,0,51,51,2,,,None,None,1,None,None,None,None,None,None,1,Ted Mosby,"['lshift', 't', 'e', 'd', 'space', 'lshift', 'm', 'o', 's', 'b', 'y', 'return']","[0.616753042286291, 0.7999940334739222, 0.999957656913466, 1.1500353500614438, 1.299856097661177, 1.5831040818738984, 1.666526378459821, 1.8497073836078926, 2.049574131197005, 2.166207522184777, 2.2996030014837743, 2.8492971047598985]",1.58304345427,0.200272214723,2017_Feb_28_1246,60.0506619767,famFaceFilter,001,26,
37,./img/smoo15_Ice-T(OdafinFinTutuola)5_1.png,0,52,52,36,,,None,None,1,None,None,None,None,None,None,1,Ice T,"['lshift', 'i', 'c', 'e', 'space', 'lshift', 't', 'return']","[0.5835470803795033, 0.8000184128268302, 1.050071341684088, 1.1999254505044519, 1.3999230767240078, 1.6327792590727768, 1.716320886176618, 2.0329442046422628]",1.36647300051,0.133372062288,2017_Feb_28_1246,60.0506619767,famFaceFilter,001,26,
44,./img/smoo15_GuentherJauch2_1.png,0,53,53,43,,,None,None,1,None,None,None,None,None,None,3,Günther Jauch,"['lshift', 'g', u'\xfc', 'n', 't', 'h', 'e', 'r', 'space', 'lshift', 'j', 'a', 'u', 'c', 'h', 'return']","[0.6835383551369887, 0.9167640771502192, 1.2496984658955625, 1.5332043580001482, 1.7496686332669924, 1.9331466815838212, 2.016223497075771, 2.1329791056105023, 2.2329386230539967, 2.399404053130638, 2.482860352498392, 2.5662255500737956, 2.6994535817102587, 2.7827116384451074, 2.88260443344916, 3.482298665037888]",1.25002630404,1.44963129436,2017_Feb_28_1246,60.0506619767,famFaceFilter,001,26,
12,./img/smoo15_MariskaHargitay(Liv)8_8.png,0,54,54,11,,,None,None,1,None,None,None,None,None,None,1,Olivia Benson,"['lshift', 'o', 'l', 'i', 'v', 'i', 'a', 'space', 'lshift', 'b', 'e', 'n', 's', 'o', 'n', 'return']","[0.5001125941180362, 0.7000691603752784, 0.8668027633357269, 1.0333576913017168, 1.2499461087991222, 1.4497852692256856, 1.5665177815317293, 1.7163202446154173, 1.9496694672998274, 2.099596714177096, 2.2995808675987064, 2.399672867577465, 2.5660847272338287, 2.749499581703276, 2.915989070352225, 3.715793201497945]",1.76566341352,0.183798829277,2017_Feb_28_1246,60.0506619767,famFaceFilter,001,26,
41,./img/smoo15_AngelaMerkel3_1.png,0,55,55,40,,,None,None,1,None,None,None,None,None,None,4,Angela Merkel,"['lshift', 'a', 'n', 'g', 'e', 'l', 'a', 'space', 'lshift', 'm', 'e', 'r', 'k', 'e', 'l', 'return']","[0.449882145076117, 0.7335651082703407, 0.8835080734152143, 1.0834675267033163, 1.2166172877841746, 1.3332433008108637, 1.449839801989583, 1.849838262240155, 2.0329554319778254, 2.1495721423561918, 2.282991038664477, 2.4494234283029073, 2.549398984792788, 2.6328225645029306, 2.7494055928800663, 3.0326301600834995]",1.23315386708,1.48230347675,2017_Feb_28_1246,60.0506619767,famFaceFilter,001,26,
65,./img/smoo15_UrsulavonderLeyen4_1.png,0,56,56,64,,,None,None,1,None,None,None,None,None,None,4,Ursula von der Leyen,"['lshift', 'u', 'r', 's', 'u', 'l', 'a', 'space', 'v', 'o', 'n', 'space', 'd', 'e', 'r', 'space', 'lshift', 'l', 'e', 'backspace', 'e', 'y', 'e', 'n', 'return']","[0.9666192124695954, 1.2832848740235931, 1.5165994523631525, 1.6830222185726598, 1.9996211576853966, 2.5493733223156596, 2.6827752172321198, 2.8491549987938924, 3.215910928109224, 3.482505247977315, 3.632309956527024, 3.798960156438625, 3.9155556952737243, 4.065343402433427, 4.198869760364687, 4.298672415916371, 4.648632895703486, 4.814868325831412, 5.214729812612859, 5.748064086903469, 5.981377382118808, 6.564477293841264, 6.7976866560256894, 6.897576243218282, 7.347512600275877]",1.60012888979,3.4154979547,2017_Feb_28_1246,60.0506619767,famFaceFilter,001,26,
25,./img/smoo15_JasonSegel(Marshall)6_1.png,0,57,57,24,,,None,None,1,None,None,None,None,None,None,2,,"['plus', 'return']","[0.11699715659779031, 0.5500941171339946]",2.44966722183,2.6658838542,2017_Feb_28_1246,60.0506619767,famFaceFilter,001,26,
30,./img/smoo15_KatjaBurkard4_1.png,0,58,58,29,,,None,None,1,None,None,None,None,None,None,3,Katja Burkhard,"['lshift', 'k', 'capslock', 'a', 't', 'j', 'a', 'space', 'lshift', 'b', 'u', 'r', 'k', 'h', 'a', 'r', 'd', 'return']","[0.533523214277011, 0.8333392143176752, 1.1999430934574775, 1.7330255546949047, 1.966243577964633, 2.1161079517751205, 2.3827523134714284, 2.615874102453745, 2.7324911336145306, 2.932509610596753, 3.0988383879848698, 3.3322880151099525, 4.015475115096706, 4.182129164377329, 4.282056282943813, 4.432026835251236, 4.831764500582722]",1.09990979639,1.08310761046,2017_Feb_28_1246,60.0506619767,famFaceFilter,001,26,
50,./img/smoo15_OmarEpps(DrEricForeman)2_2.png,0,59,59,49,,,None,None,1,None,None,None,None,None,None,4,,['return'],[0.350531469895941],2.41614721536,1.59975421763,2017_Feb_28_1246,60.0506619767,famFaceFilter,001,26,
62,./img/smoo15_RobertSeanLeonard(Wilson)1_1.png,0,60,60,61,,,None,None,2,None,None,None,None,None,None,2,,['return'],[0.23363215149038297],2.28277900245,2.39912850229,2017_Feb_28_1246,60.0506619767,famFaceFilter,001,26,
45,./img/smoo15_RobertSeanLeonard(Wilson)2_6.png,0,61,61,44,,,None,None,2,None,None,None,None,None,None,3,,['return'],[0.16700081350063556],2.59958067513,2.03285021582,2017_Feb_28_1246,60.0506619767,famFaceFilter,001,26,
24,./img/smoo15_BastianSchweinsteiger1_1.png,0,62,62,23,,,None,None,1,None,None,None,None,None,None,4,sportler Bastian Schweinsteiger,"['lshift', '8', 'b', 'backspace', '2', '1', 'backspace', 'backspace', 's', 'p', 'o', 'r', 't', 'l', 'e', 'r', 'space', 'lshift', 'b', 'a', 's', 't', 'i', 'a', 'n', 'space', 'lshift', 's', 'c', 'h', 'w', 'i', 'm', 'backspace', 'backspace', 'e', 'i', 'n', 's', 't', 'e', 'i', 'g', 'e', 'r', 'return']","[4.265510080220338, 4.498735160672368, 5.548254438324875, 6.198150248668753, 6.364733405360312, 6.9644600358242315, 10.248230572222383, 12.629003667167126, 12.878868618383422, 13.062022357149544, 13.711894429703534, 13.894981446030215, 14.19480225778534, 14.311559470223074, 14.461416466072478, 14.66155587747744, 14.87797171481725, 15.027992950517728, 15.160845347649229, 15.311269163454199, 15.42774793801982, 15.644312617727337, 15.74432859261833, 15.8610168371506, 16.010905269533396, 16.3940739566915, 16.577388406720274, 16.77719901764067, 16.860566139901493, 17.027211207316213, 17.12692789357243, 17.327060247796908, 17.993449011224584, 18.426625204658194, 18.793032765850512, 19.009799537561776, 19.19264725129142, 19.659264859858013, 19.79275464875718, 19.94259368087114, 20.042603240144672, 20.242690043472976, 20.325675436390156, 20.459041083058764, 20.90891585017198]",1.31653831151,1.51645189312,2017_Feb_28_1246,60.0506619767,famFaceFilter,001,26,
11,./img/smoo15_LeonardoDiCaprio3_1.png,0,63,63,10,,,None,None,1,None,None,None,None,None,None,1,Leonardo de Caprio,"['lshift', 'l', 'e', 'o', 'm', 'n', 'a', 'backspace', 'a', 'r', 'd', 'backspace', 'backspace', 'backspace', 'backspace', 'backspace', 'n', 'a', 'r', 'd', 'o', 'space', 'd', 'i', 'space', 'lshift', 'backspace', 'backspace', 'e', 'space', 'backspace', 'backspace', 'e', 'space', 'lshift', 'c', 'a', 'p', 'r', 'i', 'o', 'return']","[0.41688725703897944, 0.6335934011494828, 0.8334909437107854, 1.0331841488005011, 1.2834487930922478, 1.3999272468772688, 2.0330215128542477, 2.5162677648495446, 2.832673273042019, 3.0326927123696805, 3.2493039053151733, 3.3824058700338355, 3.5323177194259188, 3.7657853102846275, 3.8989790183586592, 4.365347700897473, 4.49880348701663, 4.731770980357396, 4.881767836703148, 4.9985706000388745, 5.148414764647896, 5.264967639615861, 5.348345026868628, 5.731557340237487, 6.03143043928867, 6.464644164094352, 6.61454061600125, 6.964250565857583, 7.330764626327436, 7.6807530140577, 7.8141138490118465, 8.447032647802189, 9.163503659468915, 9.546749334058404, 9.696529663255205, 9.912617983236487, 10.229927131396835, 10.56314541129177, 10.696307362049993, 10.829537318373696, 11.21267488977901]",1.51633641197,0.849844036298,2017_Feb_28_1246,60.0506619767,famFaceFilter,001,26,
8,./img/smoo15_AngelaMerkel4_1.png,0,64,64,7,,,None,None,1,None,None,None,None,None,None,4,Angela Merkel,"['lshift', 'a', 'n', 'g', 'e', 'l', 'a', 'space', 'lshift', 'm', 'e', 'r', 'k', 'e', 'l', 'return']","[0.36695385116763646, 0.5336383746416686, 0.6835723579206388, 0.8668258595644147, 0.9835150664403045, 1.149760119998973, 1.2165829642217432, 1.3665669893307495, 1.4832074374990043, 1.5996647197407583, 1.6998436513604247, 1.8663764454395277, 1.9830739926201204, 2.0496107002272765, 2.1996916011848953, 2.4994399164443166]",1.466269882,1.21664519573,2017_Feb_28_1246,60.0506619767,famFaceFilter,001,26,
31,./img/smoo15_BritneySpears1_1.png,0,65,65,30,,,None,None,1,None,None,None,None,None,None,2,Britney Spears,"['lshift', 'b', 'r', 'i', 't', 'n', 'e', 'y', 'space', 'lshift', 's', 'p', 'e', 'a', 'r', 's', 'return']","[0.6333140009337512, 0.9000606917579717, 1.1327917695307406, 1.2831562408573518, 1.4662455026500538, 1.6830408238674863, 1.7994451772501634, 1.9830082325224794, 2.1329264975338447, 2.316137976873506, 2.4828356523648836, 2.6658790424808103, 2.8492345524718985, 3.0159049615831464, 3.132505953693908, 3.265723399559647, 3.6323211838607676]",0.983029404066,0.983333825197,2017_Feb_28_1246,60.0506619767,famFaceFilter,001,26,
36,./img/smoo15_BastianSchweinsteiger6_2.png,0,66,66,35,,,None,None,1,None,None,None,None,None,None,5,Bastian Schweinsteiger,"['lshift', 's', 'p', 'o', 'r', 't', u'\xd6', 'e', 'r', 'backspace', 'backspace', 'backspace', 'backspace', 'backspace', 'backspace', 'backspace', 'backspace', 'lshift', 'b', 'a', 's', 't', 'i', 'a', 'n', 'space', 'lshift', 's', 'c', 'h', 'w', 'i', 'n', 's', 't', 'e', 'i', 'g', 'e', 'r', 'backspace', 'backspace', 'backspace', 'backspace', 'backspace', 'backspace', 'backspace', 'backspace', 'backspace', 'e', 'i', 'n', 's', 't', 'e', 'i', 'g', 'e', 'r', 'return']","[0.4335794151011214, 0.6668615945636702, 0.8669410199308913, 1.0334430190378043, 1.2168026991803345, 1.3498629623736633, 1.6497745551423577, 1.7663521302438312, 1.933052051203049, 2.2328686928049137, 3.748654644652561, 3.8823981712921523, 4.06553715413429, 4.28210921180289, 4.448802717144645, 4.582092017944888, 4.7152042476536735, 5.048427018482471, 5.248390641922015, 5.448197403471568, 5.631735758608556, 5.731566963668229, 5.931481828400138, 6.098049908385292, 6.214355782012717, 6.397990692221356, 6.564577377501337, 6.7311480237331125, 6.914266476593184, 6.981138079523589, 7.147685950307277, 7.214384652299486, 7.364604772195889, 7.564306317588489, 7.714025698405749, 7.847192460878432, 7.913805514353953, 8.09709205643776, 8.197180527826276, 8.330508322342212, 8.84706318615099, 10.013293804566274, 10.179576710275796, 10.312950055687907, 10.462997595426714, 10.59617398132832, 10.746302999430554, 11.079221669910112, 11.36255081170566, 11.812508661087122, 11.929148467694176, 12.095596575600212, 12.445620570015308, 12.578673134466953, 12.728814663027151, 12.862008371101183, 13.061776318154443, 13.162049880156701, 13.311869023851614, 14.17829936049202]",1.33299629947,1.84955950359,2017_Feb_28_1246,60.0506619767,famFaceFilter,001,26,
32,./img/smoo15_TomCruise1_1.png,0,67,67,31,,,None,None,1,None,None,None,None,None,None,1,Tom Cruise,"['lshift', 't', 'i', 'm', 'backspace', 'backspace', 'o', 'm', 'space', 'lshift', 'c', 'r', 'u', 'i', 's', 'e', 'return']","[0.35016128866664076, 0.4168099488288135, 0.7167632431210222, 0.9333481320281862, 1.8330232450716721, 1.9663988359498035, 2.416208163747797, 2.5824917110203387, 2.766108015930513, 3.0324383330680575, 3.1825362354175013, 3.449083079702177, 3.599037913743814, 3.732296419571867, 3.882322466984988, 4.032591345585388, 4.53186188968175]",1.59954378532,0.20029146158,2017_Feb_28_1246,60.0506619767,famFaceFilter,001,26,
33,./img/smoo15_Ice-T(OdafinFinTutuola)7_1.png,0,68,68,32,,,None,None,1,None,None,None,None,None,None,1,ice T,"['i', 'c', 'e', 'space', 'lshift', 't', 'return']","[0.6668631984684907, 0.783540215667017, 0.9500954644136073, 1.1000759609305533, 1.2330797666763829, 1.316482495623859, 1.733116014924235]",1.61615767282,1.1161714664,2017_Feb_28_1246,60.0506619767,famFaceFilter,001,26,
70,./img/smoo15_JasonSegel(Marshall)7_1.png,0,69,69,69,,,None,None,1,None,None,None,None,None,None,1,Marshall Erikson,"['lshift', 'm', 'a', 'r', 's', 'h', 'a', 'l', 'l', 'space', 'lshift', 'e', 'r', 'r', 'i', 'backspace', 'backspace', 'i', 'k', 's', 'o', 'n', 'return']","[0.4334331389818544, 0.6333948377359775, 0.7166381385450222, 0.9166296699277154, 1.066573597416209, 1.1832166118329042, 1.3163772794687247, 1.4998341562422866, 1.6330775853657542, 1.932905775083782, 2.1161608806323784, 2.2827777193233487, 2.532665445987732, 2.6657330871439626, 2.782481317715792, 3.182436472538029, 3.332451613399826, 4.0320598115340545, 4.998391925044416, 5.148185727042801, 5.281632531294235, 5.431659220270376, 5.714747455564066]",1.49959100428,0.850101302627,2017_Feb_28_1246,60.0506619767,famFaceFilter,001,26,
28,./img/smoo15_HughLaurie(DrHouse)5_3.png,0,70,70,27,,,None,None,1,None,None,None,None,None,None,1,Dr House,"['lshift', 'd', 'r', 'space', 'lshift', 'h', 'o', 'u', 's', 'e', 'return']","[0.4335322603001259, 0.566931909750565, 0.7164944286760146, 0.9167243003121257, 1.1000105216153315, 1.1831790804626507, 1.3999246806306473, 1.5830216411668516, 1.6994269568913296, 1.8497125161029544, 2.0829664668417536]",1.19992705441,0.1666335193,2017_Feb_28_1246,60.0506619767,famFaceFilter,001,26,
54,./img/smoo15_LisaEdelstein(DrLisaCuddy)6_3.png,0,71,71,53,,,None,None,1,None,None,None,None,None,None,1,,['return'],[0.38350005389111175],2.63274044458,0.800045679209,2017_Feb_28_1246,60.0506619767,famFaceFilter,001,26,
37,./img/edges5_JasonSegel(Marshall)9_1.png,0,0,0,36,,,None,None,1,None,None,None,None,None,None,1,Marshall Erikson,"['capslock', 'lshift', 'm', 'comma', 'a', 'r', 's', 'h', 'a', 'l', 'l', 'space', 'lshift', 'e', 'r', 'i', 'k', 's', 'o', 'n', 'return']","[0.43350884328901884, 0.4836106591665157, 0.8000363765604561, 0.8232448790531635, 1.3165309335490747, 1.566374392441503, 1.6829988015615527, 1.8830111837069126, 1.9995143376254418, 2.2161168694856315, 2.332799660742239, 2.6161547857955156, 2.666069586372032, 2.916009921113073, 3.1326198309361644, 3.2824255018294934, 3.4490503600445663, 3.5824002884455695, 3.698937765928349, 3.848955152256167, 4.4819451644198125]",3.76573687236,0.816719231972,2017_Feb_28_1246,60.0506619767,famFaceFilter,001,26,
25,./img/edges5_JoachimLoew8_1.png,0,1,1,24,,,None,None,1,None,None,None,None,None,None,5,Jogi Löw,"['lshift', 'j', 'o', 'g', 'i', 'space', 'lshift', 'l', u'\xf6', 'w', 'return']","[0.5334080539123534, 0.7668560771307966, 0.999993584380718, 1.316593806617675, 1.5331835072393005, 1.81642635895696, 1.9996192329999758, 2.1829625533137005, 2.4161581219177606, 2.5829100093924353, 3.0993160308371444]",1.46649250399,1.31632755842,2017_Feb_28_1246,60.0506619767,famFaceFilter,001,26,
51,./img/edges5_Ice-T(OdafinFinTutuola)6_1.png,0,2,2,50,,,None,None,1,None,None,None,None,None,None,1,Ice T,"['lshift', 'i', 'c', 'e', 'space', 'lshift', 't', 'return']","[0.3836395936104964, 0.6002013862871536, 0.8334540539017326, 0.9666808024157945, 1.099932571842146, 1.266598810801952, 1.3833143217161705, 1.8663055528468249]",1.36648968112,2.46606041204,2017_Feb_28_1246,60.0506619767,famFaceFilter,001,26,
46,./img/edges5_TomCruise5_1.png,0,3,3,45,,,None,None,1,None,None,None,None,None,None,1,Tom Cruise,"['lshift', 't', 'o', 'm', 'space', 'lshift', 'v', 'backspace', 'lshift', 'c', 'r', 'u', 'i', 's', 'e', 'return']","[0.3835802491321374, 0.5167396336437378, 0.8833781571265718, 1.0999280809101037, 1.2499531659814238, 1.3998772050490516, 1.5831044026544987, 2.499459484082763, 2.815958660316028, 2.8992199248605175, 3.0491641731296113, 3.7655309309848235, 3.9156140774084633, 4.015821558534299, 4.165354244831178, 4.365441048159482]",1.96624037015,0.200249118494,2017_Feb_28_1246,60.0506619767,famFaceFilter,001,26,
21,./img/edges5_JoshRadnor(Ted)3_1.png,0,4,4,20,,,None,None,1,None,None,None,None,None,None,1,Ted Mosby,"['lshift', 'capslock', 't', 'e', 'd', 'space', 'lshift', 'm', 'o', 's', 'b', 'x', 'y', 'backspace', 'backspace', 'y', 'return']","[0.3503399636629183, 0.46683894742818666, 0.6502284602011059, 0.8167173072888545, 1.1998760502374353, 1.3998608452202461, 1.4996182706581749, 1.6664285402675887, 1.7829458085489023, 1.9827840066318458, 2.099552125624541, 2.5660154385459464, 2.6993608760149073, 2.9656767580090673, 3.448990694787426]",1.0666598875,0.133395158517,2017_Feb_28_1246,60.0506619767,famFaceFilter,001,26,
10,./img/edges5_GuentherJauch4_1.png,0,5,5,9,,,None,None,1,None,None,None,None,None,None,3,GÜnther Jauch,"['lshift', 'g', u'\xdc', 'n', 't', 'h', 'e', 'r', 'space', 'lshift', 'j', 'a', 'u', 'c', 'h', 'return']","[0.8667549669717118, 1.0999014560893556, 1.5330760456181451, 1.8328063971421216, 2.082953314822589, 2.249450822995641, 2.31614856264423, 2.4661845542686933, 2.5994042456004536, 2.749378647278718, 2.865940824895006, 2.8924123113156384, 3.0491080364608933, 3.14925649388897, 3.282433521353596, 3.6323731503762247]",1.48300374159,1.26679288328,2017_Feb_28_1246,60.0506619767,famFaceFilter,001,26,
32,./img/edges5_Ice-T(OdafinFinTutuola)7_1.png,0,6,6,31,,,None,None,1,None,None,None,None,None,None,1,Ice T,"['lshift', 'i', 'c', 'e', 'space', 'lshift', 't', 'return']","[0.5834854904351232, 0.7000608200705756, 0.9666118345085124, 1.0998639247172832, 1.1998815035130974, 1.3998409567993804, 1.4498805411712965, 2.2827828518202296]",1.56655916227,0.13365306641,2017_Feb_28_1246,60.0506619767,famFaceFilter,001,26,
41,./img/edges5_OmarEpps(DrEricForeman)3_1.png,0,7,7,40,,,None,None,1,None,None,None,None,None,None,4,,['return'],[0.30029941694920126],3.53235621314,1.93341517525,2017_Feb_28_1246,60.0506619767,famFaceFilter,001,26,
36,./img/edges5_AngelaMerkel1_1.png,0,8,8,35,,,None,None,1,None,None,None,None,None,None,4,Angela Merkel,"['lshift', 'a', 'm', 'backspace', 'n', 'g', 'e', 'l', 'a', 'space', 'lshift', 'm', 'e', 'r', 'k', 'e', 'l', 'return']","[0.366679904227567, 0.6668118735142343, 0.8500073138056905, 1.4333208656462375, 1.849677230196903, 2.049532750452272, 2.2161710814671096, 2.3661175752040435, 2.482681356723333, 2.6161579936051567, 2.7324147877461655, 2.8324817668108153, 2.932566709609091, 3.0992717630633706, 3.1990323963109404, 3.2824681656966277, 3.415713198724916, 3.682239192246925]",3.99884294307,1.41602820563,2017_Feb_28_1246,60.0506619767,famFaceFilter,001,26,
52,./img/edges5_BarackObama4_1.png,0,9,9,51,,,None,None,1,None,None,None,None,None,None,4,Barak Obama,"['lshift', 'n', 'b', 'a', 'r', 'a', 'backspace', 'backspace', 'backspace', 'backspace', 'backspace', 'lshift', 'b', 'a', 'r', 'a', 'k', 'space', 'lshift', 'o', 'b', 'a', 'm', 'a', 'return']","[0.38320846399801667, 0.5337384582999221, 0.6835271278032451, 0.8167115332307731, 0.966644233383704, 1.3165363868247368, 1.466504372885538, 1.5994642316400132, 1.7163927411111217, 1.8501853472389485, 2.1661420828695555, 2.349400396227793, 2.5161404148075235, 2.649341180063857, 2.7826141210334754, 2.9826402967610193, 3.3323316413207067, 3.5823040541581577, 3.6656018877311, 3.8822381015925203, 4.015236133280268, 4.132092146255673, 4.23212095238523, 4.648609799472979]",1.10026618404,1.13300156028,2017_Feb_28_1246,60.0506619767,famFaceFilter,001,26,
72,./img/edges5_EmilyDeschanel6_12.png,0,10,10,71,,,None,None,2,None,None,None,None,None,None,1,,['return'],[0.5501531408299343],3.349131261,0.733218664833,2017_Feb_28_1246,60.0506619767,famFaceFilter,001,26,
14,./img/edges5_AngelaMerkel4_1.png,0,11,11,13,,,None,None,1,None,None,None,None,None,None,4,Angela Merkel,"['lshift', 'a', 'n', 'g', 'e', 'l', 'a', 'space', 'lshift', 'm', 'e', 'r', 'k', 'e', 'l', 'return']","[0.6500452942709671, 1.2666023393903743, 1.466500202732277, 1.7497696792706847, 1.9330058587438543, 2.1157996812708006, 2.249586513342365, 2.3828013929596636, 2.515857806782151, 2.599372809065244, 2.732839501737544, 2.88254188116116, 2.9492739443739993, 3.0491811745196173, 3.1824525115862343, 3.4156647607997]",1.08332349605,1.38317991449,2017_Feb_28_1246,60.0506619767,famFaceFilter,001,26,
2,./img/edges5_OmarEpps(DrEricForeman)1_5.png,0,12,12,1,,,None,None,1,None,None,None,None,None,None,4,,['return'],[0.36659810508172086],1.64977134733,0.999962789409,2017_Feb_28_1246,60.0506619767,famFaceFilter,001,26,
47,./img/edges5_UrsulavonderLeyen5_1.png,0,13,13,46,,,None,None,1,None,None,None,None,None,None,4,Ursula von der Leyen,"['lshift', 'u', 'r', 's', 'i', 'l', 'backspace', 'backspace', 'u', 'l', 'a', 'space', 'v', 'o', 'n', 'space', 'd', 'e', 'r', 'space', 'lshift', 'l', 'e', 'y', 'e', 'n', 'return']","[0.6168605039092654, 0.8168080883006041, 1.050040546713717, 1.2165746239170403, 1.3663106853418867, 1.5830630219115847, 1.9163104928738903, 2.066276875029871, 2.6159629587818927, 2.816024420413669, 2.965993368816271, 3.1991257435711304, 3.498825300122917, 3.6322858979565353, 3.7989787617352704, 3.9488960644030158, 4.048795595806951, 4.232101705529203, 4.348540382474312, 4.465165112376781, 4.68176604033215, 4.848461149576906, 4.9651343174045905, 5.214920998065281, 5.431669806042919, 5.748175718677885, 6.447829467710108]",1.56635001309,2.06617807449,2017_Feb_28_1246,60.0506619767,famFaceFilter,001,26,
60,./img/edges5_TomCruise1_1.png,0,14,14,59,,,None,None,1,None,None,None,None,None,None,1,Tom Cruise,"['lshift', 't', 'o', 'i', 'backspace', 'm', 'space', 'lshift', 'c', 'r', 'u', 'i', 's', 'e', 'return']","[0.2835379702009959, 0.3667905736601824, 0.633389063679715, 0.656347036241641, 1.199857765723209, 1.4998572524727933, 1.8662734747504146, 1.9830412729625095, 2.1329463859547104, 2.3325866621853493, 2.5327841349444498, 2.6992909457658243, 2.8492226835769543, 2.999248410209475, 3.2990798077371437]",1.36651406047,0.166935694966,2017_Feb_28_1246,60.0506619767,famFaceFilter,001,26,
27,./img/edges5_OmarEpps(DrEricForeman)2_2.png,0,15,15,26,,,None,None,1,None,None,None,None,None,None,4,,"['plus', 'return']","[0.21697335465069045, 0.6500683905014739]",2.54937556778,0.88339964945,2017_Feb_28_1246,60.0506619767,famFaceFilter,001,26,
31,./img/edges5_GeorgeClooney4_2.png,0,16,16,30,,,None,None,1,None,None,None,None,None,None,1,George Clooney,"['lshift', 'g', 'e', 'o', 'r', 'g', 'e', 'space', 'lshift', 'c', 'l', 'o', 'o', 'n', 'e', 'y', 'return']","[0.7335246898692276, 0.9001678325985267, 1.099991916320505, 1.283154316171931, 1.5163527718032128, 1.633159063729181, 1.7497029568312428, 1.8830737359949126, 2.0662537787993642, 2.166243449652029, 2.5325124334704014, 2.749238786780552, 2.899243662650406, 3.0658300271516055, 3.1991863711718906, 3.348822669719084, 3.5824140820277535]",1.26647306466,0.51685896416,2017_Feb_28_1246,60.0506619767,famFaceFilter,001,26,
40,./img/edges5_NicoleKidman3_1.png,0,17,17,39,,,None,None,1,None,None,None,None,None,None,1,Nikole Kidman,"['lshift', 'n', 'i', 'k', 'o', 'l', 'e', 'space', 'lshift', 'k', 'i', 'd', 'm', 'a', 'n', 'return']","[0.41691099483068683, 0.716842476018428, 0.9002480278377334, 1.1498303710286564, 1.2833317080439883, 1.450028421193565, 1.583198070695289, 1.716368682540633, 1.8996735091386654, 1.982899808557704, 2.166285792740382, 2.249691729497499, 2.366263209760291, 2.466084470608621, 2.59960697916722, 2.9993295677923015]",1.53306770531,0.183600265862,2017_Feb_28_1246,60.0506619767,famFaceFilter,001,26,
29,./img/edges5_TomCruise4_1.png,0,18,18,28,,,None,None,1,None,None,None,None,None,None,1,Tom Cruise,"['lshift', 't', 'o', 'm', 'space', 'lshift', 'c', 'r', 'u', 'i', 's', 'e', 'return']","[0.41691548576454807, 0.6003418883465201, 0.9829046202721656, 1.1667198093782645, 1.3165742389792285, 1.5664969307672436, 1.749735997269454, 2.3662901553598203, 2.6326900819658476, 2.8161075026819162, 2.915990995035827, 3.082521543648909, 3.3326103999752377]",3.7655559519,0.96673308971,2017_Feb_28_1246,60.0506619767,famFaceFilter,001,26,
1,./img/edges5_BastianSchweinsteiger6_2.png,0,19,19,0,,,None,None,1,None,None,None,None,None,None,5,Bastian Schwinsteiger,"['lshift', 'b', 'a', 's', 't', 'i', 'a', 'n', 'space', 'lshift', 's', 'c', 'h', 'w', 'i', 'n', 's', 't', 'e', 'i', 'g', 'e', 'r', 'return']","[0.533468039950094, 1.016371056317439, 1.2332946899186936, 1.4164975081730518, 1.4498696346163342, 1.6663813854647742, 1.7497369596112549, 1.9162408834035887, 2.399447358560792, 2.565986568259177, 2.6992691326595377, 2.899282156366098, 2.9825039648512757, 3.1324289662625233, 3.2325485534056497, 3.3823465255572955, 3.4490218105383974, 3.5989631717784505, 3.715665851454105, 3.8153170983950986, 3.9822823052090826, 4.0987405497926375, 4.232023114192998, 4.615244730210179]",1.33316438869,1.21652907302,2017_Feb_28_1246,60.0506619767,famFaceFilter,001,26,
38,./img/edges5_GeorgeClooney11_1.png,0,20,20,37,,,None,None,1,None,None,None,None,None,None,1,Geirge Clooney,"['lshift', 'g', 'e', 'i', 'r', 'g', 'e', 'space', 'lshift', 'c', 'l', 'o', 'o', 'n', 'e', 'y', 'return']","[0.5168653797791194, 0.6830882994490821, 0.8667581747813529, 1.0831031195302785, 1.199941489552657, 1.3500695453112712, 1.4665380548867688, 1.5832218084851775, 1.7831360316558857, 1.9162594887002342, 2.2832704388783895, 2.4995380754171492, 2.6661071177441045, 2.8327047095772286, 2.965996576625912, 3.149064666875347, 3.4324178672432026]",1.24973150634,0.816556596026,2017_Feb_28_1246,60.0506619767,famFaceFilter,001,26,
53,./img/edges5_KatjaBurkard4_1.png,0,21,21,52,,,None,None,1,None,None,None,None,None,None,3,Katja Burkhard,"['lshift', 'k', 'a', 't', 'j', 'a', 'space', 'lshift', 'b', 'u', 'r', 'k', 'h', 'a', 'r', 'd', 'return']","[0.6333367763818387, 1.1000037852154492, 1.3164128861553763, 1.4496729958882497, 1.6996463710693206, 1.8162156058642722, 1.9495719498863764, 2.1161249531651265, 2.182912190703064, 2.3994232999884844, 2.5492171019868692, 2.899209980649175, 3.149132672439009, 3.3156616171454516, 3.41557237588313, 3.598826839870526, 3.965496479107969]",1.25000352859,0.950099955347,2017_Feb_28_1246,60.0506619767,famFaceFilter,001,26,
16,./img/edges5_BritneySpears7_1.png,0,22,22,15,,,None,None,1,None,None,None,None,None,None,2,Britney Spears,"['lshift', 'b', 'r', 'i', 't', 'n', 'e', 'y', 'space', 'capslock', 's', 'p', 'backspace', 'backspace', 'lshift', 's', 'p', 'e', 'a', 'r', 's', 'return']","[0.5001841282719397, 1.0667140994773945, 1.3329392004598049, 1.466455614179722, 1.6830449940207473, 1.882951197667353, 1.9830393482752697, 2.166089474791079, 2.2993329039145465, 2.4994610879857646, 2.9159585961606354, 3.1491214451052656, 3.6488625748697814, 3.7655171374026395, 4.165229140255178, 4.398591514958753, 4.598094176157247, 5.215007929706189, 5.398258544320925, 5.481612835345004, 5.631503833974421, 5.948083205448711]",2.56598977607,0.650152114333,2017_Feb_28_1246,60.0506619767,famFaceFilter,001,26,
26,./img/edges5_NicoleKidman7_1.png,0,23,23,25,,,None,None,1,None,None,None,None,None,None,1,Nicole Kidman,"['lshift', 'n', 'i', 'c', 'o', 'l', 'e', 'space', 'lshift', 'k', 'i', 'd', 'm', 'comma', 'a', 'n', 'n', 'backspace', 'return']","[0.6168159153548913, 0.8667501552590693, 1.0500844937050715, 1.2165143170968804, 1.3833210581160529, 1.5498346053373098, 1.6497120028543577, 1.7664496476554632, 1.9662419740616315, 2.116351103743, 2.2829374682441994, 2.3828543218187406, 2.5495632246456807, 2.6328174320078688, 3.1658379825184966, 3.998709818977659, 4.915081581015329, 6.048070310054754]",2.44945422328,2.13266955199,2017_Feb_28_1246,60.0506619767,famFaceFilter,001,26,
13,./img/edges5_MariskaHargitay(Liv)6_5.png,0,24,24,12,,,None,None,1,None,None,None,None,None,None,1,Olivia Benson ,"['lshift', 'o', 'l', 'i', 'v', 'i', 'a', 'space', 'lshift', 'b', 'e', 'n', 's', 'i', 'o', 'n', 'backspace', 'backspace', 'backspace', 'o', 'n', 'space', 'return']","[0.38371914728668344, 0.6504327976708737, 0.8335913481514581, 1.0000971966310317, 1.2168152096364793, 1.4500322705644066, 1.6498845830101345, 1.8164045458506735, 2.116072665869069, 2.1995751576960174, 2.4329882157890097, 2.51594570076486, 2.6661048722762644, 2.7996860837520217, 2.9323088017154078, 3.3156827886887186, 3.4324611726715375, 3.582545923001817, 4.0322686399395025, 4.182031967746298, 4.348859880308737, 4.7486787032230495]",1.61639954167,0.550144158964,2017_Feb_28_1246,60.0506619767,famFaceFilter,001,26,
19,./img/edges5_HughLaurie(DrHouse)2_1.png,0,25,25,18,,,None,None,1,None,None,None,None,None,None,1,Dr House,"['lshift', 'd', 'r', 'space', 'lshift', 'h', 'o', 'u', 's', 'e', 'return']","[0.25025277539680246, 0.600242125468867, 0.7667158958502114, 1.1832191780813446, 1.3165562752437836, 1.4498083654525544, 2.3162528164557443, 2.482741984324093, 2.5827403162638802, 2.7492625245704403, 2.8658631959006016]",1.41643559745,0.649943285925,2017_Feb_28_1246,60.0506619767,famFaceFilter,001,26,
64,./img/edges5_EmilyDeschanel3_1.png,0,26,26,63,,,None,None,1,None,None,None,None,None,None,2,,['return'],[0.15044017563377565],7.9969487315,25.956831223,2017_Feb_28_1246,60.0506619767,famFaceFilter,001,26,
56,./img/edges5_NeilPatrickHarris(Barney)1_1.png,0,27,27,55,,,None,None,1,None,None,None,None,None,None,1,Neil partik Harris,"['lshift', 'n', 'e', 'i', 'l', 'space', 'p', 'a', 'r', 't', 'i', 'k', 'space', 'lshift', 'h', 'a', 'r', 'r', 'i', 's', 'backspace', 'backspace', 's', 'backspace', 'backspace', 's', 'backspace', 'i', 's', 'backspace', 'backspace', 'r', 'i', 's', 'return']","[0.283477663380836, 0.4166222919666325, 0.983336391445846, 1.1165429307584418, 1.3163294831065286, 1.6827793873853807, 1.9826483162851218, 2.099468401793274, 2.3994370935706684, 2.5825677361081034, 2.6826549243724003, 2.8489718328655727, 2.9991617993509863, 3.11583079702541, 3.232411259155924, 3.282472977412908, 3.465449645087574, 3.598967021151111, 3.832184723640239, 3.932120182511426, 4.665146057986931, 5.2149540385034925, 5.514841251919279, 5.798076084111017, 5.948025785657592, 6.064766638266519, 6.49776191123965, 6.7643373050304945, 6.86423555330839, 7.4973939754763705, 7.646939493011814, 8.463718711025649, 8.580124347532546, 8.696943470697079, 8.863427506070366]",1.29983075596,1.8160988416,2017_Feb_28_1246,60.0506619767,famFaceFilter,001,26,
49,./img/edges5_RobertSeanLeonard(Wilson)2_6.png,0,28,28,48,,,None,None,1,None,None,None,None,None,None,1,,['return'],[0.2670369975930953],3.16578344975,0.233592695433,2017_Feb_28_1246,60.0506619767,famFaceFilter,001,26,
70,./img/edges5_BastianSchweinsteiger1_1.png,0,29,29,69,,,None,None,1,None,None,None,None,None,None,5,Bastian Schwinsteiger,"['lshift', 'b', 'a', 's', 't', 'i', 'a', 'n', 'space', 'lshift', 's', 'c', 'h', 'w', 'i', 'n', 's', 't', 'e', 'i', 'g', 'e', 'r', 'return']","[0.45010797487157106, 0.6500087252425146, 0.8333514039950387, 0.9830563496670948, 1.0665925234934548, 1.2831902436391829, 1.36638414418303, 1.4830614821621566, 1.6662505068343307, 1.9994238773942925, 2.2326614683042862, 2.4660639406265545, 2.549297297227895, 2.715985990853369, 2.7992588035122026, 2.9488976683078363, 3.032421010895632, 3.1490165497307316, 3.265889564097961, 3.365407686938852, 3.5323744976576563, 3.615655971401793, 3.7486530407477403, 4.065373876625017]",1.38326524223,0.666763114808,2017_Feb_28_1246,60.0506619767,famFaceFilter,001,26,
69,./img/edges5_GuentherJauch2_1.png,0,30,30,68,,,None,None,1,None,None,None,None,None,None,3,Günther Jauch,"['lshift', 'g', u'\xfc', 'n', 't', 'h', 'e', 'r', 'space', 'lshift', 'j', 'a', 'u', 'c', 'h', 'return']","[0.4668460046086693, 0.7333485811213905, 1.0663538624594366, 1.3496704937970208, 1.5657216031868302, 1.7493176988973573, 1.8322155186124292, 1.9662249726698064, 2.0656773354130564, 2.232346461400084, 2.2994365161648602, 2.3823105980900436, 2.516116677017635, 2.632529370705015, 2.6993502902423643, 3.1158734608925442]",1.68275083788,1.26690387349,2017_Feb_28_1246,60.0506619767,famFaceFilter,001,26,
57,./img/edges5_BritneySpears5_1.png,0,31,31,56,,,None,None,1,None,None,None,None,None,None,2,Britney Spears,"['lshift', 'b', 'r', 'i', 't', 'n', 'e', 'y', 'space', 'lshift', 's', 'p', 'e', 'a', 'r', 's', 'return']","[0.5335273844284529, 0.7499066527398099, 0.9833097666250978, 1.1498643738086685, 1.3664277703919652, 1.566503667167126, 1.7164366881024762, 1.9329452311412751, 2.0661418262443476, 2.2827793232281692, 2.4661242474467144, 2.649324499452632, 2.8324881824282784, 3.0491773251487757, 3.165732445582762, 3.282354930017391, 3.665501483290427]",2.19956713817,0.933327281266,2017_Feb_28_1246,60.0506619767,famFaceFilter,001,26,
58,./img/edges5_HughLaurie(DrHouse)5_3.png,0,32,32,57,,,None,None,1,None,None,None,None,None,None,1,Dr House,"['lshift', 'd', 'r', 'space', 'lshift', 'h', 'o', 'u', 's', 'e', 'return']","[0.3335486842843238, 0.6335831361593591, 0.7832178308017319, 0.9999913389146968, 1.1997297741181683, 1.2999061394912133, 1.483186907516938, 1.6663595723603066, 1.799761788059186, 1.949634181391957, 2.2161912906685757]",1.56645362534,0.250035927467,2017_Feb_28_1246,60.0506619767,famFaceFilter,001,26,
22,./img/edges5_JasonSegel(Marshall)6_1.png,0,33,33,21,,,None,None,1,None,None,None,None,None,None,1,Marshall Errikson,"['lshift', 'm', 'a', 'r', 's', 'h', 'a', 'l', 'l', 'space', 'lshift', 'w', 'backspace', 'lshift', 'e', 'r', 'r', 'i', 'k', 's', 'o', 'n', 'return']","[0.5833712924122665, 0.7501838074895204, 0.8830894542606984, 1.0498323598694697, 1.216599644831149, 1.3163577118302783, 1.4497512664420356, 1.6496388647938147, 1.7662016839713033, 2.0327911921231134, 2.1661651790982432, 2.332751864378224, 2.932533989949661, 3.1158333632720314, 3.2656646966424887, 3.632400095977573, 3.7820768129240605, 3.9322026232184726, 4.115144646550107, 4.365421801299817, 4.465280914302639, 4.598543911062734, 4.915073882270008]",1.03324381406,0.166947563863,2017_Feb_28_1246,60.0506619767,famFaceFilter,001,26,
6,./img/edges5_GuentherJauch3_1.png,0,34,34,5,,,None,None,1,None,None,None,None,None,None,3,Günther Jauch,"['lshift', 'g', u'\xfc', 'n', 't', 'h', 'e', 'r', 'space', 'lshift', 'j', 'a', 'u', 'c', 'h', 'return']","[0.5833340818226134, 0.8167086462017323, 1.2999314811877412, 1.6498720725539897, 1.8663376309432351, 2.049568998701943, 2.166275206967839, 2.3160484789859765, 2.482715038724564, 2.6825756914768135, 2.8826955352433288, 2.910076114907497, 3.082349925836752, 3.182459568768536, 3.2658189922858583, 3.582393231265087]",1.33333793119,0.76679192094,2017_Feb_28_1246,60.0506619767,famFaceFilter,001,26,
71,./img/edges5_HughLaurie(DrHouse)4_1.png,0,35,35,70,,,None,None,1,None,None,None,None,None,None,1,Dr House,"['lshift', 'd', 'r', 'space', 'lshift', 'h', 'o', 'u', 's', 'e', 'return']","[0.4668703839615773, 0.6331702910629247, 0.7668166210714844, 0.966665404926971, 1.1665446629740472, 1.2333075211572577, 1.4831198642968957, 1.6664218038658873, 1.7830167011397862, 1.9329243803786085, 2.0662614775428665]",0.966781206856,0.150313787935,2017_Feb_28_1246,60.0506619767,famFaceFilter,001,26,
61,./img/edges5_NeilPatrickHarris(Barney)2_2.png,0,36,36,60,,,None,None,1,None,None,None,None,None,None,1,Neil Patrick Harris,"['lshift', 'n', 'e', 'i', 'l', 'space', 'lshift', 'p', 'a', 't', 'r', 'i', 'c', 'k', 'space', 'lshift', 'h', 'a', 'r', 'r', 'i', 's', 'return', 'plus']","[0.3175603196523298, 0.4341401402198244, 0.6506810821356339, 0.8007440193596267, 0.9831298085064191, 1.2165072599145788, 1.3830329968131991, 1.5830155463281699, 1.749665104676751, 1.9165437006322463, 2.0834421850049694, 2.64987111021037, 2.7828877471929445, 2.883206860093196, 3.0496774226667185, 3.199753832690476, 3.299608133978836, 3.3828161488836486, 3.6829436272364546, 3.799487199556097, 3.9327970303384063, 4.049774298515331, 4.382893777876234]",1.39970270021,0.133437822384,2017_Feb_28_1246,60.0506619767,famFaceFilter,001,26,
34,./img/edges5_KatjaBurkard1_1.png,0,37,37,33,,,None,None,1,None,None,None,None,None,None,3,Katja Burkhard,"['lshift', 'k', 'a', 't', 'j', 'h', 'a', 'backspace', 'backspace', 'a', 'space', 'lshift', 'b', 'r', 'u', 'backspace', 'backspace', 'u', 'r', 'k', 'h', 'a', 'r', 'd', 'return']","[0.533369560194842, 0.8499165327939409, 1.0165753937890258, 1.1663647048553685, 1.3665044370409305, 1.4329516467605572, 1.8164045458506735, 1.9662317090696888, 2.3162030954063084, 2.4993869875834207, 2.69930666403161, 2.8987977771157603, 3.1825468211882253, 3.3656052880087373, 4.282119156012413, 4.432004701364349, 4.831728893894251, 4.931792023588059, 5.115019221193506, 5.698142229144651, 5.847936351923636, 5.94810983026764, 6.081203454681599, 6.364504688533998]",2.46611366168,0.783296742919,2017_Feb_28_1246,60.0506619767,famFaceFilter,001,26,
3,./img/edges5_NicoleKidman5_1.png,0,38,38,2,,,None,None,1,None,None,None,None,None,None,1,Nicole Kidman,"['lshift', 'lshift', 'n', 'i', 'c', 'o', 'l', 'e', 'space', 'lshift', 'k', 'i', 'd', 'm', 'a', 'n', 'return']","[0.5668687159013643, 0.7331580372319877, 0.8667398902671266, 1.049915442139536, 1.2165293938014656, 1.3665265709296364, 1.5327831726008299, 1.6162455668072653, 1.91618602986091, 2.1493248202350514, 2.31612001313988, 2.4827500038500148, 2.615916766322698, 2.749066206624775, 2.865920936475959, 2.9658964929658396, 3.282418444649011]",5.63161739043,0.133651783286,2017_Feb_28_1246,60.0506619767,famFaceFilter,001,26,
4,./img/edges5_LeonardoDiCaprio1_1.png,0,39,39,3,,,None,None,1,None,None,None,None,None,None,1,Leonardo de Caprio,"['lshift', 'l', 'e', 'o', 'n', 'a', 'r', 'd', 'o', 'space', 'd', 'e', 'space', 'lshift', 'c', 'a', 'p', 'r', 'i', 'o', 'return']","[0.3002083151550323, 0.3835039032619534, 0.5835438725698623, 0.7168229083781625, 2.1329547262575943, 2.432677058257468, 3.399022323786994, 3.6155632657028036, 3.8488053475466586, 4.048681077001675, 4.1821134461097245, 4.348661637675832, 4.481947730666434, 4.6318599008391175, 4.7152148334243975, 4.915131302061127, 5.198062033903625, 5.348275417400146, 5.514837081764199, 5.6314528298007644, 5.997652204148835]",1.69973939755,0.116965399282,2017_Feb_28_1246,60.0506619767,famFaceFilter,001,26,
50,./img/edges5_WillSmith5_1.png,0,40,40,49,,,None,None,1,None,None,None,None,None,None,1,Will Smith,"['lshift', 'w', 'i', 'l', 'l', 'space', 'lshift', 's', 'm', 'i', 't', 'h', 'return']","[0.23368026863499836, 0.39998755369924766, 0.5669559683228726, 0.8003035871006432, 0.9335098056326387, 1.1165211176521552, 1.266694403528163, 1.5167075555473275, 1.699882145076117, 1.866332177667573, 2.3493991131053917, 2.4996602929641085, 2.7995860000937682]",2.0494544799,0.13364633001,2017_Feb_28_1246,60.0506619767,famFaceFilter,001,26,
20,./img/edges5_JoshRadnor(Ted)1_2.png,0,41,41,19,,,None,None,1,None,None,None,None,None,None,1,Ted Mosby,"['lshift', 't', 'e', 'd', 'space', 'lshift', 'm', 'o', 's', 'n', 'b', 'y', 'backspace', 'backspace', 'backspace', 'b', 'y', 'return']","[0.2837342881484801, 0.40040328582472284, 0.567046428554022, 0.7001580167016073, 0.8669577005402971, 1.1334397470709519, 1.266604264077614, 1.4495639303622738, 1.5497768647637713, 1.6998433305798244, 1.7997515230690624, 2.216220481735945, 2.3496406611684506, 2.4661582502303645, 2.999340474345445, 3.0827310136173764, 3.6323901517680497]",1.29967870579,0.100219350021,2017_Feb_28_1246,60.0506619767,famFaceFilter,001,26,
54,./img/edges5_KatjaBurkard5_3.png,0,42,42,53,,,None,None,1,None,None,None,None,None,None,3,Katja Burkhard,"['lshift', 'k', 'a', 't', 'j', 'a', 'space', 'lshift', 'b', 'u', 'r', 'k', 'h', 'a', 'r', 'd', 'return']","[0.45009514363300696, 0.6499776094897243, 0.8165655778939254, 0.9332544639873959, 1.1498791297344724, 1.2165220158385637, 1.4832035881281627, 1.6997191883474443, 1.8495473139082605, 2.0327263943709113, 2.2162506351469347, 2.915906308862759, 3.165829000652593, 3.265689396777816, 3.399081668267172, 3.548879961197599, 3.998525690705719]",1.18348991721,0.583536815389,2017_Feb_28_1246,60.0506619767,famFaceFilter,001,26,
18,./img/edges5_JoshRadnor(Ted)6_2.png,0,43,43,17,,,None,None,1,None,None,None,None,None,None,1,Ted Mosby,"['lshift', 't', 'e', 'd', 'space', 'lshift', 'm', 'o', 's', 'b', 'y', 'return']","[0.30021312687131285, 0.4001540390181617, 0.5334898530581995, 0.6833314514187805, 0.7665333714849112, 0.9332509353971545, 1.0333442185019521, 1.1830963189750037, 1.3165431232264382, 1.4661463813354203, 1.5660667635002028, 1.9827987625558308]",1.06678755832,0.116873976709,2017_Feb_28_1246,60.0506619767,famFaceFilter,001,26,
48,./img/edges5_GeorgeClooney3_1.png,0,44,44,47,,,None,None,1,None,None,None,None,None,None,1,George Clooney,"['lshift', 'g', 'e', 'o', 'r', 'g', 'e', 'space', 'lshift', 'c', 'l', 'o', 'o', 'n', 'e', 'y', 'return']","[0.25030249644623837, 0.4171021802831092, 0.6171315638202941, 0.8335233425877959, 1.0001719385945762, 1.116729625277003, 1.2333129744347389, 1.3666382027022337, 1.5332739674704499, 1.684409917006633, 2.033043967521735, 2.266334808069587, 2.399623467308629, 2.5662771958104713, 2.682861186529408, 2.8328432869529934, 3.1991969569426146]",1.39985058023,0.133617138943,2017_Feb_28_1246,60.0506619767,famFaceFilter,001,26,
45,./img/edges5_WillSmith4_1.png,0,45,45,44,,,None,None,1,None,None,None,None,None,None,1,Will Smith,"['lshift', 'w', 'i', 'l', 'l', 'space', 'lshift', 's', 'm', 'i', 't', 'h', 'return']","[0.28361752387900196, 0.4168689725265722, 0.6001141338656453, 0.8167769725459948, 0.9499613779735228, 1.1331231362637482, 1.1588225029136083, 1.29986668343372, 1.383044544927543, 1.533077970303566, 1.6497107197301375, 1.7663659238241962, 2.0494050796314696]",2.14955482018,0.516498085579,2017_Feb_28_1246,60.0506619767,famFaceFilter,001,26,
62,./img/edges5_AlysonHannigan(Lily)5_4.png,0,46,46,61,,,None,None,1,None,None,None,None,None,None,1,Lilly Auldrin,"['lshift', 'l', 'i', 'l', 'l', 'y', 'space', 'lshift', 'a', 'u', 'l', 'd', 'r', 'i', 'n', 'return']","[0.3836399143892777, 0.7001050878425303, 0.8998929233148374, 1.099932571842146, 1.233267423538564, 1.3331929381984082, 1.6164829447170632, 1.7163657955097733, 1.899539422696762, 2.0996047336993797, 2.3328031893324805, 2.4827304362097493, 2.6493100643092475, 2.7327147179421445, 2.8825361071048974, 3.199107138274485]",1.43349440815,0.3004569204,2017_Feb_28_1246,60.0506619767,famFaceFilter,001,26,
55,./img/edges5_JoachimLoew1_1.png,0,47,47,54,,,None,None,1,None,None,None,None,None,None,5,Jogi Löw,"['lshift', 'j', 'o', 'g', 'i', 'space', 'lshift', 'l', u'\xf6', 'w', 'return']","[0.45010380471831013, 0.9500787838042015, 1.2332286090422713, 1.4498442929216253, 1.7162185570505244, 2.0995639945194853, 2.349382432494167, 2.5659698876497714, 2.766049954578193, 3.4657736338576797, 3.9488777798887895]",1.04985417298,1.33324330081,2017_Feb_28_1246,60.0506619767,famFaceFilter,001,26,
66,./img/edges5_BritneySpears1_1.png,0,48,48,65,,,None,None,1,None,None,None,None,None,None,2,Britney Spears,"['lshift', 'b', 'r', 'i', 't', 'n', 'e', 'y', 'space', 'lshift', 's', 'p', 'e', 'a', 'r', 't', 's', 'backspace', 'backspace', 's', 'return']","[0.416602724328186, 0.5668305429662723, 0.7667319349002355, 0.900108808902587, 1.116615106473546, 1.2996139080350986, 1.399813048856231, 1.5664151316232164, 1.7162798262143042, 1.899548083782065, 2.0828115296371834, 2.332651139156951, 2.482721454343846, 2.6661116086779657, 2.7994047588490503, 2.9159598792830366, 3.382229440507217, 3.5157166631597647, 3.9988313949615986, 4.181926751592982]",5.41478261316,0.550088663858,2017_Feb_28_1246,60.0506619767,famFaceFilter,001,26,
67,./img/edges5_LeonardoDiCaprio2_1.png,0,49,49,66,,,None,None,1,None,None,None,None,None,None,1,Leonardo die Caprio,"['lshift', 'l', 'e', 'o', 'n', 'a', 'r', 'd', 'p', 'o', 'backspace', 'backspace', 'o', 'space', 'd', 'i', 'e', 'space', 'lshift', 'c', 'a', 'p', 'r', 'e', 'i', 'o', 'backspace', 'backspace', 'backspace', 'i', 'o', 'backspace', 'backspace', 'backspace', 'backspace', 'p', 'r', 'i', 'o', 'return']","[0.2502322454147361, 0.4005569399032538, 0.5166674579268147, 0.7001432607776223, 1.1833375462574622, 2.016366565385397, 2.2997444658867607, 2.499512412940021, 2.766324543079463, 3.232708943885882, 3.3656902949642244, 3.865438481911042, 4.1321906260109245, 4.34862763489582, 4.448785394972219, 4.565362970071874, 4.881836163049229, 5.031780411318323, 5.181792665151079, 5.331377317963415, 5.6316648660158535, 5.798265986441038, 5.8942875968114095, 6.048124842816833, 6.448003010209504, 6.564428214353029, 6.697949760569827, 7.264391196231372, 7.380990905217914, 8.16404032601713, 8.313886736092172, 10.01309588271215, 10.17955457638891, 11.296028218459469, 11.56253368200123, 11.679235078552665, 11.79584986424561, 12.262199299928398]",1.41658379825,0.333410427691,2017_Feb_28_1246,60.0506619767,famFaceFilter,001,26,
8,./img/edges5_LeonardoDiCaprio3_1.png,0,50,50,7,,,None,None,1,None,None,None,None,None,None,1,Leonardo de Caprio,"['lshift', 'l', 'e', 'o', 'n', 'a', 'r', 'd', 'o', 'space', 'd', 'i', 'o', 'backspace', 'backspace', 'e', '3', 'backspace', 'space', 'lshift', 'c', 'a', 'p', 'r', 'i', 'o', 'return']","[0.48364113335810544, 0.6670672151594772, 0.833505378855989, 1.0165859795633878, 1.2000893695767445, 1.3500137294267915, 1.5164352125120786, 1.7165951538991067, 1.83310889358836, 2.2162259350134264, 2.3828924947520136, 2.4827750247659424, 3.182482985777824, 3.8822753121839924, 4.015807764953934, 4.582046467046894, 4.915199307626608, 5.081723119839808, 5.265095952001502, 5.464903355112256, 5.864752652218158, 6.064801924172571, 6.198120095259583, 6.2981415234280576, 6.664528554638309]",1.28325119202,0.70008423708,2017_Feb_28_1246,60.0506619767,famFaceFilter,001,26,
65,./img/edges5_LisaEdelstein(DrLisaCuddy)1_1.png,0,51,51,64,,,None,None,1,None,None,None,None,None,None,1,,['return'],[0.45027702643710654],3.0492488593,4.58186298034,2017_Feb_28_1246,60.0506619767,famFaceFilter,001,26,
28,./img/edges5_Ice-T(OdafinFinTutuola)5_1.png,0,52,52,27,,,None,None,1,None,None,None,None,None,None,1,Ice T,"['lshift', 'i', 'c', 'e', 'space', 'lshift', 't', 'return']","[0.533419281244278, 0.8167436113253643, 1.133289300800243, 1.2666007354855537, 1.3831391753101343, 1.5331847903617017, 1.5994770628767583, 2.0329650554049294]",0.816648660162,0.516807959986,2017_Feb_28_1246,60.0506619767,famFaceFilter,001,26,
23,./img/edges5_UrsulavonderLeyen1_1.png,0,53,53,22,,,None,None,1,None,None,None,None,None,None,4,Ursula von der Leyen,"['lshift', 'u', 'i', 'r', 'backspace', 'backspace', 'r', 's', 'u', 'l', 'a', 'space', 'v', 'o', 'n', 'space', 'd', 'e', 'r', 'space', 'lshift', 'l', 'e', 'y', 'e', 'n', 'return']","[0.5501197796111228, 0.8334556578065531, 1.06660760019804, 1.7829223915377952, 2.0662287578852556, 2.4994023850704252, 2.699329760260298, 2.8491444130213495, 3.065593290801189, 3.1991578216657217, 3.4323203498297516, 3.7321273680045124, 3.8989562429105717, 4.248694742271255, 4.431988983098563, 4.565271547498924, 4.715042574049221, 4.848591065865548, 4.964993815343405, 5.181663069643037, 5.348403088222767, 5.4982472528317885, 5.731428386292464, 5.931239317993459, 6.081406188250185, 6.431087909380949]",1.51566180962,3.01589373425,2017_Feb_28_1246,60.0506619767,famFaceFilter,001,26,
68,./img/edges5_MariskaHargitay(Liv)4_4.png,0,54,54,67,,,None,None,1,None,None,None,None,None,None,1,Olivia Benson,"['lshift', 'o', 'l', 'i', 'v', 'i', 's', 'a', 'space', 'lshift', 'b', 'e', 'backspace', 'backspace', 'backspace', 'backspace', 'backspace', 'a', 'space', 'lshift', 'b', 'e', 'r', 'backspace', 'n', 's', 'o', 'n', 'return']","[0.40021691208494303, 0.5668305429662723, 0.7327612311819394, 0.9000173863278178, 1.1167145485705987, 1.2998849679461273, 1.4180436724018364, 1.5331645811620547, 1.6662100884313986, 1.8997562706263125, 2.0829122548584564, 2.3495672023273073, 2.465999784433734, 2.582685141938782, 2.7159417230814142, 2.8325298839536117, 3.532365836570534, 3.665441818031468, 3.8986858245607436, 4.032181066737394, 4.282042810144048, 4.31065775494244, 4.965105447116002, 5.2314787489031005, 5.481688218869749, 6.481190046037227, 6.6644640776648885, 7.880632913665977]",1.21662466575,0.1500347085,2017_Feb_28_1246,60.0506619767,famFaceFilter,001,26,
15,./img/edges5_LisaEdelstein(DrLisaCuddy)6_3.png,0,55,55,14,,,None,None,1,None,None,None,None,None,None,2,,['return'],[0.16715639226640633],4.74856418442,0.666739377019,2017_Feb_28_1246,60.0506619767,famFaceFilter,001,26,
11,./img/edges5_RobertSeanLeonard(Wilson)1_1.png,0,56,56,10,,,None,None,1,None,None,None,None,None,None,1,,['return'],[0.18360507757824962],3.89875222622,0.400350677746,2017_Feb_28_1246,60.0506619767,famFaceFilter,001,26,
7,./img/edges5_AngelaMerkel3_1.png,0,57,57,6,,,None,None,1,None,None,None,None,None,None,4,Angela Merkel,"['lshift', 'a', 'n', 'g', 'e', 'l', 'a', 'space', 'lshift', 'm', 'e', 'r', 'k', 'e', 'l', 'return']","[0.866725455123742, 1.0999194198229816, 1.2664586295213667, 1.482818009413677, 1.599592223243235, 1.7996273808366823, 1.8997309289297846, 2.1328212813787104, 2.299367548257578, 2.44964348404028, 2.599419322305039, 2.7324686789470434, 2.8658535724734975, 2.9492931912318454, 3.082438140600061, 3.399057288912445]",1.06660503395,0.916796155248,2017_Feb_28_1246,60.0506619767,famFaceFilter,001,26,
35,./img/edges5_WillSmith1_1.png,0,58,58,34,,,None,None,1,None,None,None,None,None,None,1,Will Smith,"['lshift', 'w', 'i', 'l', 'l', 'space', 'lshift', 's', 'm', 'i', 't', 'h', 'return']","[0.283415111092836, 0.45037550619235844, 0.5835082658832107, 0.8000180920462299, 0.9334190246208891, 1.0832057694369723, 1.1087633509032457, 1.2664406657859217, 1.3166111287882813, 1.46648095587625, 1.5997519721604476, 1.6832069884058, 1.9830569912282954]",1.3331929382,1.26649904792,2017_Feb_28_1246,60.0506619767,famFaceFilter,001,26,
24,./img/edges5_JasonSegel(Marshall)7_1.png,0,59,59,23,,,None,None,1,None,None,None,None,None,None,1,Marshall Erikson,"['lshift', 'm', 'a', 'r', 's', 'h', 'a', 'l', 'l', 'space', 'lshift', 'e', 'r', 'r', 'backspace', 'r', 'i', 'k', 's', 'o', 'backspace', 'backspace', 'backspace', 'backspace', 'backspace', 'i', 'k', 's', 'o', 'n', 'return']","[0.28339393954956904, 0.4336910468755377, 0.5003284797039669, 0.716810718702618, 0.8834391055079323, 1.000185411394341, 1.1166398066070542, 1.2998339637742902, 1.4332891083304276, 1.5665200269959314, 1.6163578401428822, 1.8164334161374427, 2.0161731344651344, 2.2163131874331157, 2.682708815573278, 3.515661809615267, 3.7155028947272513, 3.8823189383947465, 4.015391391265439, 4.115549472122439, 4.41529586269462, 4.5653350621287245, 4.69841585530412, 4.781969030522305, 4.915309656276804, 5.431547267715359, 5.581673078007952, 5.698111754953061, 5.781486255176787, 5.947906455139673, 6.314655648053304]",1.73293541524,0.0836327288962,2017_Feb_28_1246,60.0506619767,famFaceFilter,001,26,
44,./img/edges5_EmilyDeschanel5_1.png,0,60,60,43,,,None,None,1,None,None,None,None,None,None,3,,['return'],[0.2336982323686243],5.41481629516,1.86619199639,2017_Feb_28_1246,60.0506619767,famFaceFilter,001,26,
17,./img/edges5_NeilPatrickHarris(Barney)3_7.png,0,61,61,16,,,None,None,1,None,None,None,None,None,None,1,Neil Patrick Harris,"['lshift', 'n', 'e', 'i', 'l', 'space', 'lshift', 'p', 'a', 't', 'r', 'i', 'c', 'k', 'space', 'lshift', 'h', 'a', 'r', 'r', 'i', 's', 'return']","[0.41674322638937156, 0.5835194932187733, 0.7001362035971397, 0.8164805709384382, 1.0000526080784766, 1.149601012641142, 1.2664233436153154, 1.4497535119098757, 1.616245246026665, 2.132794335779181, 2.4158716645197273, 2.5828266063435876, 2.716010370208096, 2.832256578576562, 3.1491785441176035, 3.3488678998346586, 3.465770746830458, 3.5323725729722355, 3.7155571067105484, 3.8487944409953343, 4.048871941675316, 4.16533114860249, 4.481847967788781]",1.16653439798,0.816489232026,2017_Feb_28_1246,60.0506619767,famFaceFilter,001,26,
9,./img/edges5_RobertSeanLeonard(Wilson)8_1.png,0,62,62,8,,,None,None,2,None,None,None,None,None,None,2,,['return'],[0.25027715474971046],2.46619096989,2.13299225763,2017_Feb_28_1246,60.0506619767,famFaceFilter,001,26,
5,./img/edges5_AlysonHannigan(Lily)1_1.png,0,63,63,4,,,None,None,1,None,None,None,None,None,None,1,Lilly Auldrin,"['lshift', 'l', 'i', 'l', 'l', 'y', 'space', 'lshift', 'a', 'u', 'l', 'd', 'r', 'i', 'n', 'return']","[0.4668437591426482, 0.8500541478279047, 1.0666159405045619, 1.2831687513153156, 1.3998419191430003, 1.4832132115570857, 1.5663057453166402, 1.733266461196763, 1.8830631502241886, 1.9827824027270253, 2.2162949029188894, 2.3158088556083385, 2.481976280174422, 2.565303625595334, 2.699190862105752, 3.099133185689425]",0.93327852256,0.900056842385,2017_Feb_28_1246,60.0506619767,famFaceFilter,001,26,
63,./img/edges5_LisaEdelstein(DrLisaCuddy)2_2.png,0,64,64,62,,,None,None,2,None,None,None,None,None,None,1,,['return'],[0.4502484769327566],2.49943702942,0.850095849351,2017_Feb_28_1246,60.0506619767,famFaceFilter,001,26,
30,./img/edges5_MariskaHargitay(Liv)8_8.png,0,65,65,29,,,None,None,1,None,None,None,None,None,None,1,Olivia Benson,"['lshift', 'o', 'l', 'i', 'v', 'i', 'a', 'space', 'lshift', 'b', 'e', 'n', 's', 'o', 'n', 'return']","[0.4501862454253569, 0.8834913928058086, 1.0667522724124865, 1.2499615062843077, 1.4665765486024611, 1.6830943942877639, 1.7661708889991132, 2.2662870117073908, 2.6826363190775737, 2.8825117277519894, 2.9992256347613875, 3.115881480416647, 3.232574215882778, 3.349221400452734, 3.4824792647177674, 3.882192229915745]",1.18331380847,0.350256560612,2017_Feb_28_1246,60.0506619767,famFaceFilter,001,26,
33,./img/edges5_BarackObama2_1.png,0,66,66,32,,,None,None,1,None,None,None,None,None,None,4,Barak Obama,"['lshift', 'b', 'a', 'r', 'a', 'k', 'space', 'lshift', 'o', 'b', 'a', 'm', 'a', 'return']","[0.3002436010610836, 0.4003712077283126, 0.49986142262605426, 0.6501344713778963, 0.7666697033928358, 0.9666769530431338, 1.2832810246509325, 1.4997183543164283, 1.6497851409130817, 1.8329655044981337, 2.0661100689303566, 2.1826395268872147, 2.266080428767964, 2.5660802362999675]",1.68301484061,1.11677325149,2017_Feb_28_1246,60.0506619767,famFaceFilter,001,26,
43,./img/edges5_BarackObama1_3.png,0,67,67,42,,,None,None,1,None,None,None,None,None,None,4,Barak Obama,"['lshift', 'b', 'a', 'r', 'a', 'k', 'space', 'lshift', 'o', 'b', 'a', 'm', 'a', 'return']","[0.4834987066096801, 0.5834742631013796, 0.7169217089140147, 0.8834817693750665, 0.9999303905315173, 1.1999847949809919, 1.3499194198211626, 1.4664604258941836, 1.599830884277253, 1.749680822944356, 1.8830368461840408, 2.016325505421264, 2.116231452444481, 2.6494159220255824]",1.59977121902,0.616668356113,2017_Feb_28_1246,60.0506619767,famFaceFilter,001,26,
12,./img/edges5_UrsulavonderLeyen4_1.png,0,68,68,11,,,None,None,1,None,None,None,None,None,None,4,Ursula von der Leyen ,"['lshift', 'u', 'r', 's', 'u', 'l', 'a', 'space', 'v', 'o', 'n', 'space', 'd', 'e', 'r', 'space', 'lshift', 'l', 'e', 'y', 'e', 'n', 'space', 'return']","[0.4499424518962769, 0.6001997823823331, 0.7833891278351075, 0.9666301190227387, 1.1168030841163272, 1.283175487715198, 1.3831914626061916, 1.6163940883925534, 1.8997033417672355, 2.04968223438118, 2.1994712246651034, 2.3494157937147975, 2.465999784435553, 2.632587752839754, 2.749164686378208, 2.865792624090318, 3.0659329978388996, 3.1990548509784276, 3.382191267572125, 3.5990542735726194, 3.815645257316646, 4.015470624162845, 4.165349753897317, 4.481642667973574]",2.93261610988,1.19973554818,2017_Feb_28_1246,60.0506619767,famFaceFilter,001,26,
42,./img/edges5_JoachimLoew4_1.png,0,69,69,41,,,None,None,1,None,None,None,None,None,None,5,Jogi Löw,"['lshift', 'j', 'o', 'g', 'i', 'space', 'lshift', 'l', u'\xf6', 'w', 'return']","[0.46670293629904336, 1.249927824283077, 1.6163328192269546, 1.899688906623851, 2.032896729060667, 2.199624557963034, 2.366088384134855, 2.5160759378341027, 2.68265235812396, 2.849228778413817, 3.2325485534056497]",1.14970815348,0.700072047403,2017_Feb_28_1246,60.0506619767,famFaceFilter,001,26,
39,./img/edges5_AlysonHannigan(Lily)8_3.png,0,70,70,38,,,None,None,1,None,None,None,None,None,None,1,Lilly Auldrin,"['lshift', 'l', 'i', 'l', 'l', 'y', 'space', 'lshift', 'q', 'a', 'u', 'backspace', 'backspace', 'backspace', 'lshift', 'a', 'u', 'l', 'd', 'r', 'i', 'n', 'return']","[0.39990286752436077, 0.6001667419423029, 0.7998002817730594, 0.999948033484543, 1.1333993286698387, 1.2165999656117492, 1.3665265709278174, 1.5997782761987764, 1.7829753203950531, 1.866405315724478, 1.9329433064558543, 2.415852096881281, 2.549408608219892, 2.7160488639219693, 2.982481830966208, 3.1325412395999592, 3.2656146548142715, 3.498870209456072, 4.015553385650492, 4.182099010968159, 4.298785651595608, 4.431741981758023, 4.748384547081514]",1.33318556024,1.03305583642,2017_Feb_28_1246,60.0506619767,famFaceFilter,001,26,
59,./img/edges5_BastianSchweinsteiger3_1.png,0,71,71,58,,,None,None,1,None,None,None,None,None,None,5,Bastian Schweinsteiger,"['lshift', 'b', 'a', 's', 't', 'i', 'a', 'n', 'space', 'lshift', 's', 'c', 'h', 'w', 'i', 'n', 's', 't', 'e', 'i', 'g', 'e', 'r', 'space', 'backspace', 'backspace', 'backspace', 'backspace', 'backspace', 'backspace', 'backspace', 'backspace', 'backspace', 'backspace', 'e', 'i', 'n', 's', 't', 'e', 'i', 'g', 'e', 'r', 'return']","[0.6502425745620712, 0.883497166862071, 1.0166103589144768, 1.1999950599729345, 1.2499114644542715, 1.4498568033777701, 1.549779751790993, 1.6830895825733023, 1.8163814496219857, 2.0162911818588327, 2.199545966628648, 2.3829547262575943, 2.465827204277957, 2.5826825756903418, 2.6660096003324725, 2.8161100689285377, 2.915675025789824, 3.015847541790208, 3.1326041126685595, 3.2158294497439783, 3.36564538562925, 3.4656716255121864, 3.5991264492877235, 3.71534474971304, 4.148606591663338, 5.5983325164106645, 5.764827458337095, 5.897962463493968, 6.048050742414489, 6.197858658775658, 6.347795849864269, 6.4811756108938425, 6.631015926132022, 6.781215836826959, 7.314202063775156, 7.397302937839413, 7.564116736040887, 7.91394377094548, 8.080527569198239, 8.197051253098834, 8.346843130411798, 8.546917423282139, 8.596837356353717, 8.730330353064346, 10.72957587624478]",1.43326152117,2.06617935762,2017_Feb_28_1246,60.0506619767,famFaceFilter,001,26,
26,./img/gray_BarackObama1_3.png,0,0,0,25,,,None,None,1,None,None,None,None,None,None,4,Barak Obama,"['lshift', 'b', 'a', 'r', 'a', 'k', 'space', 'lshift', 'o', 'b', 'a', 'm', 'a', 'return']","[0.8000854560468724, 1.1000114839571324, 1.2500314365333907, 1.349914608106701, 1.4832545922999998, 1.6999174309803493, 2.066432774574423, 2.283072517026085, 2.416233826223106, 2.632893777874415, 2.749465899700226, 2.8661323311280285, 2.982835973145484, 3.4659356282427325]",1.39984801398,1.61648166159,2017_Feb_28_1246,60.0506619767,famFaceFilter,001,26,
11,./img/gray_EmilyDeschanel6_12.png,0,1,1,10,,,None,None,2,None,None,None,None,None,None,2,,['return'],[1.6497424770441285],2.98251294672,1.11643258211,2017_Feb_28_1246,60.0506619767,famFaceFilter,001,26,
48,./img/gray_LeonardoDiCaprio2_1.png,0,2,2,47,,,None,None,1,None,None,None,None,None,None,1,Leonardo de Caprio,"['lshift', 'l', 'e', 'o', 'n', 'a', 'r', 'd', 'i', 'o', 'backspace', 'backspace', 'o', 'space', 'd', 'i', 'e', 'space', 'backspace', 'backspace', 'backspace', 'e', 'space', 'lshift', 'c', 'a', 'p', 'r', 'i', 'o', 'return']","[0.7831264082287817, 1.1999126192658878, 1.383172857311365, 1.4996910879344796, 1.6830546174496703, 1.832753789065464, 1.9163473826847621, 2.0996355286733888, 2.249450822995641, 2.7659190759459307, 3.448655478681758, 3.6322977668514795, 3.932161563256159, 4.115482108121796, 4.215056367631405, 4.331971725083349, 4.715092615879257, 5.164848694037573, 5.298343615431804, 5.464545684340919, 5.631432941381718, 5.998012761949212, 6.214554024645622, 6.297979529043005, 6.447793540241037, 6.7307515384654835, 6.897568865257199, 7.014318699733849, 7.130889217653021, 7.514196161406289]",0.766671307298,0.383577682884,2017_Feb_28_1246,60.0506619767,famFaceFilter,001,26,
5,./img/gray_OmarEpps(DrEricForeman)2_2.png,0,3,3,4,,,None,None,2,None,None,None,None,None,None,4,,['return'],[0.20006755647045793],1.46652522365,1.46646395449,2017_Feb_28_1246,60.0506619767,famFaceFilter,001,26,
65,./img/gray_KatjaBurkard5_3.png,0,4,4,64,,,None,None,1,None,None,None,None,None,None,3,Katja Burkhard,"['lshift', 'k', 'a', 't', 'j', 'a', 'space', 'lshift', 'b', 'u', 'r', 'k', 'h', 'a', 'r', 'd', 'return']","[0.48349742348727887, 0.7001676401305303, 0.8500445243971626, 0.9999688842472096, 1.249798549557454, 1.366555761997006, 1.499410725375128, 1.6497030209866352, 1.8993841647115914, 2.099600563547938, 2.2991856654534786, 2.532695278618121, 2.7824607877355447, 2.915916894635302, 3.0490361815263896, 3.165648721751495, 3.8656139490958594]",1.13324439147,1.23315932035,2017_Feb_28_1246,60.0506619767,famFaceFilter,001,26,
67,./img/gray_AngelaMerkel4_1.png,0,5,5,66,,,None,None,1,None,None,None,None,None,None,4,Angela Merkel,"['lshift', 'a', 'n', 'g', 'e', 'l', 'a', 'space', 'lshift', 'm', 'e', 'r', 'k', 'e', 'l', 'return']","[0.4502609873889014, 0.5835855740951956, 0.7500856485166878, 0.9663876086160599, 1.0666948526195483, 1.199823762939559, 1.716350718805188, 2.0497111046661303, 2.232700603581179, 2.3495546918711625, 2.482821217223318, 2.6160912711657147, 2.7492872247057676, 2.832790999656936, 2.98230508065717, 3.3157767775119282]",0.999916917732,1.19980708233,2017_Feb_28_1246,60.0506619767,famFaceFilter,001,26,
56,./img/gray_GuentherJauch2_1.png,0,6,6,55,,,None,None,1,None,None,None,None,None,None,3,Günther Jauch,"['lshift', 'g', u'\xfc', 'n', 't', 'h', 'e', 'r', 'space', 'lshift', 'j', 'lshift', 'a', 'u', 'c', 'h', 'backspace', 'backspace', 'backspace', 'backspace', 'a', 'z', 'u', 'c', 'h', 'backspace', 'backspace', 'backspace', 'backspace', 'u', 'c', 'h', 'return']","[0.4499748507714685, 0.8498931157828338, 1.1666639934919658, 1.416536001888744, 1.649235322345703, 1.816493081394583, 1.8998117657320108, 2.0330648182825826, 2.116305552845006, 2.2829130888894724, 2.349763199494191, 2.4162171456137003, 2.4329288713124697, 2.549507408755744, 2.649454736521875, 2.732647353941502, 3.1492747784031963, 3.2657166631579457, 3.399046703139902, 3.5158385599243047, 3.732314704084274, 4.082373022063621, 4.232278455836422, 4.398717261094134, 4.682033250870518, 4.781926366655171, 4.915255123512907, 5.031885627471638, 5.531619379275071, 5.681654729336515, 5.781591792112522, 6.181348062738834]",1.84965445475,0.883216162742,2017_Feb_28_1246,60.0506619767,famFaceFilter,001,26,
24,./img/gray_JoachimLoew1_1.png,0,7,7,23,,,None,None,1,None,None,None,None,None,None,5,Jogi Löw,"['lshift', 'j', 'o', 'g', 'i', 'space', 'lshift', 'l', u'\xf6', 'w', 'return']","[0.4503116707819572, 0.8833852143070544, 1.6165503087195248, 1.9495940837732633, 2.2327965170879907, 2.482585763997122, 2.7493029429733724, 2.91594223633183, 3.1159850926669606, 3.28250890488016, 3.665724105278059]",1.48318305815,3.39899441585,2017_Feb_28_1246,60.0506619767,famFaceFilter,001,26,
36,./img/gray_TomCruise5_1.png,0,8,8,35,,,None,None,1,None,None,None,None,None,None,2,Tom Cruise,"['lshift', 't', 'o', 'm', 'space', 'lshift', 'c', 'r', 'u', 'i', 's', 'e', 'return']","[1.8661878262355458, 2.3327194655030326, 2.765919396726531, 2.949345799310322, 3.115620043934541, 3.2657894804378884, 3.4653822810869315, 3.732160729225143, 3.898945015578647, 4.03220287984368, 4.165458177862092, 4.315311324338836, 4.681617518746862]",1.16669992096,2.61623818885,2017_Feb_28_1246,60.0506619767,famFaceFilter,001,26,
32,./img/gray_MariskaHargitay(Liv)6_5.png,0,9,9,31,,,None,None,1,None,None,None,None,None,None,1,Olivia Benson,"['lshift', 'o', 'l', 'i', 'o', 'v', 'i', 'a', 'backspace', 'backspace', 'backspace', 'backspace', 'v', 'i', 's', 'a', 'space', 'backspace', 'backspace', 'backspace', 'backspace', 'backspace', 'v', 'i', 'a', 'space', 'lshift', 'b', 'e', 'n', 's', 'o', 'n', 'return']","[0.48344770243784296, 0.9000177071084181, 1.1000214281684748, 1.2665186155609263, 1.5331276913511829, 1.7163301888231217, 1.849712195322354, 2.399458906675136, 2.532835139116287, 2.7660027997753787, 2.999257071294778, 3.6655556952737243, 3.8321629105357715, 3.9489149904784426, 4.09899428753306, 4.548600560981868, 4.68182442246507, 4.815245885021795, 5.698131322591507, 5.847973241734508, 6.631042871733371, 6.764405310592338, 6.914286365012231, 7.1142047583362, 7.364128091687235, 7.464190259037423, 7.630683597057214, 7.747326611473909, 7.830596857886121, 7.980666852290597, 8.146876299162614, 8.497029247524551]",1.05013549788,0.366801159431,2017_Feb_28_1246,60.0506619767,famFaceFilter,001,26,
60,./img/gray_EmilyDeschanel3_1.png,0,10,10,59,,,None,None,1,None,None,None,None,None,None,2,Nelly Furtado,"['lshift', 'n', 'e', 'l', 'l', 'y', 'space', 'lshift', 'f', 'u', 'r', 't', 'a', 'd', 'o', 'return']","[0.3668492765737028, 0.48368091019619897, 0.6668696140877728, 0.8000816066760308, 0.933406193382325, 1.0335046089803654, 1.1332941125147045, 1.3328484194480552, 1.3999156987629249, 1.633097473784801, 1.849762878713591, 1.9996609345234901, 2.299402513383029, 3.2157938430573267, 3.34908538932541, 4.0821767041161365]",2.18295004286,1.04995072804,2017_Feb_28_1246,60.0506619767,famFaceFilter,001,26,
45,./img/gray_NicoleKidman7_1.png,0,11,11,44,,,None,None,1,None,None,None,None,None,None,1,Nicole Kidman,"['lshift', 'n', 'i', 'c', 'o', 'l', 'o', 'w', 'e', 'backspace', 'backspace', 'backspace', 'e', 'space', 'lshift', 'k', 'i', 'd', 'm', 'a', 'n', 'return']","[0.7668179041957046, 0.9334193454014894, 1.1832846173965663, 1.350008917710511, 1.5332085281534091, 1.7004877795279754, 1.8166005430175574, 2.2328600317177916, 2.449421182833248, 2.799370756067219, 3.3492153056140523, 3.982226489320965, 4.165364189038883, 4.298705456354583, 4.465198473595592, 4.565325759480402, 4.681936375020086, 4.815082607512522, 4.915151190481993, 5.331673398788553]",1.59969551471,0.200199718225,2017_Feb_28_1246,60.0506619767,famFaceFilter,001,26,
51,./img/gray_AlysonHannigan(Lily)1_1.png,0,12,12,50,,,None,None,1,None,None,None,None,None,None,1,Lilly Auldrin,"['lshift', 'l', 'i', 'l', 'l', 'y', 'space', 'lshift', 'a', 'u', 'l', 'd', 'r', 'i', 'n', 'return']","[0.3500085969280917, 0.4836571724044916, 0.6668442723912449, 0.8666224844346289, 1.0000811575828266, 1.099733366865621, 1.1833660957618122, 1.399821389160934, 1.5495770182242268, 1.6497768006065598, 1.8663511037429998, 1.9830582743506966, 2.1328883245987527, 2.232944076329659, 2.3661089141169214, 3.199233525972886]",0.917077159369,0.116876542957,2017_Feb_28_1246,60.0506619767,famFaceFilter,001,26,
52,./img/gray_EmilyDeschanel5_1.png,0,13,13,51,,,None,None,2,None,None,None,None,None,None,2,,['return'],[0.117376319692994],3.54871219276,0.833336968852,2017_Feb_28_1246,60.0506619767,famFaceFilter,001,26,
19,./img/gray_JasonSegel(Marshall)9_1.png,0,14,14,18,,,None,None,1,None,None,None,None,None,None,1,Marshall Erikson,"['lshift', 'm', 'a', 'r', 'c', 'h', 'a', 'l', 'l', 'backspace', 'backspace', 'backspace', 'backspace', 'backspace', 'backspace', 'r', 's', 'h', 'a', 'l', 'l', 'space', 'lshift', 'e', 'r', 'i', 'k', 's', 'o', 'n', 'return']","[0.4335065978229977, 0.6667573407521559, 0.783631317461186, 0.9831641320706694, 1.5665203477783507, 1.6997628145581984, 1.7996738940764772, 1.9829883441034326, 2.132872927113567, 2.5993259750466677, 2.7494322177008144, 2.91600254315199, 3.3988083628883032, 3.549073712898462, 3.6989919779098273, 4.6984982960111665, 4.9485403183171, 5.031796129585928, 5.165089600537613, 5.348272209590505, 5.481519167304214, 5.66489681118037, 6.098000828898876, 6.6644980804467195, 6.897771278043365, 7.097593757860523, 7.26410634273816, 8.113905790482022, 8.23040701971513, 8.363908677511063, 8.763583148991529]",0.799866041871,0.266968992029,2017_Feb_28_1246,60.0506619767,famFaceFilter,001,26,
62,./img/gray_LisaEdelstein(DrLisaCuddy)1_1.png,0,15,15,61,,,None,None,1,None,None,None,None,None,None,2,,['return'],[0.15049919932971534],1.84966215349,1.18336802045,2017_Feb_28_1246,60.0506619767,famFaceFilter,001,26,
40,./img/gray_BritneySpears1_1.png,0,16,16,39,,,None,None,1,None,None,None,None,None,None,2,Britney Spears,"['lshift', 'b', 'r', 'i', 't', 'n', 'e', 'y', 'space', 'lshift', 's', 'p', 'e', 'a', 'r', 's', 'return']","[0.4168590283152298, 0.683437950696316, 0.9166591817775043, 1.0499391799294244, 1.249288828610588, 1.449806761547734, 1.5497874505344953, 1.732896600748063, 1.8497352915510419, 2.049484954088257, 2.2160671484361956, 2.432590126618379, 2.566038534774634, 2.765971363241988, 2.865630308924665, 2.999152817483264, 3.665474858471498]",0.916675220826,0.73340824638,2017_Feb_28_1246,60.0506619767,famFaceFilter,001,26,
25,./img/gray_MariskaHargitay(Liv)8_8.png,0,17,17,24,,,None,None,1,None,None,None,None,None,None,1,Olivia Benson,"['lshift', 'o', 'l', 'i', 'o', 'v', 'i', 'backspace', 'backspace', 'backspace', 'v', 'i', 'a', 'space', 'lshift', 'b', 'e', 'n', 's', 'o', 'n', 'return']","[0.6667198093782645, 0.8167660659928515, 0.9999996792193997, 1.1668352905253414, 1.399855391942765, 1.533074762493925, 1.9996192329999758, 2.1496343738617725, 2.449395520357939, 3.21574315966609, 3.3989963405310846, 3.5155447245651885, 3.8155102085329418, 3.9653845265529526, 4.098631163486061, 4.24858888455492, 4.3649483286026225, 4.465334163942316, 4.598697565144903, 4.7483999445685185, 5.181664352767257]",1.03323066204,0.633407027413,2017_Feb_28_1246,60.0506619767,famFaceFilter,001,26,
21,./img/gray_HughLaurie(DrHouse)4_1.png,0,18,18,20,,,None,None,1,None,None,None,None,None,None,1,Dr House,"['lshift', 'd', 'r', 'space', 'lshift', 'h', 'o', 'u', 's', 'e', 'return']","[0.3168847549477505, 0.5668263728130114, 0.7001124658036133, 0.8833842519634345, 1.0163745849094994, 1.1332379758459865, 1.4664601051135833, 1.6330676411562308, 2.1828101823575707, 2.3160343646231922, 2.5826835380339617]",1.01664404092,0.166966169158,2017_Feb_28_1246,60.0506619767,famFaceFilter,001,26,
54,./img/gray_LeonardoDiCaprio3_1.png,0,19,19,53,,,None,None,1,None,None,None,None,None,None,1,Leonardo de Caprio,"['lshift', 'l', 'e', 'o', 'n', 'a', 'r', 'd', 'o', 'space', 'd', 'e', 'space', 'lshift', 'c', 'p', 'r', 'i', 'o', 'backspace', 'backspace', 'backspace', 'backspace', 'a', 'p', 'r', 'i', 'o', 'return']","[0.2834154318734363, 0.41699920959581505, 0.5835082658832107, 0.7333508265892306, 0.9001729650935886, 1.016664570897774, 1.2665747522296442, 1.4332653705405392, 1.5330734793697047, 1.6998151018542558, 1.799755372439904, 1.9330116328001168, 2.066329803887129, 2.2162147076796828, 2.2992674645993247, 2.699354139615025, 2.932641772353236, 3.515653469310564, 3.665671176418982, 4.065553513963096, 4.2152879714831215, 4.331976536797811, 4.465151960355797, 4.698523637707694, 5.065133932466779, 5.281696687487056, 5.39833841878135, 5.514649104123237, 5.831499535508556]",1.13315136499,0.133618422065,2017_Feb_28_1246,60.0506619767,famFaceFilter,001,26,
66,./img/gray_NeilPatrickHarris(Barney)3_7.png,0,20,20,65,,,None,None,1,None,None,None,None,None,None,1,Neil Patrick Harris,"['lshift', 'n', 'e', 'i', 'l', 'space', 'lshift', 'p', 'a', 't', 'r', 'i', 'c', 'k', 'space', 'lshift', 'h', 'a', 'r', 'r', 'i', 's', 'delete', 'return']","[0.38342467036454764, 0.48353463407875097, 0.6333874597730755, 0.7168687800567568, 0.9000013472796127, 1.0500347726556356, 1.1665616643640533, 1.2665705820763833, 1.3831998029108945, 1.566401979602233, 1.7660910145405069, 1.9496771660415106, 2.0494185524294153, 2.149352086615181, 2.299333224695147, 2.3992410964037845, 2.4994501814326213, 2.565418144396972, 2.7160225598818215, 2.8325606789258018, 3.049071788211222, 3.1492070936219534, 3.882162397285356, 5.28161488834121]",1.04993725524,0.78339426033,2017_Feb_28_1246,60.0506619767,famFaceFilter,001,26,
64,./img/gray_LisaEdelstein(DrLisaCuddy)2_2.png,0,21,21,63,,,None,None,2,None,None,None,None,None,None,4,,['return'],[0.9833091250638972],2.58269733162,0.783500438827,2017_Feb_28_1246,60.0506619767,famFaceFilter,001,26,
