num,pic,trials.thisRepN,trials.thisTrialN,trials.thisN,trials.thisIndex,key_resp_2.keys,key_resp_2.rt,ratingBekannt.response,ratingBekannt.rt,key_resp_5.keys,key_resp_5.rt,ratingK1.response,ratingK1.rt,ratingK2.response,ratingK2.rt,ratingK3.response,ratingK3.rt,key_resp_6.keys,key_resp_6.rt,inputText,key_resp_4.keys,key_resp_4.rt,date,frameRate,expName,session,participant,
,,,,,,space,37.9829997296,,,,,,,,,,,,,,,,2017_Mrz_01_1642,60.0351457636,famFaceFilter,001,27,
62,./img/smoo15_RobertSeanLeonard(Wilson)1_1.png,0,0,0,61,,,None,None,2,4.44822146255,None,None,None,None,None,None,3,2.79910605594,,['return'],[1.3666001480069099],2017_Mrz_01_1642,60.0351457636,famFaceFilter,001,27,
45,./img/smoo15_RobertSeanLeonard(Wilson)2_6.png,0,1,1,44,,,None,None,2,2.03294999296,None,None,None,None,None,None,3,1.00007538282,,['return'],[0.683663515450462],2017_Mrz_01_1642,60.0351457636,famFaceFilter,001,27,
23,./img/smoo15_JoachimLoew4_1.png,0,2,2,22,,,None,None,1,1.2833091841,None,None,None,None,None,None,5,1.31649077876,Joachim Löw,"['lshift', 'j', 'o', 'a', 'c', 'h', 'i', 'm', 'space', 'lshift', 'l', u'\xf6', 'w', 'return']","[0.5002057790716208, 0.6001508939607447, 0.7334216328181355, 1.0000105856743176, 1.1834137897967594, 1.299921633941267, 1.3831240631279798, 1.5498897967263474, 1.6498041169288626, 1.7328689323639992, 1.8664848283242463, 2.049775439378209, 2.1496259247633134, 2.9322545783852547]",2017_Mrz_01_1642,60.0351457636,famFaceFilter,001,27,
14,./img/smoo15_BritneySpears7_1.png,0,3,3,13,,,None,None,1,1.41626684365,None,None,None,None,None,None,2,2.28272761363,Britney Spears,"['lshift', 'b', 'r', 'i', 't', 'n', 'e', 'y', 'space', 'lshift', 'lshift', 's', 'p', 'e', 'a', 'r', 's', 'return']","[0.3835208654836606, 0.4502115691138897, 0.6334810088210361, 0.766765861908425, 0.9001013979177515, 1.0676475843320077, 1.233401584193416, 1.4164532156537462, 1.5831066769605968, 1.699673223474747, 2.3160253299120086, 2.5161057810273633, 2.7991990815480676, 2.982504448387772, 3.1990889263906865, 3.3489740397581045, 3.6489136372656503, 4.248697561220979]",2017_Mrz_01_1642,60.0351457636,famFaceFilter,001,27,
19,./img/smoo15_NicoleKidman7_1.png,0,4,4,18,,,None,None,1,2.36584471587,None,None,None,None,None,None,1,0.766551903,Kim Basinger,"['lshift', 'k', 'i', 'm', 'space', 'lshift', 'b', 'a', 's', 'i', 'n', 'g', 'e', 'r', 'return']","[0.5667617559520295, 0.6834117047401378, 0.8000776924254751, 0.9833019024372334, 1.0666887789611792, 1.1664109531557187, 1.2166717296131537, 1.4331602950005617, 1.7663350570874172, 1.9993462544844078, 2.116243843869597, 2.4160326757282746, 2.5994169539499126, 2.699346671495732, 2.9825702078742324]",2017_Mrz_01_1642,60.0351457636,famFaceFilter,001,27,
2,./img/smoo15_WillSmith5_1.png,0,5,5,1,,,None,None,1,1.28325144406,None,None,None,None,None,None,1,0.983102057759,Will Smith,"['lshift', 'w', 'i', 'l', 'l', 'space', 'lshift', 's', 'm', 'i', 't', 'h', 'return']","[0.5502676731812244, 0.6169099393373472, 0.7834912255984818, 1.0000288700175588, 1.1165498660575395, 1.2665745178455836, 1.3165408201184619, 1.3999148655238969, 1.5330771814260515, 1.6665278767286509, 1.766483256511492, 1.8661008570852573, 2.249515545059694]",2017_Mrz_01_1642,60.0351457636,famFaceFilter,001,27,
69,./img/smoo15_BritneySpears5_1.png,0,6,6,68,,,None,None,1,1.83279800835,None,None,None,None,None,None,2,2.18275427028,Britney Spears,"['lshift', 'b', 'r', 'i', 't', 'n', 'e', 'y', 'space', 'lshift', 's', 'p', 'e', 'a', 'r', 's', 'return']","[0.5168843091778399, 0.6509329346281447, 0.8335393262568687, 0.9500802105321782, 1.1330853291874519, 1.2833303554452868, 1.4331612573350867, 1.583199061018604, 1.6997036973825743, 1.7830960271330696, 1.8996952930010593, 2.366147209504561, 2.53287316663409, 2.716042844389449, 2.782657202860719, 2.94933440173736, 3.1658101360062574]",2017_Mrz_01_1642,60.0351457636,famFaceFilter,001,27,
9,./img/smoo15_EmilyDeschanel6_12.png,0,7,7,8,,,None,None,2,3.44900640626,None,None,None,None,None,None,1,0.766722556882,,['return'],[0.5835227259976818],2017_Mrz_01_1642,60.0351457636,famFaceFilter,001,27,
5,./img/smoo15_BarackObama1_3.png,0,8,8,4,,,None,None,1,1.48356445921,None,None,None,None,None,None,4,2.23275585813,Barrack Obama,"['lshift', 'b', 'a', 'r', 'r', 'a', 'c', 'k', 'space', 'lshift', 'o', 'b', 'a', 'm', 'a', 'return']","[0.5499558769897703, 0.6336215095743682, 0.8167376174096717, 1.0001478786471125, 1.1500471062463475, 1.266679091468177, 1.4333848395835957, 1.5328933756463812, 1.6666048634433537, 1.9498226258183422, 2.116321792918825, 2.2995732690578734, 2.466178613669399, 2.582828241678726, 2.682856438063027, 2.9492493955749524]",2017_Mrz_01_1642,60.0351457636,famFaceFilter,001,27,
34,./img/smoo15_EmilyDeschanel5_1.png,0,9,9,33,,,None,None,2,2.58303161491,None,None,None,None,None,None,1,0.600240391015,,['return'],[0.4668317176292476],2017_Mrz_01_1642,60.0351457636,famFaceFilter,001,27,
24,./img/smoo15_BastianSchweinsteiger1_1.png,0,10,10,23,,,None,None,1,1.01671734424,None,None,None,None,None,None,5,1.23305418165,Bastian Schweinsteiger,"['lshift', 'b', 'a', 's', 't', 'i', 'a', 'n', 'space', 'lshift', 's', 'c', 'h', 'w', 'e', 'i', 'n', 's', 't', 'e', 'i', 'g', 'e', 'r', 'return']","[0.38343168920800963, 0.46690998745543766, 0.6335535046437144, 0.8166773111497605, 0.8834100366948405, 1.00011836707381, 1.1163464928231406, 1.1999322516912798, 1.2999469754013262, 1.3998173490199406, 1.4831304466097208, 1.6497977013696072, 1.749579219489533, 1.8662663785235054, 2.266068650978923, 2.49932299808097, 2.616075595820803, 2.7824063544831006, 2.915924092383648, 3.0658509068871354, 3.232348149320387, 3.3656464750838495, 3.515604405050908, 3.582288693121882, 3.682239261235736]",2017_Mrz_01_1642,60.0351457636,famFaceFilter,001,27,
56,./img/smoo15_MariskaHargitay(Liv)6_5.png,0,11,11,55,,,None,None,2,2.93247976452,None,None,None,None,None,None,2,0.766644287058,,['return'],[0.4668958732236206],2017_Mrz_01_1642,60.0351457636,famFaceFilter,001,27,
37,./img/smoo15_Ice-T(OdafinFinTutuola)5_1.png,0,12,12,36,,,None,None,2,1.93328459647,None,None,None,None,None,None,2,0.616616427489,,['return'],[0.40031070554687176],2017_Mrz_01_1642,60.0351457636,famFaceFilter,001,27,
11,./img/smoo15_LeonardoDiCaprio3_1.png,0,13,13,10,,,None,None,1,2.31639197914,None,None,None,None,None,None,1,0.433473695084,Leonardo Di Caprio,"['lshift', 'l', 'e', 'o', 'n', 'a', 'r', 'd', 'o', 'space', 'lshift', 'd', 'i', 'space', 'lshift', 'c', 'a', 'p', 'r', 'i', 'a', 'backspace', 'o', 'return']","[0.5002173270786443, 0.6498843114222836, 0.7668636991911626, 0.9333096171485522, 1.3331635348567943, 2.0993253718370397, 2.282638758126268, 2.449414115064428, 2.566004399148369, 2.71594468632793, 2.7992362917939317, 2.882531425815614, 2.9992737586617295, 3.132251627226651, 3.2158954469086893, 3.282428327775051, 3.4322839295691665, 3.665658889191036, 4.082056610255677, 4.431878466206399, 4.598438260343755, 5.164946280916411, 5.3980068781202135, 5.748009011294926]",2017_Mrz_01_1642,60.0351457636,famFaceFilter,001,27,
71,./img/smoo15_AngelaMerkel1_1.png,0,14,14,70,,,None,None,1,1.28320845981,None,None,None,None,None,None,4,1.16644046473,Angela Merkel,"['lshift', 'a', 'g', 'backspace', 'n', 'g', 'e', 'l', 'a', 'space', 'lshift', 'm', 'comma', 'e', 'r', 'k', 'e', 'l', 'return']","[0.3666995891799161, 0.4334085771552054, 0.7168297127664118, 1.1665517746896512, 1.449714684029459, 1.5829629684285464, 1.733019056458943, 1.8828650349132658, 2.0163102769893158, 2.13288484295299, 2.2161081227077375, 2.332885420353705, 2.4494256630732707, 2.515988376289897, 2.682503582289428, 2.799030993890483, 2.965824314393103, 3.282382135746957]",2017_Mrz_01_1642,60.0351457636,famFaceFilter,001,27,
3,./img/smoo15_JoshRadnor(Ted)3_1.png,0,15,15,2,,,None,None,2,2.08300194295,None,None,None,None,None,None,3,3.28186151309,,['return'],[0.26692320350775844],2017_Mrz_01_1642,60.0351457636,famFaceFilter,001,27,
31,./img/smoo15_BritneySpears1_1.png,0,16,16,30,,,None,None,1,1.3333653042,None,None,None,None,None,None,2,0.583552879127,Britney Spears,"['lshift', 'b', 'r', 'i', 't', 'n', 'e', 'y', 'space', 'lshift', 's', 'p', 'e', 'a', 'r', 's', 'return']","[0.7333635720042366, 0.8002339113008929, 0.9666252970000642, 1.0999265097652824, 1.5332478353102488, 1.716314543335102, 1.817212048035799, 1.982990747801523, 2.082932975687072, 2.182715776920304, 2.2326875324197317, 2.4328164210091927, 2.5657625325547997, 2.7159911991348054, 2.8160710407737497, 2.965626715160397, 3.115762676905433]",2017_Mrz_01_1642,60.0351457636,famFaceFilter,001,27,
15,./img/smoo15_LisaEdelstein(DrLisaCuddy)1_1.png,0,17,17,14,,,None,None,2,2.79929371105,None,None,None,None,None,None,1,0.333450310369,,['return'],[0.43357762714731507],2017_Mrz_01_1642,60.0351457636,famFaceFilter,001,27,
44,./img/smoo15_GuentherJauch2_1.png,0,18,18,43,,,None,None,1,0.983345528242,None,None,None,None,None,None,3,1.19987932333,Günther Jauch,"['lshift', 'g', u'\xfc', 'n', 't', 'h', 'e', 'r', 'space', 'lshift', 'j', 'a', 'u', 'c', 'h', 'return']","[0.21697486480115913, 0.33349650239688344, 0.600071982578811, 0.7500558955634915, 0.833194810711575, 0.9833513022458646, 1.0999204149848083, 1.1665527370223572, 1.2499210084242804, 1.3331144558269443, 1.4665619433508255, 1.5830319356937252, 1.6664274732229387, 1.79970558997411, 1.9163446323109383, 2.1495017836859915]",2017_Mrz_01_1642,60.0351457636,famFaceFilter,001,27,
28,./img/smoo15_HughLaurie(DrHouse)5_3.png,0,19,19,27,,,None,None,2,2.39927812124,None,None,None,None,None,None,1,0.333643418711,,['return'],[0.7667847878092289],2017_Mrz_01_1642,60.0351457636,famFaceFilter,001,27,
47,./img/smoo15_BarackObama4_1.png,0,20,20,46,,,None,None,1,1.23328289634,None,None,None,None,None,None,4,1.1165142597,Barrack Obama,"['lshift', 'b', 'a', 'r', 'r', 'a', 'c', 'k', 'space', 'lshift', 'o', 'b', 'a', 'm', 'a', 'return']","[0.3666931736206607, 0.4340934381343686, 0.6002118417763995, 0.7834421465704509, 0.9329708756049513, 1.0331726128752052, 1.2165803078896715, 1.2999530701818003, 1.4160785469794064, 1.6996729026977846, 1.8495650731820206, 1.9995422498286644, 2.1492060263917665, 2.2660513289683877, 2.3659781595106324, 2.5826441151202744]",2017_Mrz_01_1642,60.0351457636,famFaceFilter,001,27,
21,./img/smoo15_NeilPatrickHarris(Barney)3_7.png,0,21,21,20,,,None,None,2,2.18278281952,None,None,None,None,None,None,3,2.48291327992,,['return'],[0.45030523628338415],2017_Mrz_01_1642,60.0351457636,famFaceFilter,001,27,
53,./img/smoo15_GuentherJauch4_1.png,0,22,22,52,,,None,None,1,1.19991332579,None,None,None,None,None,None,3,2.18283318166,Günther Jauch,"['lshift', 'g', u'\xfc', 'n', 't', 'h', 'e', 'r', 'space', 'lshift', 'j', 'a', 'u', 'c', 'h', 'return']","[0.21691102998192946, 0.3169857391731057, 0.5502365577176533, 0.7167572169419145, 0.8168075470075564, 0.9499162929860177, 1.066621415586269, 1.1499450988485478, 1.2500072976981755, 1.349883766099083, 1.4831442400627566, 1.6497033926443692, 1.733083212051497, 1.8495506381714222, 1.96628238534322, 2.1829579642908357]",2017_Mrz_01_1642,60.0351457636,famFaceFilter,001,27,
46,./img/smoo15_NeilPatrickHarris(Barney)1_1.png,0,23,23,45,,,None,None,2,2.34910363406,None,None,None,None,None,None,3,1.96613129892,,['return'],[0.5002035336256085],2017_Mrz_01_1642,60.0351457636,famFaceFilter,001,27,
72,./img/smoo15_HughLaurie(DrHouse)2_1.png,0,24,24,71,,,None,None,2,1.69986152015,None,None,None,None,None,None,1,1.99956053417,,['return'],[0.6503536096024618],2017_Mrz_01_1642,60.0351457636,famFaceFilter,001,27,
65,./img/smoo15_UrsulavonderLeyen4_1.png,0,25,25,64,,,None,None,1,2.81581088984,None,None,None,None,None,None,3,1.11651265581,Tagesthemen,"['lshift', 't', 'a', 'g', 'e', 's', 't', 'h', 'e', 'm', 'e', 'n', 'return']","[0.3168641643205774, 0.40035529368651623, 0.6501630674829357, 0.80012773378985, 0.9666756591414014, 1.0500230799752899, 1.266532816709514, 1.3831667265985743, 1.516246923338258, 1.6331419464986539, 1.766469142281494, 1.8329904751390131, 2.1659493536481023]",2017_Mrz_01_1642,60.0351457636,famFaceFilter,001,27,
55,./img/smoo15_MariskaHargitay(Liv)4_4.png,0,26,26,54,,,None,None,2,1.63281507374,None,None,None,None,None,None,1,0.41715122853,,['return'],[0.4000835947408632],2017_Mrz_01_1642,60.0351457636,famFaceFilter,001,27,
68,./img/smoo15_AlysonHannigan(Lily)8_3.png,0,27,27,67,,,None,None,2,1.18325436314,None,None,None,None,None,None,1,0.416770144295,,['return'],[0.4334063317091932],2017_Mrz_01_1642,60.0351457636,famFaceFilter,001,27,
29,./img/smoo15_GuentherJauch3_1.png,0,28,28,28,,,None,None,1,1.31650842155,None,None,None,None,None,None,3,1.00023545103,Günther Jauch,"['lshift', 'g', u'\xfc', 'n', 't', 'h', 'e', 'r', 'space', 'lshift', 'j', 'a', 'u', 'c', 'h', 'return']","[0.25020168915216345, 0.35039925630917423, 0.5835175935499137, 0.7667450113403902, 0.9166654102864413, 1.03342089502803, 1.1664170479380118, 1.249996712025677, 1.3327609584976017, 1.4160076550451777, 1.516491356156621, 1.6664258693326701, 1.7332121647996246, 1.8662583590739814, 1.9664074887550669, 2.2320716387039283]",2017_Mrz_01_1642,60.0351457636,famFaceFilter,001,27,
35,./img/smoo15_KatjaBurkard1_1.png,0,29,29,34,,,None,None,1,1.71696604341,None,None,None,None,None,None,3,1.20001822019,Katja Burkhard,"['lshift', 'k', 'a', 't', 'j', 'a', 'space', 'lshift', 'b', 'u', 'r', 'h', 'backspace', 'k', 'h', 'a', 'r', 'd', 'return']","[0.2835779960423679, 0.40024013439324335, 0.5002452347616781, 0.7001255204213521, 0.8166388177924091, 0.9667106239412533, 1.099918169536977, 1.199943478919522, 1.2997471307207888, 1.3997807803298201, 1.5330961073268554, 1.849489369576986, 2.3660974889171484, 2.599125687547712, 2.799198439992324, 2.9325949238154863, 3.065714255468265, 3.215790873287915, 3.3157574803008174]",2017_Mrz_01_1642,60.0351457636,famFaceFilter,001,27,
36,./img/smoo15_BastianSchweinsteiger6_2.png,0,30,30,35,,,None,None,1,2.13274113442,None,None,None,None,None,None,5,1.31660273027,Bastian Schweinsteiger,"['lshift', 'b', 'a', 'i', 's', 't', 'backspace', 'backspace', 'backspace', 's', 't', 'i', 'a', 'n', 'lshift', 'space', 'lshift', 's', 'c', 'h', 'w', 'e', 'i', 'n', 's', 't', 'e', 'i', 'g', 'e', 'r', 'return']","[0.45025359102874063, 0.5334868149020622, 0.7002121304758475, 0.9001459860573959, 1.0332483164766018, 1.216723054089016, 1.5330643503075407, 1.683172404369543, 1.8164088199828257, 1.883084767825494, 1.9997440191746136, 2.0663509997521032, 2.232801087822736, 2.3161818695643888, 2.549302131474178, 2.932539750005162, 3.0657389553743997, 3.1659625055453944, 3.315770952976891, 3.3990734648923535, 3.5323855841088516, 3.6491125196116627, 3.765517714802627, 3.8322898960395833, 4.99847855005828, 5.214917074081313, 5.364943329759626, 5.498244863301807, 5.664802091216188, 5.848073455590566, 5.914760309884514, 6.1479620493992115]",2017_Mrz_01_1642,60.0351457636,famFaceFilter,001,27,
41,./img/smoo15_AngelaMerkel3_1.png,0,31,31,40,,,None,None,1,1.68302965817,None,None,None,None,None,None,4,1.36661394146,Angela Merkel,"['lshift', 'a', 'n', 'g', 'e', 'l', 'a', 'space', 'lshift', 'm', 'e', 'r', 'k', 'e', 'l', 'return']","[0.36683559904304275, 0.5002381776484981, 0.7002320187111764, 0.7833362898381893, 0.9331261321458442, 1.0166278471861006, 1.1667214662393235, 1.3997948945634562, 1.5164996963849262, 1.6165285343249707, 1.7330325291331974, 1.7994688558283087, 1.8997321824681421, 2.016132886768901, 2.1329656790021545, 2.4329046349539567]",2017_Mrz_01_1642,60.0351457636,famFaceFilter,001,27,
33,./img/smoo15_Ice-T(OdafinFinTutuola)7_1.png,0,32,32,32,,,None,None,2,2.5159271077,None,None,None,None,None,None,2,0.699881729161,,['return'],[0.45018462376356183],2017_Mrz_01_1642,60.0351457636,famFaceFilter,001,27,
22,./img/smoo15_WillSmith1_1.png,0,33,33,21,,,None,None,1,1.93292853291,None,None,None,None,None,None,1,1.94933408096,Will Smith,"['lshift', 'w', 'i', 'l', 'l', 'space', 'lshift', 's', 'm', 'i', 't', 'h', 'return']","[0.5669288812787272, 0.6501348390229396, 0.8334161475140718, 1.0501177094793093, 1.1831918114367, 1.3177681166580442, 1.3998054802359547, 1.4665135058767191, 1.7664383475967043, 1.9163151207376359, 2.0329082918233325, 2.099482232268201, 2.3827509983420896]",2017_Mrz_01_1642,60.0351457636,famFaceFilter,001,27,
60,./img/smoo15_LeonardoDiCaprio2_1.png,0,34,34,59,,,None,None,1,1.81626928156,None,None,None,None,None,None,1,0.683317716792,Leonardo Di Caprio,"['lshift', 'l', 'e', 'o', 'n', 'a', 'r', 'd', 'o', 'space', 'lshift', 'd', 'i', 'space', 'lshift', 'c', 'a', 'p', 'r', 'i', 'o', 'return']","[0.300256526148587, 0.9003323580618598, 1.0833637805098988, 1.2167448669915757, 1.516513489837962, 1.699952941871743, 1.833095690315531, 1.9996176326530986, 2.0830539089856757, 2.2162332261195843, 2.316051633706593, 2.366252424681079, 2.516169615846593, 2.6492196594554116, 2.7493222763314407, 2.79937967954902, 3.0326163838635694, 3.149125190342602, 3.3492248881375417, 3.4654000855207414, 3.9822244092156325, 4.332064870288377]",2017_Mrz_01_1642,60.0351457636,famFaceFilter,001,27,
30,./img/smoo15_KatjaBurkard4_1.png,0,35,35,29,,,None,None,1,1.04990888302,None,None,None,None,None,None,3,0.99998877277,Katja Burkhard,"['lshift', 'k', 'a', 't', 'j', 'a', 'space', 'lshift', 'b', 'u', 'r', 'h', 'backspace', 'k', 'h', 'a', 'r', 'd', 'return']","[0.2333640531724086, 0.3337011587464076, 0.4501990587741602, 0.5832526309422974, 0.6667113617313589, 0.8167559017547319, 0.933315391152064, 1.0499364699226135, 1.0999316422130505, 1.249954690110826, 1.3498273091772717, 1.5663941443908698, 1.9995698367347359, 2.232774142472408, 2.482808064743949, 2.615617524870686, 2.7159292889864446, 2.882562541281004, 3.0158791513895267]",2017_Mrz_01_1642,60.0351457636,famFaceFilter,001,27,
6,./img/smoo15_AlysonHannigan(Lily)1_1.png,0,36,36,5,,,None,None,2,1.31655814213,None,None,None,None,None,None,1,0.350182410395,,['return'],[0.36715958479908295],2017_Mrz_01_1642,60.0351457636,famFaceFilter,001,27,
52,./img/smoo15_BastianSchweinsteiger3_1.png,0,37,37,51,,,None,None,1,1.31641411282,None,None,None,None,None,None,5,0.683283072771,Bastian Schweinsteiger,"['lshift', 'b', 'a', 'i', 's', 't', 'backspace', 'backspace', 'backspace', 's', 't', 'i', 'a', 'n', 'space', 'lshift', 's', 'c', 'h', 'w', 'e', 'i', 'n', 's', 't', 'e', 'i', 'g', 'e', 'r', 'return']","[0.45003899056246155, 0.61673030367092, 0.8334597733191913, 0.9665422155030683, 1.1000647650726023, 1.2499742575673736, 1.616518910983359, 1.782992095068039, 1.8662817758649908, 2.0162018540322606, 2.1163105656887637, 2.1827956506349437, 2.3662049495396786, 2.466102268508621, 2.5824708950112836, 2.682511601737133, 2.732596912639565, 2.9156642622219806, 2.998990511707234, 3.099104997367249, 3.232302919624999, 3.7985421282519383, 3.9487374339223607, 4.131977041277423, 4.248529152782794, 4.398521726772742, 4.598470979697595, 4.731821592271444, 4.898429823882907, 4.981700258002093, 5.081661732565408]",2017_Mrz_01_1642,60.0351457636,famFaceFilter,001,27,
16,./img/smoo15_WillSmith4_1.png,0,38,38,15,,,None,None,1,1.11672565239,None,None,None,None,None,None,1,1.04985787932,Will Smith,"['lshift', 'w', 'i', 'l', 'l', 'space', 'lshift', 's', 'm', 'i', 't', 'h', 'return']","[0.3503283643749455, 0.4169529877417517, 0.6335705058754684, 0.8498627551416575, 0.9332310265435808, 1.083423124435285, 1.1664186518282804, 1.2165960260099382, 1.3663339022859873, 1.5164239927817107, 1.5830004994513729, 1.7161163025466522, 2.0162169305967836]",2017_Mrz_01_1642,60.0351457636,famFaceFilter,001,27,
32,./img/smoo15_TomCruise1_1.png,0,39,39,31,,,None,None,1,3.09920155154,None,None,None,None,None,None,1,0.66678289522,Scientology,"['lshift', 's', 'c', 'i', 'e', 'n', 't', 'o', 'l', 'o', 'g', 'y', 'return']","[0.33370372497120115, 0.35035306428108015, 0.5502381616097409, 0.8168386624711275, 1.0334196119165426, 1.2332277225323196, 1.4829549810565368, 1.6331316816049366, 1.8163488345016958, 1.9830080698120582, 2.099623374579096, 2.2994228241877863, 2.4660637751530885]",2017_Mrz_01_1642,60.0351457636,famFaceFilter,001,27,
12,./img/smoo15_MariskaHargitay(Liv)8_8.png,0,40,40,11,,,None,None,2,1.9664126212,None,None,None,None,None,None,1,1.13327073886,,['return'],[0.7501742626373016],2017_Mrz_01_1642,60.0351457636,famFaceFilter,001,27,
26,./img/smoo15_TomCruise4_1.png,0,41,41,25,,,None,None,1,2.41607116909,None,None,None,None,None,None,1,0.633547409861,Scientology,"['lshift', 's', 'c', 'i', 'e', 'n', 't', 'o', 'l', 'o', 'g', 'y', 'return']","[0.3170694622258452, 0.40030493154336, 0.6332516525671963, 1.5831551144365221, 1.7165397294756986, 1.8331444485684187, 1.9997998345425003, 2.133105538199743, 2.516295040035402, 2.8158375144066667, 2.9494081806715258, 3.1156619526209397, 3.282424157661808]",2017_Mrz_01_1642,60.0351457636,famFaceFilter,001,27,
1,./img/smoo15_Ice-T(OdafinFinTutuola)6_1.png,0,42,42,0,,,None,None,2,2.03292240605,None,None,None,None,None,None,2,0.750020930764,,['return'],[0.5001499637037341],2017_Mrz_01_1642,60.0351457636,famFaceFilter,001,27,
18,./img/smoo15_HughLaurie(DrHouse)4_1.png,0,43,43,17,,,None,None,2,1.94974211055,None,None,None,None,None,None,3,1.56675117028,,['return'],[0.43362831006743363],2017_Mrz_01_1642,60.0351457636,famFaceFilter,001,27,
25,./img/smoo15_JasonSegel(Marshall)6_1.png,0,44,44,24,,,None,None,2,1.56617376992,None,None,None,None,None,None,4,1.54954945129,,['return'],[0.3668301458146743],2017_Mrz_01_1642,60.0351457636,famFaceFilter,001,27,
43,./img/smoo15_JoachimLoew1_1.png,0,45,45,42,,,None,None,1,0.999933278181,None,None,None,None,None,None,5,1.26656393217,Joachim Löw,"['lshift', 'j', 'o', 'a', 'c', 'h', 'i', 'm', 'space', 'lshift', 'l', u'\xf6', 'w', 'return']","[0.8997944133952842, 1.1332813245298894, 1.2994273150779918, 1.4165760736195807, 1.5998358899869345, 1.6994473957802256, 1.7996096773586032, 1.9330805816734937, 2.049531006559846, 2.1329727361171535, 2.2828196769060014, 2.4327538693032693, 2.54935698450754, 2.7326899382533156]",2017_Mrz_01_1642,60.0351457636,famFaceFilter,001,27,
64,./img/smoo15_JoachimLoew8_1.png,0,46,46,63,,,None,None,1,1.08328551068,None,None,None,None,None,None,5,1.44973970471,Joachim Löw,"['lshift', 'j', 'o', 'a', 'c', 'h', 'i', 'm', 'space', 'lshift', 'l', u'\xf6', 'w', 'return']","[0.3167743464873638, 0.6336176602399064, 0.783423220669647, 0.9334709684717382, 1.1333425931243255, 1.2165761377764284, 1.3498167235029541, 1.4665882471454097, 1.549938554979235, 1.6496956939736265, 1.7663834945615235, 1.9330228416383761, 2.0328200778785686, 2.216227772893035]",2017_Mrz_01_1642,60.0351457636,famFaceFilter,001,27,
40,./img/smoo15_NeilPatrickHarris(Barney)2_2.png,0,47,47,39,,,None,None,2,2.46584115524,None,None,None,None,None,None,3,0.949389896328,,['return'],[0.4668945901121333],2017_Mrz_01_1642,60.0351457636,famFaceFilter,001,27,
49,./img/smoo15_TomCruise5_1.png,0,48,48,48,,,None,None,1,9.83021253787,None,None,None,None,None,None,1,0.616723246554,Scientology,"['lshift', 's', 'c', 'i', 'e', 'n', 't', 'o', 'l', 'o', 'g', 'y', 'return']","[0.5666270292003901, 0.6001454407341953, 0.8166019283235073, 0.9328015048322413, 1.0499842658391572, 1.1666460834130703, 1.4164625182147574, 1.5666045747420867, 1.7496767359934893, 1.9495685696601868, 2.0495765570321964, 2.182770950730628, 2.3495543271183124]",2017_Mrz_01_1642,60.0351457636,famFaceFilter,001,27,
27,./img/smoo15_JasonSegel(Marshall)9_1.png,0,49,49,26,,,None,None,2,1.91638023867,None,None,None,None,None,None,4,1.88298564743,,['return'],[0.46688400443781575],2017_Mrz_01_1642,60.0351457636,famFaceFilter,001,27,
63,./img/smoo15_RobertSeanLeonard(Wilson)8_1.png,0,50,50,62,,,None,None,2,1.39993026287,None,None,None,None,None,None,1,2.33250465689,,['return'],[0.3336831951801287],2017_Mrz_01_1642,60.0351457636,famFaceFilter,001,27,
50,./img/smoo15_OmarEpps(DrEricForeman)2_2.png,0,51,51,49,,,None,None,2,2.01623553572,None,None,None,None,None,None,2,0.816591021872,,['return'],[0.5168195120259043],2017_Mrz_01_1642,60.0351457636,famFaceFilter,001,27,
20,./img/smoo15_NicoleKidman5_1.png,0,52,52,19,,,None,None,1,2.03295320074,None,None,None,None,None,None,1,0.450152866744,Kim Basinger,"['lshift', 'k', 'i', 'm', 'space', 'lshift', 'b', 'a', 's', 'n', 'g', 'backspace', 'backspace', 'i', 'n', 'g', 'e', 'r', 'return']","[0.6333273561704118, 0.8832676112724585, 1.016747497371398, 1.199993520285716, 1.2829527997673722, 1.333146212848078, 1.4497432332700555, 1.6163075182994362, 1.7829234485816414, 2.032889686699491, 2.1828784113549773, 2.565934148773522, 2.6994483581147506, 2.915743815161477, 3.0655833780565445, 3.1990125812335464, 3.3655582611409045, 3.432334612489285, 3.5488004347189417]",2017_Mrz_01_1642,60.0351457636,famFaceFilter,001,27,
48,./img/smoo15_JoshRadnor(Ted)6_2.png,0,53,53,47,,,None,None,2,2.13292718564,None,None,None,None,None,None,1,0.300614514368,,['return'],[0.41683686611577286],2017_Mrz_01_1642,60.0351457636,famFaceFilter,001,27,
57,./img/smoo15_UrsulavonderLeyen5_1.png,0,54,54,56,,,None,None,1,2.96589777255,None,None,None,None,None,None,3,1.11655628162,Tagesthemen,"['lshift', 't', 'a', 'g', 'e', 's', 't', 'h', 'e', 'm', 'e', 'n', 'return']","[0.43324850894350675, 0.5502256512681925, 0.7333661382272112, 0.8501646072181757, 1.0166406783046114, 1.1333676138074225, 1.316610108164241, 1.4330659862753237, 1.5331159955621843, 1.6663389385012124, 1.7496889255580754, 1.8329814933567832, 2.066389813888236]",2017_Mrz_01_1642,60.0351457636,famFaceFilter,001,27,
7,./img/smoo15_LisaEdelstein(DrLisaCuddy)2_2.png,0,55,55,6,,,None,None,2,1.24963070435,None,None,None,None,None,None,1,0.316952378264,,['return'],[0.3337672390098305],2017_Mrz_01_1642,60.0351457636,famFaceFilter,001,27,
66,./img/smoo15_NicoleKidman3_1.png,0,56,56,65,,,None,None,1,1.34962072816,None,None,None,None,None,None,1,0.54993374331,Kim Basinger,"['lshift', 'k', 'i', 'm', 'space', 'lshift', 'b', 'a', 's', 'i', 'n', 'g', 'e', 'r', 'return']","[0.40028343941958155, 0.5834983468703285, 0.7166831172289676, 0.9001835170802224, 0.983302543992977, 1.066503048512459, 1.1333185347757535, 1.300006960880637, 1.449731685261213, 1.5664903777833388, 1.6827656578934693, 1.7664614436089323, 1.9328441683046549, 1.9995871587434522, 2.0830394739750773]",2017_Mrz_01_1642,60.0351457636,famFaceFilter,001,27,
10,./img/smoo15_KatjaBurkard5_3.png,0,57,57,9,,,None,None,1,1.51633962817,None,None,None,None,None,None,3,1.08308342056,Katja Burkhard,"['lshift', 'k', 't', 'backspace', 'a', 't', 'j', 'a', 'space', 'lshift', 'b', 'i', 'r', 'backspace', 'backspace', 'u', 'r', 'k', 'h', 'a', 'r', 'd', 'return']","[0.31691805502123316, 0.43366552031329775, 0.6339724406807363, 1.0166968144494604, 1.1166521942341205, 1.216826344596484, 1.3832892637856276, 1.5330252153944457, 1.649825609052641, 1.7498987143535487, 1.7996138474718464, 1.9330831478964683, 2.0496426372956194, 2.5328686757420655, 2.666139093822494, 3.149297768892211, 3.3158899616064446, 3.9154057151736197, 4.248703335224491, 4.332019319816027, 4.46534138314928, 4.598794965453635, 4.6820323594402]",2017_Mrz_01_1642,60.0351457636,famFaceFilter,001,27,
42,./img/smoo15_OmarEpps(DrEricForeman)1_5.png,0,58,58,41,,,None,None,2,2.21616297574,None,None,None,None,None,None,2,0.766770673579,,['return'],[0.46689009921828983],2017_Mrz_01_1642,60.0351457636,famFaceFilter,001,27,
17,./img/smoo15_GeorgeClooney11_1.png,0,59,59,16,,,None,None,1,1.03331760452,None,None,None,None,None,None,1,0.999739207506,George Cloune,"['lshift', 'g', 'e', 'o', 'r', 'g', 'e', 'space', 'lshift', 'c', 'l', 'o', 'u', 'n', 'e', 'return']","[0.4001079738663975, 0.5835743712505064, 0.7500591033422097, 0.9167735124647152, 1.0833467792763258, 1.2499784276806167, 1.366581222106106, 1.466370118119812, 1.5331753394875705, 1.6330396183257108, 1.799718741869583, 1.9827986017935473, 2.0829865456089465, 2.266199207613681, 2.3494519989435503, 2.6160172142299416]",2017_Mrz_01_1642,60.0351457636,famFaceFilter,001,27,
4,./img/smoo15_UrsulavonderLeyen1_1.png,0,60,60,3,,,None,None,1,7.23101627916,None,None,None,None,None,None,4,1.54969476372,Ursula von der Leyen,"['lshift', 'u', 'r', 's', 'u', 'l', 'a', 'space', 'v', 'o', 'n', 'space', 'd', 'e', 'r', 'space', 'lshift', 'l', 'e', 'y', 'e', 'n', 'return']","[0.4999497982462344, 0.716704609354565, 0.8667719246132037, 1.6829536337882018, 1.7997373469934246, 1.9329792158332566, 2.0662470676888915, 2.165834835910573, 2.36614336016828, 3.215811082302025, 3.3320177159257582, 3.4489861972451763, 3.5823566980525356, 3.7323139864656696, 3.7820605558245006, 3.882086506762789, 3.9820588877792034, 4.082054685588446, 4.181816315473043, 4.348633373547273, 4.531959590956831, 4.648489889559642, 5.564887129457929]",2017_Mrz_01_1642,60.0351457636,famFaceFilter,001,27,
51,./img/smoo15_LeonardoDiCaprio1_1.png,0,61,61,50,,,None,None,1,1.43313816132,None,None,None,None,None,None,1,0.683442178648,Leonardo Di Caprio,"['lshift', 'l', 'e', 'o', 'n', 'a', 'r', 'd', 'o', 'space', 'lshift', 'd', 'i', 'space', 'lshift', 'c', 'a', 'p', 'r', 'i', 'o', 'return']","[0.5168368340364395, 0.6503625913865108, 0.7835165670603601, 0.916776399466471, 1.5662655124215235, 1.8331200694428844, 2.349677185084147, 2.549486578809592, 2.68281152914642, 2.8161829922883044, 2.915986644087752, 2.9826234570173256, 3.132412657771056, 3.249070626008688, 3.3658931533464056, 3.515726621460999, 3.6822735844798444, 3.8823386382518947, 4.0487335525103845, 4.165284060125487, 5.065207105488298, 5.431676376081668]",2017_Mrz_01_1642,60.0351457636,famFaceFilter,001,27,
70,./img/smoo15_JasonSegel(Marshall)7_1.png,0,62,62,69,,,None,None,2,1.46637877913,None,None,None,None,None,None,3,2.14960892353,,['return'],[0.3503184202600096],2017_Mrz_01_1642,60.0351457636,famFaceFilter,001,27,
8,./img/smoo15_AngelaMerkel4_1.png,0,63,63,7,,,None,None,1,0.933703853281,None,None,None,None,None,None,4,1.49983367662,Angela Merkel,"['lshift', 'a', 'n', 'g', 'e', 'l', 'a', 'space', 'lshift', 'm', 'e', 'r', 'k', 'e', 'l', 'return']","[0.5001935895088536, 0.6002888284911023, 0.7998236362691387, 0.8499846507747861, 0.983317620559319, 1.0666448323790974, 1.1832056048897357, 1.216104594150238, 1.2998671016848675, 1.4164516117652965, 1.4831856204218639, 1.5330819930968573, 1.6330190885364573, 1.783079346678278, 1.9162657209290046, 2.1662172032592935]",2017_Mrz_01_1642,60.0351457636,famFaceFilter,001,27,
59,./img/smoo15_JoshRadnor(Ted)1_2.png,0,64,64,58,,,None,None,2,1.94960577991,None,None,None,None,None,None,1,0.383220617299,,['return'],[0.38362928844071575],2017_Mrz_01_1642,60.0351457636,famFaceFilter,001,27,
38,./img/smoo15_AlysonHannigan(Lily)5_4.png,0,65,65,37,,,None,None,2,1.79942651313,None,None,None,None,None,None,1,0.416722027599,,['return'],[0.4834922841655498],2017_Mrz_01_1642,60.0351457636,famFaceFilter,001,27,
54,./img/smoo15_LisaEdelstein(DrLisaCuddy)6_3.png,0,66,66,53,,,None,None,2,2.46607788938,None,None,None,None,None,None,1,0.983214330052,,['return'],[0.36691418964619515],2017_Mrz_01_1642,60.0351457636,famFaceFilter,001,27,
13,./img/smoo15_GeorgeClooney3_1.png,0,67,67,12,,,None,None,1,2.84946755668,None,None,None,None,None,None,1,0.850045598589,George Clouney,"['lshift', 'g', 'e', 'o', 'r', 'g', 'e', 'space', 'lshift', 'c', 'l', 'o', 'o', 'backspace', 'u', 'n', 'e', 'y', 'return']","[0.33368896918364044, 0.5003263915914431, 0.6502211282986536, 0.8334905680058, 0.9831938002607785, 1.133485339325489, 1.2665607243943668, 1.3500293993020023, 1.4330480227090447, 1.5831817390080687, 1.78279577894682, 1.9830597150667018, 2.14972183737882, 2.5825658452940843, 2.8661098388711252, 3.0491082211883622, 3.1659394095313473, 3.3158546760296304, 3.549074379110607]",2017_Mrz_01_1642,60.0351457636,famFaceFilter,001,27,
67,./img/smoo15_GeorgeClooney4_2.png,0,68,68,66,,,None,None,1,1.46645833206,None,None,None,None,None,None,1,0.416819864882,George Clouney,"['lshift', 'g', 'e', 'o', 'r', 'g', 'e', 'space', 'lshift', 'c', 'l', 'n', 'backspace', 'o', 'u', 'n', 'e', 'y', 'return']","[0.41678682474957895, 0.6168072903838038, 0.7667613710164005, 0.9332695199009322, 1.0829663365966553, 1.2499129889729375, 1.3665375963009865, 1.4828083855209115, 1.54973903107566, 1.6496928069700516, 1.7996613226114277, 2.1662585836165817, 2.466128251524424, 2.699330632594865, 2.8326231843548157, 3.032388631499998, 3.165709411721764, 3.349018627897749, 3.4822890459763585]",2017_Mrz_01_1642,60.0351457636,famFaceFilter,001,27,
58,./img/smoo15_EmilyDeschanel3_1.png,0,69,69,57,,,None,None,2,1.86634208212,None,None,None,None,None,None,1,0.350074628996,,['return'],[0.3503164955909597],2017_Mrz_01_1642,60.0351457636,famFaceFilter,001,27,
39,./img/smoo15_BarackObama2_1.png,0,70,70,38,,,None,None,1,1.08319537207,None,None,None,None,None,None,4,1.26654500627,Barrack Obama,"['lshift', 'b', 'a', 'r', 'r', 'a', 'c', 'k', 'space', 'lshift', 'o', 'b', 'a', 'm', 'a', 'return']","[0.28358697782641684, 0.33368127051107876, 0.516874365059266, 0.7168778294617368, 0.8666644639906735, 0.9499381058903964, 1.116607606094476, 1.2000121254077385, 1.316144980097306, 1.3998109334606852, 1.832944283110919, 2.049297480192763, 2.199530637664793, 2.349428582152541, 2.449431757853745, 2.615891148485389]",2017_Mrz_01_1642,60.0351457636,famFaceFilter,001,27,
61,./img/smoo15_OmarEpps(DrEricForeman)3_1.png,0,71,71,60,,,None,None,2,2.16622458115,None,None,None,None,None,None,2,0.466692820764,,['return'],[0.5669195787158969],2017_Mrz_01_1642,60.0351457636,famFaceFilter,001,27,
12,./img/edges5_UrsulavonderLeyen4_1.png,0,0,0,11,,,None,None,1,1.56653592826,None,None,None,None,None,None,4,2.11611072101,Ursula von der Leyen,"['lshift', 'u', 'r', 's', 'u', 'l', 'a', 'space', 'v', 'o', 'n', 'space', 'd', 'e', 'r', 'space', 'lshift', 'l', 'e', 'y', 'e', 'n', 'return']","[0.41689428537210915, 0.650203485509337, 0.8002762539945252, 1.216779190235684, 1.4832895524868945, 1.783220809766135, 1.8663744807017792, 2.2995591548278753, 2.416081113202381, 2.9659401152439386, 3.0990437287746317, 3.216026645102829, 3.33237121325692, 3.4992479360353173, 3.5490150351852208, 3.5988142121332203, 3.682353458196303, 3.7989174384856597, 3.9156719608945423, 4.08223560436636, 4.298797948689753, 4.432109105571726, 4.782098407626108]",2017_Mrz_01_1642,60.0351457636,famFaceFilter,001,27,
34,./img/edges5_KatjaBurkard1_1.png,0,1,1,33,,,None,None,1,1.1667089559,None,None,None,None,None,None,3,1.38326103532,Katja Burkhard,"['lshift', 'k', 'a', 't', 'h', 'j', 'a', 'space', 'backspace', 'backspace', 'backspace', 'backspace', 'j', 'a', 'space', 'lshift', 'b', 'u', 'r', 'k', 'h', 'a', 'r', 'd', 'return']","[0.466917365347399, 0.6334742724829994, 0.7666234364878619, 1.233219061525233, 1.3830506049707765, 1.5663213277894101, 1.6831175513343624, 1.816248751772946, 2.14958165740245, 2.28275199275231, 2.4161718933701195, 2.5493223404864693, 3.032453749428896, 3.149036334842094, 3.2656740940674354, 3.365710309899441, 3.4323342917105037, 3.5487042013246537, 3.665650869741512, 3.882278973549546, 4.281979880162908, 4.398655170411075, 4.5485316227732255, 4.681818721308446, 4.798434667631227]",2017_Mrz_01_1642,60.0351457636,famFaceFilter,001,27,
31,./img/edges5_GeorgeClooney4_2.png,0,2,2,30,,,None,None,1,1.19994572437,None,None,None,None,None,None,1,0.750217888441,George Clouney,"['lshift', 'g', 'e', 'o', 'r', 'g', 'e', 'space', 'lshift', 'c', 'l', 'o', 'u', 'n', 'e', 'y', 'return']","[0.38353947060750215, 0.4336648787575541, 0.583503800096878, 0.8833859783462685, 1.0832723587864166, 1.283241179165998, 1.4662292965876986, 1.5997595448279753, 1.6830723216407932, 1.8329968906982685, 2.0495492909049062, 2.7992613124752097, 2.94935621463992, 3.1491550226928666, 3.282465217242134, 3.4497775565123447, 3.548965314597808]",2017_Mrz_01_1642,60.0351457636,famFaceFilter,001,27,
44,./img/edges5_EmilyDeschanel5_1.png,0,3,3,43,,,None,None,2,2.58237145384,None,None,None,None,None,None,1,1.24964866792,Kim Basinger,"['lshift', 'k', 'i', 'm', 'space', 'lshift', 'b', 'a', 's', 'i', 'n', 'g', 'e', 'r', 'return']","[0.616800554047586, 0.8165262247221108, 0.9999788286531839, 1.1000387820567994, 1.2162768519228848, 1.2830188800289761, 1.3663589229690842, 1.516490393822096, 1.666356581290529, 1.7830767804553034, 1.8996635359817446, 2.016301615984048, 2.1494587994366157, 2.2495761720983865, 2.3494282613737596]",2017_Mrz_01_1642,60.0351457636,famFaceFilter,001,27,
13,./img/edges5_MariskaHargitay(Liv)6_5.png,0,4,4,12,,,None,None,2,4.3489923241,None,None,None,None,None,None,3,1.21650011339,ZDf,"['lshift', 'z', 'd', 'f', 'backspace', 'backspace', 'lshift', 'd', 'f', 'return']","[1.0332778280517232, 1.2831834391308803, 1.4664057244754076, 1.7329516930822138, 2.4994323833707313, 2.665862583206035, 2.865601405777852, 2.9324249114888516, 3.099148302395406, 3.2989907362534723]",2017_Mrz_01_1642,60.0351457636,famFaceFilter,001,27,
67,./img/edges5_LeonardoDiCaprio2_1.png,0,5,5,66,,,None,None,1,1.53320677573,None,None,None,None,None,None,1,0.633438666127,Leonardo Di Caprio,"['lshift', 'l', 'e', 'o', 'n', 'a', 'r', 'd', 'o', 'space', 'lshift', 'd', 'i', 'space', 'lshift', 'c', 'a', 'p', 'r', 'i', 'o', 'return']","[0.9666224099983083, 1.116824131229805, 1.4332080909189244, 1.683156365470495, 2.0663041661682655, 2.2158665768911305, 2.366307598493222, 2.4995116155314463, 2.599445503190509, 2.7327932287626027, 2.8327710630037473, 2.91598632331079, 3.0158858877257444, 3.1660054897947703, 3.265846993395826, 3.3322624695229024, 3.5157853238306416, 3.6989229237879044, 3.849031298628688, 3.98220387942456, 4.432105577014227, 4.8153451202124415]",2017_Mrz_01_1642,60.0351457636,famFaceFilter,001,27,
68,./img/edges5_MariskaHargitay(Liv)4_4.png,0,6,6,67,,,None,None,2,2.71609994287,None,None,None,None,None,None,3,2.1828049532,,['return'],[0.7166969106838224],2017_Mrz_01_1642,60.0351457636,famFaceFilter,001,27,
1,./img/edges5_BastianSchweinsteiger6_2.png,0,7,7,0,,,None,None,1,1.13308115907,None,None,None,None,None,None,5,1.15003876602,Bastian Schweinsteiger,"['lshift', 'b', 'a', 's', 't', 'i', 'a', 'n', 'space', 'lshift', 's', 'c', 'h', 'w', 'e', 'i', 'n', 's', 't', 'e', 'i', 'g', 'e', 'r', 'return']","[0.5167364305307274, 0.6167902891520498, 1.2829027584011783, 1.999520757703067, 2.1662062968080136, 2.2660381770692766, 2.3994943255984253, 2.499283542389094, 2.599353119132502, 2.69922605897591, 2.7325757412927487, 2.8992401090508793, 2.9990771217617294, 3.099154076398918, 3.2155788390464295, 3.3156063938749867, 3.398970815940629, 3.565554347647776, 3.6986149769309122, 3.8320133854231244, 3.998688018076791, 4.115326098079095, 4.281908346674754, 4.3652535220608115, 4.395065023300049]",2017_Mrz_01_1642,60.0351457636,famFaceFilter,001,27,
17,./img/edges5_NeilPatrickHarris(Barney)3_7.png,0,8,8,16,,,None,None,2,2.38297393903,None,None,None,None,None,None,3,1.33313498562,,['return'],[0.5335824067406065],2017_Mrz_01_1642,60.0351457636,famFaceFilter,001,27,
62,./img/edges5_AlysonHannigan(Lily)5_4.png,0,9,9,61,,,None,None,2,2.04959548293,None,None,None,None,None,None,2,1.23301376362,,['return'],[0.41690102171014587],2017_Mrz_01_1642,60.0351457636,famFaceFilter,001,27,
72,./img/edges5_EmilyDeschanel6_12.png,0,10,10,71,,,None,None,2,2.23288320699,None,None,None,None,None,None,1,0.383634741667,,['return'],[0.4167983727566025],2017_Mrz_01_1642,60.0351457636,famFaceFilter,001,27,
60,./img/edges5_TomCruise1_1.png,0,11,11,59,,,None,None,1,1.44973585537,None,None,None,None,None,None,1,0.450170509534,Scientology,"['lshift', 's', 'c', 'i', 'e', 'n', 't', 'o', 'l', 'o', 'g', 'y', 'return']","[0.7000838192852825, 0.8001626985897019, 1.1000769546371885, 1.2998610069025744, 1.4664708424061246, 1.6495266439796978, 1.8663067965480877, 1.9996814674705092, 2.166172615121468, 2.3328559087785834, 2.432515852045981, 2.582640586562775, 2.766072339925813]",2017_Mrz_01_1642,60.0351457636,famFaceFilter,001,27,
43,./img/edges5_BarackObama1_3.png,0,12,12,42,,,None,None,1,1.1832171529,None,None,None,None,None,None,4,2.0491983598,Barrack Obama,"['lshift', 'b', 'a', 'r', 'r', 'a', 'c', 'k', 'space', 'lshift', 'lshift', 'o', 'b', 'a', 'm', 'a', 'return']","[0.19985237797664013, 0.28348593276314205, 0.450003384208685, 0.650147349364488, 0.799936229339437, 0.8666580484332371, 1.0501440132738935, 1.1832177944525029, 1.3166386574030184, 1.3832292783044977, 1.6662680465688027, 1.8165287909469043, 1.9665104584855726, 2.166174539788699, 2.266178998603209, 2.3826967868644715, 2.599262018187801]",2017_Mrz_01_1642,60.0351457636,famFaceFilter,001,27,
23,./img/edges5_UrsulavonderLeyen1_1.png,0,13,13,22,,,None,None,1,2.19960217115,None,None,None,None,None,None,4,1.3832876599,Ursula von der Leyen,"['lshift', 'u', 's', 'u', 'backspace', 'backspace', 'r', 's', 'u', 'l', 'a', 'space', 'v', 'o', 'n', 'space', 'd', 'e', 'r', 'space', 'lshift', 'l', 'e', 'y', 'e', 'n', 'return']","[0.21700694259743614, 0.3670748994118185, 0.683614436418793, 0.883590955470936, 1.7662417106948851, 1.86632700555856, 1.9663266527040832, 2.2829598568805523, 2.499524125871176, 2.8993799682484678, 2.999370312831161, 3.1492891078869434, 3.3656355686307506, 3.649154862303476, 3.782114125746375, 3.8991172510868637, 4.015649795133868, 4.1655095670412265, 4.23197893386714, 4.298703960741477, 4.382137670849261, 4.5154032772588835, 4.598756151317502, 4.7652286938464385, 4.948552024252422, 5.048413416088806, 5.348421980861531]",2017_Mrz_01_1642,60.0351457636,famFaceFilter,001,27,
61,./img/edges5_NeilPatrickHarris(Barney)2_2.png,0,14,14,60,,,None,None,2,1.93255418501,None,None,None,None,None,None,3,1.19900969423,,['return'],[0.40092531615118787],2017_Mrz_01_1642,60.0351457636,famFaceFilter,001,27,
55,./img/edges5_JoachimLoew1_1.png,0,15,15,54,,,None,None,1,0.966647430681,None,None,None,None,None,None,5,1.11654537517,Joachim Löw,"['lshift', 'j', 'o', 'a', 'c', 'h', 'i', 'm', 'space', 'lshift', 'l', u'\xf6', 'w', 'return']","[0.40020966048541595, 0.6002089547746436, 0.7168598658954579, 0.916768380016947, 1.0833384390498395, 1.2333983764146979, 1.3497095836592052, 1.483060517011836, 1.583208042802653, 1.6665182533906773, 1.7997735949047637, 1.9997700021922356, 2.1163753628406994, 2.299667257006149]",2017_Mrz_01_1642,60.0351457636,famFaceFilter,001,27,
38,./img/edges5_GeorgeClooney11_1.png,0,16,16,37,,,None,None,1,1.0998896203,None,None,None,None,None,None,1,0.933373451966,George Clouney,"['lshift', 'g', 'e', 'o', 'r', 'g', 'e', 'space', 'lshift', 'c', 'l', 'o', 'u', 'n', 'e', 'y', 'return']","[0.4001955462535989, 0.5170036385843559, 0.6667979717840353, 0.8166080231058004, 0.9834382330773224, 1.1665562655798567, 1.2998369485540024, 1.4332363193807396, 1.4997675963550137, 1.5830842225022934, 1.766507314860064, 1.9496157240228058, 2.116197651839684, 2.3161154685221845, 2.4160823963138682, 2.58276504841524, 2.715970990122514]",2017_Mrz_01_1642,60.0351457636,famFaceFilter,001,27,
66,./img/edges5_BritneySpears1_1.png,0,17,17,65,,,None,None,2,2.83263826092,None,None,None,None,None,None,1,0.500234328312,,['return'],[0.40028343941958155],2017_Mrz_01_1642,60.0351457636,famFaceFilter,001,27,
41,./img/edges5_OmarEpps(DrEricForeman)3_1.png,0,18,18,40,,,None,None,2,1.24983760615,None,None,None,None,None,None,2,0.583391207027,,['return'],[0.41706108992184454],2017_Mrz_01_1642,60.0351457636,famFaceFilter,001,27,
63,./img/edges5_LisaEdelstein(DrLisaCuddy)2_2.png,0,19,19,62,,,None,None,2,2.16619699425,None,None,None,None,None,None,4,0.999951883305,,['return'],[0.3335908111239405],2017_Mrz_01_1642,60.0351457636,famFaceFilter,001,27,
5,./img/edges5_AlysonHannigan(Lily)1_1.png,0,20,20,4,,,None,None,2,1.61663503261,None,None,None,None,None,None,1,0.383546527723,,['return'],[0.4337463563642814],2017_Mrz_01_1642,60.0351457636,famFaceFilter,001,27,
59,./img/edges5_BastianSchweinsteiger3_1.png,0,21,21,58,,,None,None,1,0.966624655444,None,None,None,None,None,None,5,1.04996181138,Bastian Schweinsteiger,"['lshift', 'b', 'a', 's', 't', 'i', 'a', 'n', 'space', 'lshift', 's', 'c', 'h', 'w', 'e', 'i', 'n', 's', 't', 'e', 'i', 'g', 'e', 'r', 'return']","[0.5503125820978312, 0.6337260831951426, 0.8001835491577367, 0.9833679827006563, 1.083558492740849, 1.183164866086372, 1.3000637385830487, 1.3834656916715176, 1.5165843817685527, 1.5999921088605333, 1.6165965392538055, 1.8331855081487447, 1.9331434541563794, 2.032910858044488, 2.133151409449056, 2.2663589550465986, 2.3663059946011344, 2.666264518009484, 2.932495482644299, 3.115915687998495, 3.265695586191214, 3.39916937750786, 3.5489694847110513, 3.6156932284720824, 3.7156393056939123]",2017_Mrz_01_1642,60.0351457636,famFaceFilter,001,27,
35,./img/edges5_WillSmith1_1.png,0,22,22,34,,,None,None,1,1.1666069485,None,None,None,None,None,None,1,0.516840041817,Will Smith,"['lshift', 'w', 'i', 'l', 'l', 'space', 'lshift', 's', 'm', 'i', 't', 'h', 'return']","[0.3501532196005428, 0.5000059343929024, 0.6500459835224319, 0.8666452173129073, 0.9666147113275656, 1.1332582285158423, 1.2331635669361276, 1.33374157677099, 1.533144865579743, 1.6831069656618638, 1.7330796834939974, 1.88294939951993, 2.16596892110465]",2017_Mrz_01_1642,60.0351457636,famFaceFilter,001,27,
15,./img/edges5_LisaEdelstein(DrLisaCuddy)6_3.png,0,23,23,14,,,None,None,2,2.96541820947,None,None,None,None,None,None,4,1.05046126269,,['return'],[0.36694787133455975],2017_Mrz_01_1642,60.0351457636,famFaceFilter,001,27,
25,./img/edges5_JoachimLoew8_1.png,0,24,24,24,,,None,None,1,1.51637587608,None,None,None,None,None,None,5,0.666473023695,Joachim Löw,"['lshift', 'j', 'o', 'a', 'c', 'h', 'i', 'm', 'space', 'lshift', 'l', u'\xf6', 'w', 'return']","[0.4502221547863883, 0.6169856429387437, 0.7835069437205675, 0.8833692978896579, 1.0666579842745705, 1.1333304035597394, 1.2332055888491595, 1.3499694138190534, 1.4499453233929671, 1.4998840387615928, 1.6332798810290114, 1.7996863432945247, 1.9329567613731342, 2.082890953772221]",2017_Mrz_01_1642,60.0351457636,famFaceFilter,001,27,
71,./img/edges5_HughLaurie(DrHouse)4_1.png,0,25,25,70,,,None,None,2,2.81593471013,None,None,None,None,None,None,3,2.08295478859,,['return'],[0.7834761490357778],2017_Mrz_01_1642,60.0351457636,famFaceFilter,001,27,
6,./img/edges5_GuentherJauch3_1.png,0,26,26,5,,,None,None,1,1.38316223571,None,None,None,None,None,None,3,0.966621768443,Günther Jauch,"['lshift', 'g', u'\xfc', 'n', 't', 'h', 'e', 'r', 'space', 'lshift', 'j', 'a', 'u', 'c', 'h', 'return']","[0.3835336966039904, 0.5502099331461068, 0.8500176909055881, 1.0499204310217465, 1.2331606799325527, 1.333208443773401, 1.5664506013145, 1.6830232426091243, 1.8163404942733905, 1.9162172834530793, 2.016317334104315, 2.165926899189799, 2.24938210142318, 2.366014728198934, 2.466107400956389, 2.73270341092757]",2017_Mrz_01_1642,60.0351457636,famFaceFilter,001,27,
45,./img/edges5_WillSmith4_1.png,0,27,27,44,,,None,None,1,1.26658895286,None,None,None,None,None,None,1,0.583460815848,Will Smith,"['lshift', 'w', 'i', 'l', 'l', 'space', 'lshift', 's', 'm', 'i', 't', 'h', 'return']","[0.4668156787301996, 0.5336253909881634, 0.7667350672236353, 0.9499769200247101, 1.0995855227774882, 1.2333127286947274, 1.3332100476654887, 1.4664005920276395, 1.63315413606324, 1.7997630092304462, 1.9160200049973355, 2.032873647800443, 2.299141822679303]",2017_Mrz_01_1642,60.0351457636,famFaceFilter,001,27,
37,./img/edges5_JasonSegel(Marshall)9_1.png,0,28,28,36,,,None,None,1,3.89861138422,None,None,None,None,None,None,1,1.2666043502,American Pie,"['lshift', 'a', 'm', 'e', 'r', 'i', 'c', 'a', 'n', 'lshift', 'p', 'backspace', 'space', 'lshift', 'p', 'i', 'e', 'return']","[0.7001011412958178, 1.0000837230527395, 1.1830006277632492, 1.5330768606490892, 1.6996334470077272, 1.9329272498016508, 2.0329474267364276, 2.2495684734276438, 2.3827590177916136, 3.165771642650725, 3.249015452196545, 3.732283512557842, 4.182099241648757, 4.348585256851948, 4.448614094791992, 5.214701511282328, 5.664854698805357, 5.8813971548934205]",2017_Mrz_01_1642,60.0351457636,famFaceFilter,001,27,
48,./img/edges5_GeorgeClooney3_1.png,0,29,29,47,,,None,None,1,1.08320050452,None,None,None,None,None,None,1,0.383426556758,George Clouney,"['lshift', 'g', 'o', 'e', 'backspace', 'backspace', 'e', 'r', 'o', 'backspace', 'backspace', 'o', 'r', 'g', 'e', 'space', 'lshift', 'c', 'l', 'o', 'u', 'n', 'e', 'y', 'return']","[0.450268988372045, 0.7999984602647601, 1.0163972078207735, 1.2167134307492233, 1.6497823040263029, 1.7829914535122953, 1.8327543825489556, 2.0329070087100263, 2.1328893338431953, 2.5994236902879493, 2.732519925924862, 2.949183956867273, 3.0992118164340354, 3.299131878562548, 3.465581004298656, 3.5656361460314656, 3.6322546746177977, 3.7321936947228096, 3.8987313551806437, 4.08196262230922, 4.648568159385832, 4.831825409528392, 4.9482360579459055, 5.081659166342433, 5.231558393941668]",2017_Mrz_01_1642,60.0351457636,famFaceFilter,001,27,
30,./img/edges5_MariskaHargitay(Liv)8_8.png,0,30,30,29,,,None,None,1,4.81520654413,None,None,None,None,None,None,3,1.44986480812,Zdf,"['lshift', 'd', 'backspace', 'lshift', 'z', 'd', 'f', 'return']","[0.3834730695652979, 0.5002708970005187, 1.3830919853298838, 1.583134905422412, 1.8495355616050801, 1.9829387817680981, 2.14957235483962, 2.4827160014629044]",2017_Mrz_01_1642,60.0351457636,famFaceFilter,001,27,
20,./img/edges5_JoshRadnor(Ted)1_2.png,0,31,31,19,,,None,None,2,5.83137375414,None,None,None,None,None,None,3,0.949971466798,,['return'],[0.483880425517782],2017_Mrz_01_1642,60.0351457636,famFaceFilter,001,27,
46,./img/edges5_TomCruise5_1.png,0,32,32,45,,,None,None,1,8.73020422971,None,None,None,None,None,None,1,0.683500560239,Scientology,"['lshift', 's', 'c', 'i', 'e', 'n', 't', 'o', 'l', 'o', 'g', 'y', 'return']","[0.7000790076144767, 0.816841228694102, 1.0166945690034481, 1.2500252612644545, 1.4165654879452632, 1.5664913401160447, 1.7662734677141998, 1.8995833414846857, 2.082755585464838, 2.232865243417109, 2.332331116007481, 2.4994978220765915, 2.632459651742465]",2017_Mrz_01_1642,60.0351457636,famFaceFilter,001,27,
28,./img/edges5_Ice-T(OdafinFinTutuola)5_1.png,0,33,33,27,,,None,None,2,1.94941395468,None,None,None,None,None,None,2,0.933350676729,,['return'],[1.599669085439018],2017_Mrz_01_1642,60.0351457636,famFaceFilter,001,27,
53,./img/edges5_KatjaBurkard4_1.png,0,34,34,52,,,None,None,1,1.00004426736,None,None,None,None,None,None,3,1.09994864344,Katja Burkhard,"['lshift', 'k', 'a', 't', 'j', 'a', 'space', 'lshift', 'b', 'u', 'r', 'k', 'h', 'a', 'r', 'd', 'return']","[0.2836970046701026, 0.43336398901374196, 0.5502253304894111, 0.816825189795054, 0.9501196662240545, 1.0833618558408489, 1.2332444029852923, 1.3332058775504265, 1.3832738664423232, 1.5499000616200647, 1.6497341873291589, 2.0163112393220217, 2.2661844518261205, 2.366088186356137, 2.5326630570580164, 2.6659479101472243, 2.7992831253777695]",2017_Mrz_01_1642,60.0351457636,famFaceFilter,001,27,
42,./img/edges5_JoachimLoew4_1.png,0,35,35,41,,,None,None,1,1.54950197615,None,None,None,None,None,None,5,1.58294917498,Joachim Löw,"['lshift', 'j', 'o', 'a', 'c', 'h', 'i', 'm', 'space', 'lshift', 'l', u'\xf6', 'w', 'return']","[0.36689782996836584, 0.4669135160111182, 0.6334620829202322, 0.7833988415422937, 0.9667580990826536, 1.0833390806055831, 1.2166264999177656, 1.3164773060798325, 1.4166222656476748, 1.5331073345550976, 1.6164451320491935, 1.7996151305833337, 1.9331190750290261, 2.0829496561418637]",2017_Mrz_01_1642,60.0351457636,famFaceFilter,001,27,
18,./img/edges5_JoshRadnor(Ted)6_2.png,0,36,36,17,,,None,None,2,2.53273298666,None,None,None,None,None,None,3,1.13307891363,,['return'],[0.4502738000410318],2017_Mrz_01_1642,60.0351457636,famFaceFilter,001,27,
10,./img/edges5_GuentherJauch4_1.png,0,37,37,9,,,None,None,1,1.19997331127,None,None,None,None,None,None,3,0.783226904547,Günther Jauch,"['lshift', 'g', u'\xfc', 'n', 't', 'h', 'e', 'r', 'space', 'lshift', 'j', 'a', 'u', 'c', 'h', 'return']","[0.3837053128208936, 0.666766535543502, 0.8835466881118919, 1.0166737184354133, 1.1167805054228666, 1.2996868244608777, 1.4165379010391916, 1.5165911181065894, 1.616599105478599, 1.7163783781525126, 1.8331790925894893, 1.949637857702328, 2.0330266588953236, 2.132877785836172, 2.2162024314329756, 2.4159576136808028]",2017_Mrz_01_1642,60.0351457636,famFaceFilter,001,27,
19,./img/edges5_HughLaurie(DrHouse)2_1.png,0,38,38,18,,,None,None,2,2.64914491819,None,None,None,None,None,None,3,1.06645268637,,['return'],[0.28356131558757625],2017_Mrz_01_1642,60.0351457636,famFaceFilter,001,27,
21,./img/edges5_JoshRadnor(Ted)3_1.png,0,39,39,20,,,None,None,2,2.24964353548,None,None,None,None,None,None,3,0.949930407218,,['return'],[0.2170399827300571],2017_Mrz_01_1642,60.0351457636,famFaceFilter,001,27,
24,./img/edges5_JasonSegel(Marshall)7_1.png,0,40,40,23,,,None,None,1,2.598953109,None,None,None,None,None,None,1,0.649867630969,American Pie,"['lshift', 'a', 'm', 'e', 'r', 'i', 'c', 'a', 'n', 'space', 'lshift', 'p', 'i', 'e', 'return']","[0.450187831544099, 0.4999898954938544, 0.7334979779752757, 0.8500722231619875, 1.0333506446513638, 1.216582874112646, 1.3664035111069097, 1.599758261716488, 1.74957312470724, 1.899673800875462, 2.0326978614702966, 2.5659909264741145, 2.815839759852679, 2.932492595642543, 3.199009373453009]",2017_Mrz_01_1642,60.0351457636,famFaceFilter,001,27,
64,./img/edges5_EmilyDeschanel3_1.png,0,41,41,63,,,None,None,2,1.89953169623,None,None,None,None,None,None,1,0.283681928106,,['return'],[0.6168384058491938],2017_Mrz_01_1642,60.0351457636,famFaceFilter,001,27,
2,./img/edges5_OmarEpps(DrEricForeman)1_5.png,0,42,42,1,,,None,None,2,1.43294665687,None,None,None,None,None,None,2,0.616912826339,,['return'],[0.5335400640469743],2017_Mrz_01_1642,60.0351457636,famFaceFilter,001,27,
47,./img/edges5_UrsulavonderLeyen5_1.png,0,43,43,46,,,None,None,1,1.49981378838,None,None,None,None,None,None,4,0.949944842228,Ursula von der Leyen,"['lshift', 'u', 'r', 's', 'u', 'l', 'a', 'space', 'lshift', 'v', 'o', 'n', 'space', 'backspace', 'backspace', 'backspace', 'backspace', 'v', 'o', 'n', 'space', 'd', 'e', 'r', 'space', 'lshift', 'l', 'a', 'backspace', 'e', 'y', 'e', 'n', 'return']","[0.41680125975835836, 0.6667601199842466, 0.7833799156414898, 0.9333888493074483, 1.0333493615398766, 1.2332784054506192, 1.349898842665425, 1.4664730878503178, 1.5830470122582483, 2.199521335103782, 2.3161023166267114, 2.4495267081347265, 2.5661420129017642, 2.9158865613590024, 3.065863738005646, 3.182379922378459, 3.3322538085158158, 3.4157997909169353, 3.6155671627275296, 3.698938321131209, 3.83219462497982, 3.9655041779733438, 4.11537613944347, 4.1987851496469375, 4.248811758181546, 4.332019319816027, 4.465341703928061, 4.581945460686256, 4.898489167808293, 4.948378162589506, 5.114775322294008, 5.398215704582981, 5.548045964917037, 5.848034962233214]",2017_Mrz_01_1642,60.0351457636,famFaceFilter,001,27,
70,./img/edges5_BastianSchweinsteiger1_1.png,0,44,44,69,,,None,None,1,1.61593060418,None,None,None,None,None,None,5,0.300385478893,Bastian Schweinsteiger,"['lshift', 'v', 'backspace', 'lshift', 'b', 'a', 's', 't', 'i', 'a', 'n', 'space', 'lshift', 's', 'c', 'h', 'w', 'e', 'i', 'n', 's', 't', 'e', 'i', 'g', 'e', 'r', 'return']","[0.35019748696140596, 0.4502532702499593, 1.0831087620172184, 1.2833367710027233, 1.4333152307626733, 1.6165311005479452, 1.799765896232202, 1.899799225064271, 2.0163259951095824, 2.149562410722865, 2.2331042230089224, 2.332937707162273, 2.432831818352497, 2.4826810366648715, 2.6828788925195113, 2.766063037362983, 2.8824377586461196, 3.0158801137222326, 3.4325915556473774, 3.565758041662775, 3.748928681752659, 3.9157345125986467, 3.9989600377994066, 4.2487723024896695, 4.3821104047219706, 4.531916606707455, 4.6486121059679135, 4.748571655865817]",2017_Mrz_01_1642,60.0351457636,famFaceFilter,001,27,
69,./img/edges5_GuentherJauch2_1.png,0,45,45,68,,,None,None,1,1.01677572583,None,None,None,None,None,None,3,1.63299823797,Günther Jauch,"['lshift', 'g', u'\xfc', 'n', 't', 'h', 'e', 'r', 'space', 'lshift', 'j', 'a', 'u', 'c', 'h', 'return']","[0.2166986749634816, 0.31702198708626383, 0.5668252699906589, 0.7000421181492129, 0.8001373571296426, 0.9333243729361129, 1.0499172232430283, 1.1332623986309045, 1.2332607626631216, 1.3664314187917626, 1.4662155031364819, 1.5997563370492571, 1.6997521348584996, 1.8329718700169906, 1.9329468172581983, 2.182871995793903]",2017_Mrz_01_1642,60.0351457636,famFaceFilter,001,27,
8,./img/edges5_LeonardoDiCaprio3_1.png,0,46,46,7,,,None,None,1,1.59975826172,None,None,None,None,None,None,1,1.53297870259,Leonardo Di Caprio,"['lshift', 'l', 'e', 'o', 'n', 'a', 'r', 'd', 'o', 'space', 'lshift', 'd', 'i', 'space', 'lshift', 'c', 'a', 'p', 'r', 'i', 'o', 'return']","[0.26692769439796393, 0.41619980105315335, 0.6835143536918622, 0.8664864322145149, 1.1999011362277088, 1.3332010658814397, 1.616303348184374, 1.8163837992997287, 1.949659991383669, 2.116138307914298, 2.2662264737427904, 2.3489679449776304, 2.4826040499501687, 2.6659851203930884, 2.8321179590438987, 2.899103457633828, 3.232865243417109, 3.499109359947397, 3.7155164477298968, 3.882223799737403, 4.148793185135219, 4.631917216185684]",2017_Mrz_01_1642,60.0351457636,famFaceFilter,001,27,
14,./img/edges5_AngelaMerkel4_1.png,0,47,47,13,,,None,None,1,1.36619083531,None,None,None,None,None,None,4,1.34981608195,Angela Merkel,"['lshift', 'a', 'n', 'g', 'e', 'l', 'a', 'space', 'lshift', 'm', 'e', 'r', 'k', 'e', 'l', 'return']","[0.25020682160175056, 0.3501897882906633, 0.5501005478581646, 0.6167171517754468, 0.7500260632114077, 0.8500796010557679, 0.9997449815091386, 1.0664347228048427, 1.1665989290522703, 1.2664548676621052, 1.3497791924801277, 1.3997410038628004, 1.4996210008212074, 1.6163620505540166, 1.732635085219954, 1.9825281859593815]",2017_Mrz_01_1642,60.0351457636,famFaceFilter,001,27,
54,./img/edges5_KatjaBurkard5_3.png,0,48,48,53,,,None,None,1,0.866710335242,None,None,None,None,None,None,3,1.08319986296,Katja Burkhard,"['lshift', 'k', 'a', 't', 'j', 'a', 'space', 'lshift', 'b', 'u', 'r', 'k', 'h', 'a', 'r', 'd', 'return']","[0.20025687900306366, 0.3670867681976233, 0.5171197602121538, 0.6835659989446867, 0.8169364997538651, 1.3500178512931598, 1.5166061946711125, 1.6497835871377902, 1.7332387893711712, 1.866125556989573, 1.9832011781527399, 2.5328879224198317, 2.7661759512102435, 2.849357209051959, 3.015691817048719, 3.165928182301286, 3.2826746852606448]",2017_Mrz_01_1642,60.0351457636,famFaceFilter,001,27,
27,./img/edges5_OmarEpps(DrEricForeman)2_2.png,0,49,49,26,,,None,None,2,2.09976804545,None,None,None,None,None,None,2,2.79927029426,,['return'],[1.1498116552102147],2017_Mrz_01_1642,60.0351457636,famFaceFilter,001,27,
33,./img/edges5_BarackObama2_1.png,0,50,50,32,,,None,None,1,0.966649996904,None,None,None,None,None,None,4,2.56573590798,Barrack Obama,"['lshift', 'b', 'a', 'r', 'r', 'a', 'c', 'k', 'space', 'lshift', 'o', 'b', 'a', 'm', 'a', 'return']","[0.9498797242977162, 1.0666586258321331, 1.2496319874662731, 1.4498513354465103, 1.599719126805212, 1.7162863148751057, 1.8662865875357966, 1.9995525147242006, 2.099398829994243, 2.465651254675322, 2.6493418758655025, 2.865778795998267, 3.048982796997734, 3.14897185846894, 3.2321287371851213, 3.4486894776164263]",2017_Mrz_01_1642,60.0351457636,famFaceFilter,001,27,
32,./img/edges5_Ice-T(OdafinFinTutuola)7_1.png,0,51,51,31,,,None,None,2,1.86631417444,None,None,None,None,None,None,2,1.18334803031,,['return'],[0.6332121968771389],2017_Mrz_01_1642,60.0351457636,famFaceFilter,001,27,
58,./img/edges5_HughLaurie(DrHouse)5_3.png,0,52,52,57,,,None,None,2,1.61635371033,None,None,None,None,None,None,3,0.850016728571,,['return'],[0.8836220709345071],2017_Mrz_01_1642,60.0351457636,famFaceFilter,001,27,
51,./img/edges5_Ice-T(OdafinFinTutuola)6_1.png,0,53,53,50,,,None,None,2,1.54971304806,None,None,None,None,None,None,2,0.41681697788,,['return'],[0.31696264315905864],2017_Mrz_01_1642,60.0351457636,famFaceFilter,001,27,
52,./img/edges5_BarackObama4_1.png,0,54,54,51,,,None,None,1,1.8830385758,None,None,None,None,None,None,4,1.94958909945,Barrack Obama,"['lshift', 'b', 'a', 'r', 'r', 'a', 'c', 'k', 'space', 'lshift', 'o', 'b', 'a', 'm', 'a', 'return']","[0.33345832981649437, 0.43361612050466647, 0.6000174503205926, 0.7833828026432457, 0.916690110188938, 1.0000625517041044, 1.1665758330345852, 1.2500040899176383, 1.3997422869724687, 1.7164130221735832, 1.8495984340897849, 2.049572066140172, 2.182799820748187, 2.2992056574967137, 2.366048089108517, 2.5827252719464013]",2017_Mrz_01_1642,60.0351457636,famFaceFilter,001,27,
7,./img/edges5_AngelaMerkel3_1.png,0,55,55,6,,,None,None,1,1.21650652895,None,None,None,None,None,None,4,4.78174555185,Angela Merkel,"['lshift', 'a', 'n', 'g', 'e', 'l', 'a', 'space', 'lshift', 'm', 'e', 'r', 'k', 'e', 'l', 'return']","[0.3502690204495593, 0.38372840883494064, 0.6335897525550536, 0.8000786547600001, 0.9333526013979281, 1.0667012893027277, 1.166643837967058, 1.2666466928912996, 1.3832318445274723, 1.4999254191207, 1.5832397998219676, 1.6495587217777938, 1.7497550058214983, 1.8830860509388003, 2.0329714850831806, 2.282933553087787]",2017_Mrz_01_1642,60.0351457636,famFaceFilter,001,27,
26,./img/edges5_NicoleKidman7_1.png,0,56,56,25,,,None,None,1,5.18162352791,None,None,None,None,None,None,1,1.81616310405,Kim Basinger,"['lshift', 'k', 'i', 'm', 'space', 'lshift', 'b', 'a', 's', 'i', 'n', 'g', 'e', 'r', 'return']","[0.40011823876193375, 0.550268314738787, 0.7166850418980175, 0.8333667477054405, 0.9334039258737903, 1.0332319568005914, 1.0999319629918318, 1.2832876919728733, 1.466479182632611, 1.5498189047939377, 1.666342467058712, 1.7664399514851539, 1.93321819542507, 2.01616721001119, 2.1161982933972467]",2017_Mrz_01_1642,60.0351457636,famFaceFilter,001,27,
40,./img/edges5_NicoleKidman3_1.png,0,57,57,39,,,None,None,1,1.9662961788,None,None,None,None,None,None,1,0.633347244404,Kim Basinger,"['lshift', 'k', 'i', 'm', 'space', 'lshift', 'b', 'a', 's', 'i', 'n', 'g', 'e', 'r', 'return']","[0.26685776480007917, 0.40007653762404516, 0.5835156688808638, 0.6668018211203162, 0.7501938300920301, 0.8166917461585399, 1.0833743661823974, 1.2332142498562462, 1.433032304586959, 1.4998975114358473, 1.5997386942599405, 1.6829363117776666, 1.833120710996809, 1.9328409605241177, 2.0328640244606504]",2017_Mrz_01_1642,60.0351457636,famFaceFilter,001,27,
50,./img/edges5_WillSmith5_1.png,0,58,58,49,,,None,None,1,1.24991715909,None,None,None,None,None,None,1,0.433432635502,Will Smith,"['lshift', 'w', 'i', 'l', 'l', 'space', 'lshift', 's', 'm', 'i', 't', 'h', 'return']","[0.2835427104637347, 0.5832728399527696, 0.7833103068205673, 0.9333679987394135, 1.0832595276660868, 1.2000220695244934, 1.31640769725891, 1.3831144397881872, 1.5831015445128287, 1.7326325189951604, 1.783004284630806, 1.9497193353090552, 2.199403930362678]",2017_Mrz_01_1642,60.0351457636,famFaceFilter,001,27,
16,./img/edges5_BritneySpears7_1.png,0,59,59,15,,,None,None,1,1.78253851501,None,None,None,None,None,None,2,0.567256716367,Britney Spears,"['lshift', 'b', 'r', 'n', 'backspace', 'i', 't', 'n', 'e', 'y', 'space', 'lshift', 's', 'p', 'e', 'a', 'r', 's', 'return']","[0.4001378062184813, 0.6502426204224321, 0.8500122376790387, 1.1667076727844687, 1.649787436474071, 1.8662256397183228, 2.1161662155991507, 2.3325784358294186, 2.4660666621548444, 2.6327704856030323, 2.765822774657863, 2.8825618997234415, 2.932516653991115, 3.149186458935219, 3.299011586821507, 3.5487783010376006, 3.6822864155983552, 3.882232781519633, 4.448591319554907]",2017_Mrz_01_1642,60.0351457636,famFaceFilter,001,27,
57,./img/edges5_BritneySpears5_1.png,0,60,60,56,,,None,None,1,1.39970828451,None,None,None,None,None,None,2,1.11679654432,Britney Spears,"['lshift', 'b', 'r', 'i', 't', 'n', 'e', 'y', 'space', 'lshift', 's', 'p', 'e', 'a', 'r', 's', 'return']","[0.4502375521315116, 0.5000184447344509, 0.6835669612810307, 0.8499756689907372, 1.0332637138199061, 1.3165004020956985, 1.4832635694692726, 1.6665256312826386, 1.7662904689495917, 1.8995227144496312, 1.91633019730034, 2.1828136142030417, 2.316200153909449, 2.499209763454928, 2.5826322463344695, 2.765745467166198, 2.932643682070193]",2017_Mrz_01_1642,60.0351457636,famFaceFilter,001,27,
3,./img/edges5_NicoleKidman5_1.png,0,61,61,2,,,None,None,1,1.21657549622,None,None,None,None,None,None,1,0.483635351144,Kim Basinger,"['lshift', 'k', 'i', 'm', 'space', 'lshift', 'b', 'a', 's', 'i', 'n', 'g', 'e', 'r', 'return']","[0.3669578154513147, 0.7668659446389938, 0.950012847159087, 1.0332771864959795, 1.133461280975098, 1.2332854625674372, 1.2999193884952547, 1.4332263752639847, 1.6166167482679157, 1.7330777588267665, 1.8330501398431807, 1.9164623578271858, 2.099704531407042, 2.182776724735959, 2.2828135821255273]",2017_Mrz_01_1642,60.0351457636,famFaceFilter,001,27,
56,./img/edges5_NeilPatrickHarris(Barney)1_1.png,0,62,62,55,,,None,None,2,1.83288750541,None,None,None,None,None,None,3,1.3998452567,,['return'],[0.3337239339816733],2017_Mrz_01_1642,60.0351457636,famFaceFilter,001,27,
36,./img/edges5_AngelaMerkel1_1.png,0,63,63,35,,,None,None,1,0.849992028667,None,None,None,None,None,None,4,1.34958448025,Angela Merkel,"['lshift', 'a', 'n', 'g', 'e', 'l', 'a', 'space', 'lshift', 'm', 'e', 'r', 'k', 'e', 'l', 'return']","[0.30014329152254504, 0.38350771358818747, 0.6167206803311274, 0.7000260792501649, 0.8331550342409173, 0.9333878869747423, 1.0666400207101105, 1.1500021973297407, 1.233051615421573, 1.2997856240781402, 1.3831519708128326, 1.433159653444818, 1.566131748006228, 1.6495760437883291, 1.7662692976027756, 2.016148284110386]",2017_Mrz_01_1642,60.0351457636,famFaceFilter,001,27,
22,./img/edges5_JasonSegel(Marshall)6_1.png,0,64,64,21,,,None,None,1,1.8329109222,None,None,None,None,None,None,1,0.783323779495,American Pie,"['lshift', 'a', 'm', 'e', 'r', 'i', 'c', 'a', 'n', 'space', 'lshift', 'p', 'i', 'e', 'return']","[0.7333975744695636, 1.1832303047940513, 1.3831372150252719, 1.4998285441706685, 1.6830813034230232, 1.9163818425549835, 2.082941957471121, 2.5494195362134633, 2.715996010805611, 2.882265821652254, 2.9658114832745923, 3.4490397671670507, 3.6989258107896603, 3.832163188737468, 3.998813121486819]",2017_Mrz_01_1642,60.0351457636,famFaceFilter,001,27,
11,./img/edges5_RobertSeanLeonard(Wilson)1_1.png,0,65,65,10,,,None,None,2,2.0493032542,None,None,None,None,None,None,3,1.11635034216,,['return'],[0.3170713868930761],2017_Mrz_01_1642,60.0351457636,famFaceFilter,001,27,
9,./img/edges5_RobertSeanLeonard(Wilson)8_1.png,0,66,66,8,,,None,None,2,2.04936997602,None,None,None,None,None,None,3,0.650231072415,,['return'],[0.11737683168212243],2017_Mrz_01_1642,60.0351457636,famFaceFilter,001,27,
4,./img/edges5_LeonardoDiCaprio1_1.png,0,67,67,3,,,None,None,1,0.866586194164,None,None,None,None,None,None,1,0.43356447525,Leonardo Di Caprio,"['lshift', 'd', 'backspace', 'lshift', 'l', 'e', 'o', 'n', 'a', 'r', 'd', 'o', 'space', 'lshift', 'd', 'i', 'space', 'lshift', 'c', 'a', 'p', 'r', 'i', 'o', 'return']","[0.2835930726087099, 0.4170363900175289, 0.8168271144641039, 0.9832996569930401, 1.1334240707310528, 1.3000348685673089, 1.499825015614988, 1.7497469863719743, 1.8996632152029633, 1.9996493896724132, 2.1828415218860755, 2.2827686732089205, 2.416229633405237, 2.5494506516770343, 2.6158706186943164, 2.7994403065877123, 2.9492728123677807, 3.0318875763023243, 3.0988682632214477, 3.4990474497990363, 3.8981776923938014, 4.06548971088705, 4.182142546676914, 4.515323724323025, 4.781857824144026]",2017_Mrz_01_1642,60.0351457636,famFaceFilter,001,27,
39,./img/edges5_AlysonHannigan(Lily)8_3.png,0,68,68,38,,,None,None,2,2.18296566296,None,None,None,None,None,None,1,0.550123964649,,['return'],[0.3168834110001626],2017_Mrz_01_1642,60.0351457636,famFaceFilter,001,27,
29,./img/edges5_TomCruise4_1.png,0,69,69,28,,,None,None,1,1.71648102711,None,None,None,None,None,None,1,0.599938538939,Scientology,"['lshift', 's', 'c', 'i', 'e', 'n', 't', 'o', 'l', 'o', 'g', 'y', 'return']","[0.2502876576490962, 0.3336196811396803, 0.5503584533489629, 0.6834213280781114, 0.8000270095053565, 0.9333753766331938, 1.1164860312419478, 1.2499909380221652, 1.433195580577376, 1.5830835809465498, 1.6664893833712995, 1.8331672238036845, 1.9330119351852773]",2017_Mrz_01_1642,60.0351457636,famFaceFilter,001,27,
65,./img/edges5_LisaEdelstein(DrLisaCuddy)1_1.png,0,70,70,64,,,None,None,2,1.64968895764,None,None,None,None,None,None,1,0.433473374305,,['return'],[0.4502176638961828],2017_Mrz_01_1642,60.0351457636,famFaceFilter,001,27,
49,./img/edges5_RobertSeanLeonard(Wilson)2_6.png,0,71,71,48,,,None,None,2,1.2331917954,None,None,None,None,None,None,3,0.70012423731,,['return'],[0.3331173428287002],2017_Mrz_01_1642,60.0351457636,famFaceFilter,001,27,
71,./img/gray_BritneySpears7_1.png,0,0,0,70,,,None,None,1,1.01678149984,None,None,None,None,None,None,2,1.49962324627,Britney Spears,"['lshift', 'b', 'r', 't', 'n', 'backspace', 'backspace', 'i', 't', 'n', 'e', 'y', 'space', 'lshift', 's', 'p', 'e', 'a', 'r', 's', 'return']","[0.4500736345835321, 0.5334778331180132, 0.7334241990411101, 1.0499082414589793, 1.3163287858769763, 1.7330553043684631, 1.8497042908220465, 2.0660773761392193, 2.182889317804438, 2.3493762953403348, 2.465949898971303, 2.6493165344036242, 2.7492690271865285, 2.849124645019401, 2.915942376726889, 3.1490424296225683, 3.249056511776871, 3.915487192778528, 4.015817562016309, 4.348687585024891, 4.448657079039549]",2017_Mrz_01_1642,60.0351457636,famFaceFilter,001,27,
52,./img/gray_EmilyDeschanel5_1.png,0,1,1,51,,,None,None,2,1.55000206902,None,None,None,None,None,None,1,0.766736991893,,['return'],[0.36668611650566163],2017_Mrz_01_1642,60.0351457636,famFaceFilter,001,27,
36,./img/gray_TomCruise5_1.png,0,2,2,35,,,None,None,1,1.26658670741,None,None,None,None,None,None,1,1.36634673341,Scientology,"['lshift', 's', 'c', 'i', 'e', 'n', 't', 'o', 'l', 'o', 'g', 'y', 'return']","[0.4668445487459394, 0.5501958189142897, 0.7668284136143484, 1.0000468335838377, 1.1498292979995313, 1.2828870402809116, 1.4997996741531097, 1.6330110690851143, 1.7996401512646116, 1.999638162442352, 2.1160885873287043, 2.2995049433484382, 2.4161917816036294]",2017_Mrz_01_1642,60.0351457636,famFaceFilter,001,27,
72,./img/gray_WillSmith4_1.png,0,3,3,71,,,None,None,1,1.0992647448,None,None,None,None,None,None,1,0.483767190892,Will Smith,"['lshift', 'w', 'i', 'l', 'l', 'space', 'lshift', 's', 'm', 'i', 't', 'h', 'return']","[0.21694278700306313, 0.4000566493905353, 0.6336737963847554, 0.7997684624569956, 0.9500372262846213, 1.0834118972052238, 1.182963417517385, 1.2333377493760054, 1.4165831307345798, 1.5832426868237235, 1.6830476217364776, 1.8498996446105593, 2.116307999465789]",2017_Mrz_01_1642,60.0351457636,famFaceFilter,001,27,
24,./img/gray_JoachimLoew1_1.png,0,4,4,23,,,None,None,1,1.00021235502,None,None,None,None,None,None,5,1.13322101827,Joachim Löw,"['lshift', 'j', 'o', 'a', 'c', 'h', 'i', 'm', 'space', 'lshift', 'l', u'\xf6', 'w', 'return']","[0.483575686441327, 0.7668588875221758, 0.9333198820440884, 1.0835296227232902, 1.249905611080976, 1.3166755468701012, 1.4665693212427868, 1.5499943703471217, 1.6499786201475217, 1.7330735887135233, 1.84992338218035, 2.0497632498154417, 2.149618546869533, 2.3163056898629293]",2017_Mrz_01_1642,60.0351457636,famFaceFilter,001,27,
55,./img/gray_Ice-T(OdafinFinTutuola)6_1.png,0,5,5,54,,,None,None,2,1.166512319,None,None,None,None,None,None,2,0.400207415039,,['return'],[0.45014805507526034],2017_Mrz_01_1642,60.0351457636,famFaceFilter,001,27,
43,./img/gray_LisaEdelstein(DrLisaCuddy)6_3.png,0,6,6,42,,,None,None,2,1.71633346924,None,None,None,None,None,None,4,3.88187254785,,['return'],[0.5002413854272163],2017_Mrz_01_1642,60.0351457636,famFaceFilter,001,27,
3,./img/gray_KatjaBurkard1_1.png,0,7,7,2,,,None,None,1,1.38303103751,None,None,None,None,None,None,3,1.23302627396,Katja Burkhard,"['lshift', 'k', 'a', 't', 'j', 'a', 'space', 'lshift', 'b', 'u', 'r', 'k', 'h', 'a', 'r', 'd', 'return']","[0.3334301013546792, 0.46690325111558195, 0.6001300433908909, 0.7830742142286908, 0.8833308045323065, 1.0665004822894844, 1.1833858821119065, 1.2994622798778437, 1.3998141412394034, 1.6330867726865108, 1.7662163692348258, 2.0828081930540066, 2.3327506936020654, 2.416124418228719, 2.566009210817356, 2.715995048471086, 2.765971936416463]",2017_Mrz_01_1642,60.0351457636,famFaceFilter,001,27,
61,./img/gray_AlysonHannigan(Lily)8_3.png,0,8,8,60,,,None,None,2,2.23279435148,None,None,None,None,None,None,1,0.566712035366,,['return'],[0.4668387747442466],2017_Mrz_01_1642,60.0351457636,famFaceFilter,001,27,
1,./img/gray_JoachimLoew8_1.png,0,9,9,0,,,None,None,1,4.04905946293,None,None,None,None,None,None,5,1.31648211775,Joachim Löw,"['lshift', 'j', 'o', 'a', 'c', 'h', 'i', 'm', 'space', 'lshift', 'l', u'\xf6', 'w', 'return']","[0.1834943050671427, 0.36690905719842704, 0.5501156244208687, 0.6999952845635562, 0.8667218832488288, 0.9666349203398568, 1.0666820426231425, 1.1831254103944957, 1.2831943455821602, 1.316394545363437, 1.4497490072717483, 1.6495260024221352, 1.749629260853908, 1.899537470235373]",2017_Mrz_01_1642,60.0351457636,famFaceFilter,001,27,
56,./img/gray_GuentherJauch2_1.png,0,10,10,55,,,None,None,1,2.54930630159,None,None,None,None,None,None,3,1.81631868137,Günther Jauch,"['lshift', 'g', u'\xfc', 'n', 't', 'h', 'e', 'r', 'space', 'lshift', 'j', 'a', 'u', 'c', 'h', 'return']","[0.3837085205996118, 0.5168480612646817, 0.7335271687716158, 0.8833641654418898, 0.9832265196127992, 1.1332733050803654, 1.2332777638948755, 1.3163348806592694, 1.3997522310910426, 1.4997621431302832, 1.5998512873302388, 1.7161333037784061, 1.7996125643585401, 1.8993475696734095, 2.01632374966357, 2.482712793684186]",2017_Mrz_01_1642,60.0351457636,famFaceFilter,001,27,
48,./img/gray_LeonardoDiCaprio2_1.png,0,11,11,47,,,None,None,1,1.09990084753,None,None,None,None,None,None,1,1.13331564778,Leonardo Di Caprio,"['lshift', 'l', 'o', 'backspace', 'e', 'o', 'n', 'o', 'a', 'backspace', 'backspace', 'a', 'r', 'd', 'o', 'space', 'lshift', 'd', 'i', 'space', 'lshift', 'b', 'a', 'p', 'backspace', 'backspace', 'backspace', 'lshift', 'c', 'a', 'p', 'r', 'i', 'o', 'return']","[0.26683819734353165, 0.46689555244665826, 0.916464603273198, 1.41642498719375, 1.4831282011637086, 1.6663482410622237, 1.8997337863584107, 2.0497141707855917, 2.3495633089023613, 2.765964879303283, 2.88256542828276, 2.948918031925132, 3.099265707134691, 3.2657514015591005, 3.41568238617765, 3.565744889767302, 3.7155273541829956, 3.815520906544407, 4.0322186191733635, 4.148687328404776, 4.2820559045449045, 4.365416798053047, 4.565235494341323, 4.698479287848386, 5.031668484944021, 5.181676777054236, 5.314972215815942, 5.431342446208873, 5.48156697475315, 5.798193763370364, 6.14786902378728, 6.380863219950697, 6.597657807527867, 6.814335952700276, 7.1307282526177005]",2017_Mrz_01_1642,60.0351457636,famFaceFilter,001,27,
23,./img/gray_TomCruise4_1.png,0,12,12,22,,,None,None,1,5.38156636527,None,None,None,None,None,None,1,0.816466239241,Scientology,"['lshift', 's', 'c', 'i', 'e', 'n', 't', 'l', 'backspace', 'o', 'o', 'backspace', 'l', 'o', 'g', 'y', 'return']","[0.6001675744155364, 0.666868863718264, 0.8666843522260024, 1.0164433998488676, 1.1830330263383075, 1.2831552106708841, 1.4830871415833826, 1.7662879027247982, 2.1162739970004623, 2.3662620480208716, 2.7492459311724815, 3.0990937701390067, 3.6654831028608896, 3.8822924462256196, 4.065290828541038, 4.282009070961067, 4.5152246039288]",2017_Mrz_01_1642,60.0351457636,famFaceFilter,001,27,
8,./img/gray_BastianSchweinsteiger6_2.png,0,13,13,7,,,None,None,1,1.46653339411,None,None,None,None,None,None,5,1.88296447608,Bastian Schweinsteiger,"['lshift', 'b', 'a', 's', 't', 'i', 'a', 'n', 'space', 'lshift', 's', 'c', 'h', 'w', 'i', 'n', 'backspace', 'backspace', 'e', 'i', 'n', 's', 't', 'e', 'i', 'g', 'e', 'r', 'return']","[0.35027286978584016, 0.49995653458427114, 0.6500206420623726, 0.8661820139150223, 0.9332691991221509, 1.099812954362278, 1.2331035814531788, 1.3329588785090891, 1.4664179140381748, 1.5663585380352743, 1.6162202666873782, 1.7829754146132473, 1.866205751484813, 1.982847360044616, 2.1326737710423913, 2.232876470645351, 2.799187212762263, 2.932295958742543, 3.015842261920625, 3.1991242119675007, 3.282377324076151, 3.7487233838473912, 3.9654797988459904, 4.148529184860308, 4.298402750220703, 4.448495727718182, 4.648431187189999, 4.7152004814233806, 4.815109348399346]",2017_Mrz_01_1642,60.0351457636,famFaceFilter,001,27,
57,./img/gray_UrsulavonderLeyen5_1.png,0,14,14,56,,,None,None,1,1.61642171526,None,None,None,None,None,None,4,1.19973336935,Ursula von der Leyen,"['lshift', 'u', 'r', 's', 'u', 'l', 'a', 'space', 'v', 'o', 'n', 'space', 'd', 'e', 'r', 'space', 'lshift', 'l', 'e', 'y', 'e', 'n', 'return']","[0.333611340913194, 0.583574050473544, 0.7499904568558122, 1.216600837680744, 1.416640549994554, 1.61650287208613, 1.7497440993702185, 1.8996677060949878, 2.1163804952884675, 2.316217155143022, 3.049156017106725, 3.1823504108051566, 3.282472595135914, 3.465692314257467, 3.515669522981625, 3.5823778693993518, 3.6822145613314206, 3.8155407947797357, 3.948842007544954, 4.115448635266148, 4.332054926171622, 4.415047566562862, 4.698624921049486]",2017_Mrz_01_1642,60.0351457636,famFaceFilter,001,27,
32,./img/gray_MariskaHargitay(Liv)6_5.png,0,15,15,31,,,None,None,1,2.76593793395,None,None,None,None,None,None,3,1.16665538597,ZDf,"['lshift', 'z', 'd', 'f', 'backspace', 'backspace', 'lshift', 'd', 'f', 'return']","[0.23368418959216797, 0.45025070402880374, 0.6169006367763359, 0.8000959767705353, 1.4332475466108008, 1.5831952116841421, 1.7330729471577797, 1.833036346390145, 2.0495492909049062, 2.3995876719891385]",2017_Mrz_01_1642,60.0351457636,famFaceFilter,001,27,
44,./img/gray_BritneySpears5_1.png,0,16,16,43,,,None,None,1,1.58310186529,None,None,None,None,None,None,2,0.466574774469,Britney Spears,"['lshift', 'b', 'r', 'i', 'n', 't', 'e', 'backspace', 'backspace', 'backspace', 't', 'n', 'e', 'y', 'space', 'lshift', 's', 'p', 'e', 'a', 'r', 's', 'return']","[0.36712879011247423, 0.45031325573290815, 0.6669702295585012, 0.8834289625956444, 1.1166072853175137, 1.2667868728676694, 1.516635706246234, 1.7999288514456566, 1.933203118860547, 2.067043238626866, 2.166365081906406, 2.3494491119436134, 2.4327708705368423, 2.599394178714647, 2.7161076415413845, 2.8160848342267855, 2.8827306289404078, 3.132634315352334, 3.265950283905113, 3.449280671427914, 3.5325511055452807, 3.699133033363978, 3.882247537307194]",2017_Mrz_01_1642,60.0351457636,famFaceFilter,001,27,
66,./img/gray_NeilPatrickHarris(Barney)3_7.png,0,17,17,65,,,None,None,2,1.64973354578,None,None,None,None,None,None,3,0.649944938461,,['return'],[0.6502185620738601],2017_Mrz_01_1642,60.0351457636,famFaceFilter,001,27,
16,./img/gray_JoshRadnor(Ted)1_2.png,0,18,18,15,,,None,None,2,1.61645571772,None,None,None,None,None,None,3,0.333578621559,,['return'],[0.16702395986976626],2017_Mrz_01_1642,60.0351457636,famFaceFilter,001,27,
10,./img/gray_HughLaurie(DrHouse)2_1.png,0,19,19,9,,,None,None,2,1.2663348967,None,None,None,None,None,None,3,0.316732003796,,['return'],[0.2004342692252976],2017_Mrz_01_1642,60.0351457636,famFaceFilter,001,27,
70,./img/gray_WillSmith5_1.png,0,20,20,69,,,None,None,1,0.916567893781,None,None,None,None,None,None,1,0.60022371056,Will Smith,"['lshift', 'w', 'i', 'l', 'l', 'space', 'lshift', 's', 'm', 'i', 't', 'h', 'return']","[0.2835908271608787, 0.3669273415434873, 0.5665333620327146, 0.7334081601420621, 0.8501094334060326, 1.1998931167781848, 1.29976733973308, 1.3996556769197923, 1.616456680056217, 1.783036362428902, 1.882583391849039, 2.0828389877406153, 2.5494237063267065]",2017_Mrz_01_1642,60.0351457636,famFaceFilter,001,27,
38,./img/gray_MariskaHargitay(Liv)4_4.png,0,21,21,37,,,None,None,2,1.49978042748,None,None,None,None,None,None,1,0.866471997206,,['return'],[0.4001929800306243],2017_Mrz_01_1642,60.0351457636,famFaceFilter,001,27,
50,./img/gray_BastianSchweinsteiger3_1.png,0,22,22,49,,,None,None,1,0.866711297575,None,None,None,None,None,None,5,1.01639881171,Bastian Schweinsteiger,"['lshift', 'b', 'a', 's', 't', 'i', 'a', 'n', 'space', 'lshift', 's', 'c', 'h', 'w', 'e', 'i', 'n', 's', 't', 'e', 'i', 'g', 'e', 'r', 'return']","[0.166990598958364, 0.2504223844007356, 0.4169860278725537, 0.6167963839325239, 0.7335294142176281, 0.8834039419107285, 1.034711064048679, 1.1332681726325973, 1.2497869232283847, 1.3163884505811438, 1.3665016691684286, 1.5662667955330107, 1.649635066934934, 1.7663526998749148, 1.9163888996699825, 2.0494662094079104, 2.1495880729617056, 2.399172264509616, 2.6159851364318456, 3.049214077918805, 3.248981449729399, 3.39897274060786, 3.5988376289242296, 3.66543017449294, 3.7488019744523626]",2017_Mrz_01_1642,60.0351457636,famFaceFilter,001,27,
33,./img/gray_KatjaBurkard4_1.png,0,23,23,32,,,None,None,1,1.13329960887,None,None,None,None,None,None,3,1.06634747119,Katja Burkhard,"['lshift', 'k', 'a', 't', 'j', 'a', 'space', 'lshift', 'b', 'u', 'r', 'k', 'h', 'a', 'r', 'd', 'return']","[0.2837165721284691, 0.41676597418154415, 0.5335631600610213, 0.7334232367084041, 0.8333234426791023, 0.9833994189430086, 1.1332200559372723, 1.2665610451713292, 1.4165664502797881, 1.5827576705232786, 1.6664053395415976, 1.9663135008067911, 2.232904378330204, 2.365962762167328, 2.4494022462804423, 2.6160239505661593, 2.7160043510320975]",2017_Mrz_01_1642,60.0351457636,famFaceFilter,001,27,
67,./img/gray_AngelaMerkel4_1.png,0,24,24,66,,,None,None,1,0.916689468635,None,None,None,None,None,None,4,1.23324761077,Angela Merkel,"['lshift', 'a', 'n', 'g', 'e', 'l', 'a', 'space', 'lshift', 'm', 'e', 'r', 'k', 'e', 'l', 'return']","[0.3501936376251251, 0.4002276240516949, 0.6668021418972785, 1.133360235911823, 1.333218387890156, 1.4331901273508265, 1.566407296286343, 1.6998974472808186, 1.832815971920354, 1.916354255648912, 1.999790531981489, 2.04953710134032, 2.18298426808542, 2.282771239430076, 2.3828789887538733, 2.649429769029666]",2017_Mrz_01_1642,60.0351457636,famFaceFilter,001,27,
25,./img/gray_MariskaHargitay(Liv)8_8.png,0,25,25,24,,,None,None,1,2.79917117387,None,None,None,None,None,None,3,1.8496420599,ZDf,"['lshift', 'z', 'd', 'f', 'backspace', 'backspace', 'lshift', 'd', 'f', 'return']","[0.5669930368712812, 1.3168125190659339, 1.633257426570708, 1.8498884173804981, 2.432948902313001, 2.566207772386406, 2.6994409802191512, 2.7829574510469683, 3.049460756181361, 3.8990848525099864]",2017_Mrz_01_1642,60.0351457636,famFaceFilter,001,27,
59,./img/gray_AlysonHannigan(Lily)5_4.png,0,26,26,58,,,None,None,2,2.79939571845,None,None,None,None,None,None,1,0.400260664182,,['return'],[0.6667623654302588],2017_Mrz_01_1642,60.0351457636,famFaceFilter,001,27,
6,./img/gray_NicoleKidman3_1.png,0,27,27,5,,,None,None,1,1.63296648095,None,None,None,None,None,None,1,0.599929877935,Kim Basinger,"['lshift', 'k', 'i', 'm', 'space', 'lshift', 'b', 'a', 's', 'i', 'n', 'g', 'e', 'r', 'return']","[0.416969347419581, 0.5835843153690803, 0.7668325837294105, 0.8834677767299581, 0.9835707143829495, 1.0833445338321326, 1.1333884643754573, 1.3165613499113533, 1.5164416355710273, 1.6163392753187509, 1.7331669351060555, 1.8497803152040433, 2.0159680068882153, 2.0996240161348396, 2.232752971127411]",2017_Mrz_01_1642,60.0351457636,famFaceFilter,001,27,
12,./img/gray_BarackObama2_1.png,0,28,28,11,,,None,None,2,2.28291719341,None,None,None,None,None,None,4,1.19993834647,Barrack Obama,"['lshift', 'b', 'a', 'r', 'r', 'a', 'c', 'k', 'space', 'lshift', 'o', 'b', 'a', 'm', 'a', 'return']","[0.2336158638827328, 0.33364277715554636, 0.5168477404877194, 0.716776784400281, 0.83319384837705, 0.9499544655664067, 1.0997590636616223, 1.2000150124094944, 1.3495527232280438, 1.4331497093280632, 1.932946496479417, 2.132819725022273, 2.2328437512933306, 2.3494452626073326, 2.4661718773313623, 2.682689954292073]",2017_Mrz_01_1642,60.0351457636,famFaceFilter,001,27,
60,./img/gray_EmilyDeschanel3_1.png,0,29,29,59,,,None,None,2,3.54891110312,None,None,None,None,None,None,1,0.399961057554,,['return'],[0.367078427969318],2017_Mrz_01_1642,60.0351457636,famFaceFilter,001,27,
7,./img/gray_OmarEpps(DrEricForeman)1_5.png,0,30,30,6,,,None,None,2,1.0162387435,None,None,None,None,None,None,2,0.467283052241,,['return'],[0.3000428880150139],2017_Mrz_01_1642,60.0351457636,famFaceFilter,001,27,
42,./img/gray_NicoleKidman5_1.png,0,31,31,41,,,None,None,1,1.48309644414,None,None,None,None,None,None,1,0.466814395617,Kim Basinger,"['lshift', 'k', 'i', 'm', 'space', 'lshift', 'b', 'a', 's', 'i', 'n', 'g', 'e', 'r', 'return']","[0.41677078585234995, 0.5500707155060809, 0.7500668020147714, 0.8500975646220468, 0.9667914599922369, 1.0332973955082707, 1.116697744706471, 1.266234172413533, 1.4830492897817749, 1.6331364932739234, 1.7662808456097991, 1.8996641775374883, 2.0662291041226126, 2.1160885873287043, 2.2828248093537695]",2017_Mrz_01_1642,60.0351457636,famFaceFilter,001,27,
18,./img/gray_JasonSegel(Marshall)7_1.png,0,32,32,17,,,None,None,1,1.48320101777,None,None,None,None,None,None,1,0.316933452363,American Pie,"['lshift', 'a', 'e', 'r', 'backspace', 'backspace', 'm', 'e', 'r', 'i', 'c', 'a', 'n', 'lshift', 'p', 'backspace', 'space', 'lshift', 'p', 'i', 'e', 'return']","[0.3503925199711375, 0.616985001383, 0.9168787276394141, 1.1168918153816776, 1.516607798561381, 1.6665156871658837, 1.8831893414462684, 2.049739512243832, 2.1996932720994664, 2.432988999560621, 2.7828355554156587, 2.94921603466355, 3.0659843505254685, 4.08227923017148, 4.615353203816994, 5.031908106091578, 5.39810279073572, 5.565002930306946, 5.664968895762286, 5.864802668615084, 5.964823487105605, 6.131233157151655]",2017_Mrz_01_1642,60.0351457636,famFaceFilter,001,27,
41,./img/gray_RobertSeanLeonard(Wilson)1_1.png,0,33,33,40,,,None,None,2,1.18307344436,None,None,None,None,None,None,3,0.416603339747,,['return'],[0.3834599176680058],2017_Mrz_01_1642,60.0351457636,famFaceFilter,001,27,
68,./img/gray_Ice-T(OdafinFinTutuola)7_1.png,0,34,34,67,,,None,None,2,0.833278854541,None,None,None,None,None,None,2,0.533594275525,,['return'],[0.43359142060035083],2017_Mrz_01_1642,60.0351457636,famFaceFilter,001,27,
35,./img/gray_JoachimLoew4_1.png,0,35,35,34,,,None,None,1,1.01666024576,None,None,None,None,None,None,5,0.949870421737,Joachim Löw,"['lshift', 'j', 'o', 'a', 'c', 'h', 'i', 'm', 'space', 'lshift', 'l', u'\xf6', 'w', 'return']","[0.2002623322296131, 0.3167194934521831, 0.4667066142174008, 0.5833751681275317, 0.7499612660594721, 0.8333051583340421, 0.9499422760036396, 1.0498238768523152, 1.1665370189002715, 1.249177765852437, 1.3498593869735487, 1.5497656556490256, 1.6494451663729706, 1.8161797845077672]",2017_Mrz_01_1642,60.0351457636,famFaceFilter,001,27,
26,./img/gray_BarackObama1_3.png,0,36,36,25,,,None,None,1,1.18325853326,None,None,None,None,None,None,4,1.18319886855, Barrack Obama,"['space', 'lshift', 'b', 'a', 'r', 'r', 'a', 'c', 'k', 'space', 'lshift', 'o', 'b', 'a', 'm', 'a', 'return']","[0.1833820327756257, 0.33363604081750964, 0.40027060830107075, 0.5832256855901505, 0.9499980913715262, 1.0999258682095387, 1.2165985922329128, 1.3997108507319354, 1.4832241137792153, 1.6163251610869338, 2.032932670948867, 2.182845050443575, 2.3660063879724476, 2.5493104717006645, 2.6491356156257098, 2.732677107134805, 2.9492907759322406]",2017_Mrz_01_1642,60.0351457636,famFaceFilter,001,27,
69,./img/gray_OmarEpps(DrEricForeman)3_1.png,0,37,37,68,,,None,None,2,0.983321790673,None,None,None,None,None,None,2,0.533431320313,,['return'],[0.48332836662120826],2017_Mrz_01_1642,60.0351457636,famFaceFilter,001,27,
51,./img/gray_AlysonHannigan(Lily)1_1.png,0,38,38,50,,,None,None,2,1.06655212754,None,None,None,None,None,None,1,0.250304658883,,['return'],[0.3504162575427472],2017_Mrz_01_1642,60.0351457636,famFaceFilter,001,27,
39,./img/gray_UrsulavonderLeyen1_1.png,0,39,39,38,,,None,None,1,1.16662940296,None,None,None,None,None,None,4,0.883358712217,Ursula von der Leyen,"['lshift', 'u', 'r', 's', 'u', 'l', 'a', 'space', 'lshift', 'v', 'o', 'n', 'space', 'backspace', 'backspace', 'backspace', 'backspace', 'v', 'o', 'n', 'space', 'd', 'e', 'r', 'space', 'lshift', 'l', 'e', 'y', 'e', 'n', 'return']","[0.23356036929180846, 0.40022281238270807, 0.5500857920706039, 0.8166936708257708, 1.0833746869611787, 1.3832023329541698, 1.4998458661830227, 1.6329735380622878, 1.7495420092436689, 2.2323433376495814, 2.3826348767142917, 2.4826059746192186, 2.599512545786638, 2.9492003165432834, 3.1990587732616405, 3.3489920033262024, 3.4823541639070754, 3.582392945963875, 3.748877357276797, 3.8821131313361548, 4.0154730464710156, 4.115239488026418, 4.315133246360347, 4.382055551688609, 4.431987530719198, 4.5317629540568305, 4.681804286299666, 4.765253072973792, 5.264678399227705, 5.44834432051357, 5.581438631485071, 5.864697453440385]",2017_Mrz_01_1642,60.0351457636,famFaceFilter,001,27,
37,./img/gray_TomCruise1_1.png,0,40,40,36,,,None,None,1,1.69968477148,None,None,None,None,None,None,1,0.383568982181,Scientology,"['lshift', 's', 'c', 'i', 'e', 'n', 't', 'o', 'l', 'o', 'g', 'y', 'return']","[0.4173234863046673, 0.4838521970559668, 0.6837931097525143, 0.8005261400376185, 0.9170131336122722, 1.0337573911256186, 1.2336415261197544, 1.35024560365855, 1.5168939325158135, 1.6830864358707913, 1.8001761712639563, 1.9500577560738748, 2.0667003269682027]",2017_Mrz_01_1642,60.0351457636,famFaceFilter,001,27,
30,./img/gray_BarackObama4_1.png,0,41,41,29,,,None,None,1,1.14993290929,None,None,None,None,None,None,4,1.03457537497,Barrack Obama,"['lshift', 'b', 'a', 'r', 'r', 'a', 'c', 'k', 'space', 'lshift', 'o', 'b', 'a', 'm', 'a', 'return']","[0.7169333240526612, 0.8170356201499089, 0.9834202695128624, 1.1835533282173856, 1.3166588664171286, 1.3833463622668205, 1.566653012218012, 1.6666369412414497, 1.799805031147116, 2.133174826243703, 2.2663345759210642, 2.499605603479722, 2.6328689644433325, 2.732822740335905, 2.832856069167974, 3.032781584523036]",2017_Mrz_01_1642,60.0351457636,famFaceFilter,001,27,
15,./img/gray_GeorgeClooney11_1.png,0,42,42,14,,,None,None,1,1.16662651596,None,None,None,None,None,None,1,0.550192611136,George Clouney,"['lshift', 'lshift', 'g', 'e', 'o', 'r', 'g', 'e', 'space', 'lshift', 'c', 'l', 'o', 'u', 'n', 'e', 'y', 'return']","[0.48333959384945047, 0.8834507754963852, 0.9666894525962562, 1.1834339988090505, 1.4166844965766359, 1.7330338122446847, 1.9829124779753329, 2.1328675209406356, 2.26615911036788, 2.349514871428255, 2.432733339514016, 2.6494342599216907, 2.8660601182837127, 2.9824377265686053, 3.18428566433613, 3.282405231761004, 3.415680140731638, 3.5656351836987596]",2017_Mrz_01_1642,60.0351457636,famFaceFilter,001,27,
62,./img/gray_LisaEdelstein(DrLisaCuddy)1_1.png,0,43,43,61,,,None,None,2,1.76623369125,None,None,None,None,None,None,2,1.86613678422,,['return'],[0.4167877870841039],2017_Mrz_01_1642,60.0351457636,famFaceFilter,001,27,
28,./img/gray_GeorgeClooney4_2.png,0,44,44,27,,,None,None,1,0.883199285563,None,None,None,None,None,None,1,0.51700267625,George Clouney,"['lshift', 'g', 'e', 'o', 'r', 'g', 'e', 'space', 'lshift', 'c', 'l', 'u', 'backspace', 'o', 'u', 'n', 'e', 'y', 'return']","[0.33350163484465156, 0.4335362467882078, 0.5832606503900024, 0.8001492259136285, 0.9665861620869691, 1.2000127669634821, 1.333075000135068, 1.449867053566777, 1.566194941266076, 1.6497848702492774, 1.8496449468966603, 2.0995207256255526, 2.48274070136722, 2.6994384139961767, 2.8659077487445757, 3.032319343456038, 3.182573351497922, 3.332287169425399, 3.4656929558113916]",2017_Mrz_01_1642,60.0351457636,famFaceFilter,001,27,
4,./img/gray_AngelaMerkel1_1.png,0,45,45,3,,,None,None,1,2.59836833074,None,None,None,None,None,None,4,1.6996700157,Angela Merkel,"['lshift', 'a', 'n', 'g', 'e', 'l', 'a', 'space', 'lshift', 'm', 'e', 'r', 'k', 'e', 'l', 'return']","[0.3001567641967995, 0.38361004176113056, 0.5835326701144368, 0.6836295129851351, 0.8000096874948213, 0.9167946838097123, 1.0331995582237141, 1.1166361553350725, 1.2165334743040148, 1.2831904962458793, 1.3665526728655095, 1.4164798402271117, 1.5327823864663515, 1.6498974633195758, 1.766252617146165, 2.016052692273661]",2017_Mrz_01_1642,60.0351457636,famFaceFilter,001,27,
53,./img/gray_Ice-T(OdafinFinTutuola)5_1.png,0,46,46,52,,,None,None,2,1.08336698829,None,None,None,None,None,None,2,0.350238546544,,['return'],[0.4502144561156456],2017_Mrz_01_1642,60.0351457636,famFaceFilter,001,27,
54,./img/gray_LeonardoDiCaprio3_1.png,0,47,47,53,,,None,None,1,1.2832334805,None,None,None,None,None,None,1,0.58341109526,Leonardo Di Caprio,"['lshift', 'l', 'e', 'o', 'n', 'a', 'r', 'd', 'o', 'space', 'lshift', 'd', 'i', 'space', 'lshift', 'c', 'a', 'p', 'r', 'i', 'o', 'return']","[0.5334900226825994, 0.6502057309553493, 0.7999464942331542, 1.0333830432282411, 1.6493665757698182, 1.9663211994793528, 2.2661937543889508, 2.4159803889178875, 2.532815105820191, 2.6827188243114506, 2.7825173436631303, 2.849267711997527, 3.01595068487768, 3.165518228048313, 3.2323555272141675, 3.299112952661744, 3.5156862034364167, 3.648869049127825, 3.815569023241551, 3.915533384808441, 4.165330893711143, 4.481973721227405]",2017_Mrz_01_1642,60.0351457636,famFaceFilter,001,27,
63,./img/gray_JoshRadnor(Ted)3_1.png,0,48,48,62,,,None,None,2,1.26699217077,None,None,None,None,None,None,3,1.16662940296,,['return'],[0.23383559679678],2017_Mrz_01_1642,60.0351457636,famFaceFilter,001,27,
31,./img/gray_AngelaMerkel3_1.png,0,49,49,30,,,None,None,1,0.883452700164,None,None,None,None,None,None,4,1.74950062888,Angela Merkel,"['lshift', 'a', 'n', 'e', 'g', 'backspace', 'backspace', 'g', 'e', 'l', 'a', 'space', 'lshift', 'e', 'r', 'backspace', 'backspace', 'lshift', 'm', 'e', 'r', 'k', 'e', 'l', 'return']","[0.3169270368034631, 0.5001493221479905, 0.7500921434748307, 0.8666991080135631, 1.2830275410342438, 1.5164255966719793, 1.6496363500482403, 1.6996135587723984, 1.8830488406929362, 1.9329089654565905, 2.099564351430672, 2.2162736441441666, 2.349529947992778, 2.4826111070669867, 2.549362116955308, 2.899058227940259, 3.032536830925892, 3.2490962882457097, 3.432293552908959, 3.5489547289253096, 3.5990121321447077, 3.6988035943813884, 3.848879891424076, 3.932186573452782, 4.215363917803188]",2017_Mrz_01_1642,60.0351457636,famFaceFilter,001,27,
49,./img/gray_NeilPatrickHarris(Barney)1_1.png,0,50,50,48,,,None,None,2,1.08309945946,None,None,None,None,None,None,3,0.81681813268,,['return'],[0.33343715847149724],2017_Mrz_01_1642,60.0351457636,famFaceFilter,001,27,
2,./img/gray_BastianSchweinsteiger1_1.png,0,51,51,1,,,None,None,1,0.81675333553,None,None,None,None,None,None,5,0.899934914149,Bastian Schweinsteiger,"['lshift', 'b', 'a', 's', 't', 'i', 'a', 'n', 'space', 'lshift', 's', 'c', 'h', 'w', 'e', 'i', 'n', 's', 't', 'e', 'i', 'g', 'e', 'r', 'return']","[0.28367230476760597, 0.38336111805256223, 0.4835981408996304, 0.7000527038217115, 0.766685667416823, 0.8999493491573958, 1.0163670546917274, 1.1158002079282596, 1.2332469692100858, 1.316174170893646, 1.3829271054510173, 1.549707915613908, 1.6328850033423805, 1.7162497461849853, 1.8494027595261286, 1.9662002661825682, 2.049454661402706, 2.1994780300774437, 2.3660946019172115, 2.5492742237893253, 2.7826748456500354, 2.949093497478316, 3.1317367785759416, 3.2157562292686634, 3.315451137335913]",2017_Mrz_01_1642,60.0351457636,famFaceFilter,001,27,
58,./img/gray_GeorgeClooney3_1.png,0,52,52,57,,,None,None,1,1.18337722111,None,None,None,None,None,None,1,1.11641610164,George Clouney,"['lshift', 'g', 'e', 'o', 'r', 'g', 'e', 'space', 'lshift', 'c', 'l', 'o', 'u', 'n', 'e', 'y', 'return']","[0.23368483114609262, 0.31694820815027924, 0.4501551121902594, 0.6668553910421906, 0.8664947724410013, 1.1164565196668264, 1.2330137636199652, 1.3665119340621459, 1.466508373427132, 1.5496982922741154, 1.7329500891919452, 1.9162346054636146, 2.0160805999566946, 2.1994921443074418, 2.3160314246924827, 2.465927765289962, 2.5659116943133995]",2017_Mrz_01_1642,60.0351457636,famFaceFilter,001,27,
11,./img/gray_EmilyDeschanel6_12.png,0,53,53,10,,,None,None,2,1.6664656458,None,None,None,None,None,None,1,0.267044457582,,['return'],[0.2669363554032316],2017_Mrz_01_1642,60.0351457636,famFaceFilter,001,27,
19,./img/gray_JasonSegel(Marshall)9_1.png,0,54,54,18,,,None,None,1,1.49976021846,None,None,None,None,None,None,1,0.350004378619,American Pie,"['lshift', 'a', 'm', 'e', 'r', 'i', 'c', 'a', 'n', 'space', 'lshift', 'p', 'e', 'backspace', 'i', 'e', 'return']","[0.4002805524178257, 0.6334887074917788, 0.7998586010671715, 0.9667552120808978, 1.1499768558678625, 1.316536970784, 1.4498721860145452, 1.6997142830550729, 1.8330944072040438, 1.9662288154213456, 2.316161018996354, 2.4494407396359748, 2.6494769233922852, 3.0157886919987504, 3.2319978597697627, 3.3990654454428295, 3.548961144484565]",2017_Mrz_01_1642,60.0351457636,famFaceFilter,001,27,
17,./img/gray_JasonSegel(Marshall)6_1.png,0,55,55,16,,,None,None,1,1.74983070942,None,None,None,None,None,None,1,0.350252339995,American Pie,"['lshift', 'a', 'm', 'e', 'r', 'i', 'c', 'a', 'n', 'space', 'lshift', 'p', 'i', 'e', 'return']","[0.3169985702916165, 0.4001714879050269, 0.5835791829194932, 0.667006156691059, 0.8334495084236551, 1.0000022454460122, 1.1166804226941167, 1.3000666255848046, 1.4664567281724885, 1.5663765016015532, 1.966178132501227, 2.066385643773174, 2.2826381165705243, 2.399413810324404, 2.5328497498412617]",2017_Mrz_01_1642,60.0351457636,famFaceFilter,001,27,
14,./img/gray_JoshRadnor(Ted)6_2.png,0,56,56,13,,,None,None,2,1.18314273241,None,None,None,None,None,None,3,0.600190349651,,['return'],[0.2837496122592711],2017_Mrz_01_1642,60.0351457636,famFaceFilter,001,27,
21,./img/gray_HughLaurie(DrHouse)4_1.png,0,57,57,20,,,None,None,2,0.93354410585,None,None,None,None,None,None,3,0.267017512231,,['return'],[0.18387346463714493],2017_Mrz_01_1642,60.0351457636,famFaceFilter,001,27,
40,./img/gray_BritneySpears1_1.png,0,58,58,39,,,None,None,1,0.900128022491,None,None,None,None,None,None,2,1.24976895966,Britney Spears,"['lshift', 'b', 'r', 'i', 't', 'n', 'e', 'y', 'space', 'lshift', 's', 'p', 'e', 'a', 'r', 's', 'return']","[0.4002471915082424, 0.5001053755659086, 0.7001553527734359, 1.166732051910003, 1.4498988105879107, 1.599919613039674, 1.7498291055326263, 1.8996596866454638, 2.049518175441335, 2.232787935925444, 2.282689120269424, 2.849382229733237, 3.082522059099574, 3.265788932581927, 3.432243190765803, 3.56566244982605, 3.7822761186253047]",2017_Mrz_01_1642,60.0351457636,famFaceFilter,001,27,
13,./img/gray_NeilPatrickHarris(Barney)2_2.png,0,59,59,12,,,None,None,2,1.94969784319,None,None,None,None,None,None,3,0.566578270949,,['return'],[0.5335583483920345],2017_Mrz_01_1642,60.0351457636,famFaceFilter,001,27,
27,./img/gray_LeonardoDiCaprio1_1.png,0,60,60,26,,,None,None,1,1.05001313586,None,None,None,None,None,None,1,0.366984119246,Leonardo Di Caprio,"['lshift', 'l', 'o', 'backspace', 'e', 'o', 'n', 'o', 'r', 'backspace', 'backspace', 'a', 'r', 'd', 'o', 'space', 'lshift', 'd', 'i', 'space', 'lshift', 'c', 'a', 'p', 'r', 'i', 'o', 'return']","[0.6999798872202518, 0.8500334090258548, 1.0498957311192498, 1.5496565911380458, 1.6330315988761868, 1.7829587341584556, 1.9996153872070863, 2.149616622202302, 2.432774399094342, 2.7826456548536953, 2.949384443101735, 3.0658910041347553, 3.199239692041374, 3.415724087315539, 3.6490518925747892, 3.815530209105418, 3.9321560995449545, 3.9988769563042297, 4.165486150250217, 4.282029921529102, 4.365339811338345, 4.448711290518986, 4.664831282012528, 4.815136935307237, 4.981674595763252, 5.098391266370527, 5.248208374807291, 5.53147906554841]",2017_Mrz_01_1642,60.0351457636,famFaceFilter,001,27,
20,./img/gray_WillSmith1_1.png,0,61,61,19,,,None,None,1,0.883200247898,None,None,None,None,None,None,1,0.41694849685,Will Smith,"['lshift', 'w', 'i', 'l', 'l', 'space', 'lshift', 's', 'm', 'i', 't', 'h', 'return']","[0.2337213998362131, 0.53365201555971, 0.6837222178201046, 0.8836195047115325, 1.0000949502809817, 1.1668911577871768, 1.2667438886182936, 1.3497788717013464, 1.4998817933155806, 1.666605184220316, 1.7662644859319698, 1.8664389570731146, 2.1497211958212574]",2017_Mrz_01_1642,60.0351457636,famFaceFilter,001,27,
64,./img/gray_LisaEdelstein(DrLisaCuddy)2_2.png,0,62,62,63,,,None,None,2,1.84963692745,None,None,None,None,None,None,1,0.233699266157,,['return'],[0.31680257494735997],2017_Mrz_01_1642,60.0351457636,famFaceFilter,001,27,
