num,pic,trials.thisRepN,trials.thisTrialN,trials.thisN,trials.thisIndex,key_resp_2.keys,key_resp_2.rt,ratingBekannt.response,ratingBekannt.rt,key_resp_5.keys,ratingK1.response,ratingK1.rt,ratingK2.response,ratingK2.rt,ratingK3.response,ratingK3.rt,key_resp_6.keys,inputText,key_resp_4.keys,key_resp_4.rt,date,frameRate,expName,session,participant,
,,,,,,space,19.3571377935,,,,,,,,,,,,,,2017_Jan_25_1055,60.0503334375,famFaceFilter,001,2,
36,./img/smoo15_BastianSchweinsteiger6_2.png,0,0,0,35,,,1.ja,4.772,None,None,None,None,None,sport,1.066,None,Bastian Schweinsteiger,"['lshift', 'b', 'a', 's', 't', 'i', 'a', 'n', 'space', 'lshift', 's', 'c', 'h', 'w', 'e', 'i', 'n', 's', 't', 'e', 'i', 'g', 'e', 'r', 'return']","[0.983483889510353, 1.0833010151591225, 1.266524049693544, 1.4332178219246998, 1.4998461879467868, 1.6663895162728295, 1.7495699196870191, 1.8662948232222334, 1.999625975278832, 2.066190506892781, 2.1161936986136425, 2.3161339701373436, 2.416168581858983, 2.532158908540623, 2.6993922258670864, 2.849196825216495, 3.0157289263852363, 3.199218846482836, 3.315436282515293, 3.4323735397074415, 3.515591153128298, 3.682212109226384, 3.7487535449745337, 3.915553494035521, 9.679742134654589]",2017_Jan_25_1055,60.0503334375,famFaceFilter,001,2,
31,./img/smoo15_BritneySpears1_1.png,0,1,1,30,,,1.ja,2.022,None,None,None,music,0.774,None,None,None,Britney Spears,"['lshift', 'b', 'r', 'i', 't', 'n', 'e', 'y', 'space', 'lshift', 's', 'p', 'e', 'a', 'r', 's', 'return']","[0.45006433161051973, 0.6503253790533563, 0.799797012999079, 0.9000138254423291, 1.0833475276676836, 1.2664252507101992, 1.3333044635010083, 1.5165124215664036, 1.5995202475369297, 1.6995670487431198, 1.799735744798454, 1.9163596039188633, 2.0662447180238814, 2.2494170699619644, 2.332937816626327, 2.4326433122550952, 2.9491868490858906]",2017_Jan_25_1055,60.0503334375,famFaceFilter,001,2,
43,./img/smoo15_JoachimLoew1_1.png,0,2,2,42,,,1.ja,1.146,None,None,None,None,None,sport,0.874,None,Joachim Löw,"['lshift', 'j', 'o', 'a', 'c', 'h', 'i', 'm', 'space', 'lshift', 'l', u'\xf6', 'w', 'return']","[0.5336036832768514, 0.6669075693816922, 0.8335615653995774, 0.9001626654680877, 1.0501116139803344, 1.1167515279357758, 1.2501147575849245, 1.4165740426196862, 1.5665954864898595, 1.5909301892161238, 1.7660411215483691, 1.8831795052410598, 1.9331310520392435, 2.3996255261927217]",2017_Jan_25_1055,60.0503334375,famFaceFilter,001,2,
29,./img/smoo15_GuentherJauch3_1.png,0,3,3,28,,,1.ja,1.315,None,None,None,host,1.408,None,None,None,Günther Jauch,"['lshift', 'g', u'\xfc', 'n', 't', 'h', 'e', 'r', 'space', 'lshift', 'j', 'a', 'u', 'c', 'h', 'return']","[0.6002182559350331, 0.7333678488221267, 0.9666579094837289, 1.1998722670296047, 1.3165317322764167, 1.399894336412217, 1.5164543611253976, 1.666297774360828, 1.782623311876705, 1.8660680346474692, 1.982825336550377, 2.1327579254912052, 2.2161798731713134, 2.3161233845321476, 2.432711637526154, 2.949135524938356]",2017_Jan_25_1055,60.0503334375,famFaceFilter,001,2,
64,./img/smoo15_JoachimLoew8_1.png,0,4,4,63,,,1.ja,1.284,None,None,None,None,None,sport,0.624,None,Joachim Löw,"['lshift', 'j', 'o', 'a', 'c', 'h', 'i', 'm', 'space', 'lshift', 'l', u'\xf6', 'w', 'return']","[0.4001493532678069, 0.5835917985295964, 0.766814512287965, 0.8166897144164977, 0.9666973649218562, 1.0333369581012448, 1.1832179021193951, 1.333118734243726, 1.483229353819297, 1.533030777487511, 1.6658631229911407, 1.799763652303227, 1.8495939458034627, 2.2828849046381947]",2017_Jan_25_1055,60.0503334375,famFaceFilter,001,2,
61,./img/smoo15_OmarEpps(DrEricForeman)3_1.png,0,5,5,60,,,2.nein,2.425,None,act,1.525,None,None,None,None,None,,['return'],[0.8498973998221118],2017_Jan_25_1055,60.0503334375,famFaceFilter,001,2,
69,./img/smoo15_BritneySpears5_1.png,0,6,6,68,,,1.ja,1.056,None,None,None,music,0.458,None,None,None,Britney Spears,"['lshift', 'b', 'r', 'i', 't', 'n', 'e', 'y', 'space', 'lshift', 's', 'p', 'e', 'a', 'r', 's', 'return']","[0.4501573566267325, 0.5834862632518707, 0.7501588642735442, 0.8499824054406417, 1.0000134725878524, 1.3329731019766768, 1.466522702434304, 1.682873869945979, 1.799671910390316, 1.8996458954634363, 2.032901023627346, 2.1661523024813505, 2.3159732614021777, 2.499126687561329, 2.6660077929300314, 2.865853756334218, 2.9824397638958544]",2017_Jan_25_1055,60.0503334375,famFaceFilter,001,2,
16,./img/smoo15_WillSmith4_1.png,0,7,7,15,,,1.ja,1.037,None,act,0.592,None,None,None,None,None,Will Smith,"['lshift', 'w', 'i', 'l', 'l', 'space', 'lshift', 's', 'm', 'i', 't', 'h', 'return']","[0.2835444199263293, 0.4001734114608553, 0.5501871567093986, 0.7336636042191458, 0.850189947459512, 1.0000121894845506, 1.0832384638551957, 1.2165885416916353, 1.299848176757223, 1.4496322464483455, 1.5662609172068187, 1.649775889904049, 1.8661347560382637]",2017_Jan_25_1055,60.0503334375,famFaceFilter,001,2,
68,./img/smoo15_AlysonHannigan(Lily)8_3.png,0,8,8,67,,,1.ja,1.16,None,dummy,0.89,None,None,None,None,None,,['return'],[3.9656266149058865],2017_Jan_25_1055,60.0503334375,famFaceFilter,001,2,
38,./img/smoo15_AlysonHannigan(Lily)5_4.png,0,9,9,37,,,1.ja,1.528,None,act,0.575,None,None,None,None,None,,['return'],[0.6169034153335815],2017_Jan_25_1055,60.0503334375,famFaceFilter,001,2,
30,./img/smoo15_KatjaBurkard4_1.png,0,10,10,29,,,1.ja,2.302,None,None,None,host,0.557,None,None,None,Frauke Ludowig,"['lshift', 'f', 'r', 'a', 'u', 'k', 'e', 'space', 'lshift', 'l', 'u', 'd', 'o', 'w', 'i', 'g', 'return']","[0.48362487052690994, 0.716788224701304, 0.8829998707269624, 0.9665870180060665, 1.083261880497048, 1.2665641466828674, 1.2994019774550907, 1.4330648118120735, 1.5164925334593136, 1.599772698184097, 1.7830278103101591, 1.8663839989276312, 1.966325264857005, 2.082584401757231, 2.182826876274703, 2.41598830579278, 3.2825285225926564]",2017_Jan_25_1055,60.0503334375,famFaceFilter,001,2,
51,./img/smoo15_LeonardoDiCaprio1_1.png,0,11,11,50,,,1.ja,1.222,None,act,1.125,None,None,None,None,None,Leonardo DiCaprio,"['lshift', 'l', 'e', 'o', 'n', 'a', 'r', 'd', 'o', 'space', 'lshift', 'd', 'i', 'lshift', 'c', 'a', 'p', 'r', 'i', 'o', 'return']","[1.1164644334885452, 1.2829080005039941, 1.449875715370581, 1.5164780985433026, 1.6996786787622113, 1.882800348105775, 1.9994970233601634, 2.7989366919855456, 2.882492403224205, 3.0990947382806553, 3.1823550148983486, 3.248777763556973, 3.3824069164420507, 3.515427878185619, 3.648716687821434, 3.782057463156889, 3.9486694375291336, 4.031990661571399, 4.148684770618274, 4.2986186426624045, 4.5151026114044726]",2017_Jan_25_1055,60.0503334375,famFaceFilter,001,2,
40,./img/smoo15_NeilPatrickHarris(Barney)2_2.png,0,12,12,39,,,1.ja,1.42,None,dummy,0.608,None,None,None,None,None,Barney Stinson,"['lshift', 'b', 'a', 'r', 'n', 'e', 'y', 'space', 'lshift', 's', 't', 'i', 'n', 's', 'o', 'n', 'return']","[1.5163821865435239, 1.6498185531017953, 1.7830024690119899, 2.0163477031319417, 2.1495746030159353, 2.2159068928649504, 2.3994773277181594, 2.516024842169827, 2.632469066776139, 2.7325607766115354, 2.8158534515969222, 2.999131338812731, 3.1825157236335144, 3.265181602474513, 3.381589579401407, 3.532088658614157, 3.7654768767079076]",2017_Jan_25_1055,60.0503334375,famFaceFilter,001,2,
13,./img/smoo15_GeorgeClooney3_1.png,0,13,13,12,,,1.ja,5.081,None,act,1.136,None,None,None,None,None,Robert DeNiro,"['lshift', 'r', 'o', 'b', 'e', 'r', 't', 'space', 'lshift', 'd', 'e', 'lshift', 'n', 'i', 'r', 'o', 'return']","[0.7172953714280084, 0.9006826432323578, 1.0337395318792915, 1.233854626279026, 2.050206563652864, 2.216728720768515, 2.316707838255752, 2.533276171065154, 2.683134339992648, 2.9162569556247036, 3.149687836915291, 3.3495880114496686, 3.4324508467043415, 3.599515756674009, 3.683019502213938, 3.7826983734421447, 4.665716849171986]",2017_Jan_25_1055,60.0503334375,famFaceFilter,001,2,
4,./img/smoo15_UrsulavonderLeyen1_1.png,0,14,14,3,,,1.ja,1.713,None,None,None,None,None,polit,0.774,None,Ursula von der Leyen,"['lshift', 'r', 'backspace', 'lshift', 'u', 'r', 's', 'u', 'l', 'a', 'space', 'v', 'o', 'n', 'space', 'd', 'e', 'r', 'space', 'lshift', 'l', 'e', 'y', 'e', 'n', 'return']","[0.5665460869995513, 0.8832096581782025, 1.183191277717924, 1.3329086260173426, 1.4829560527368812, 1.6662137310704566, 1.866221044761005, 1.9662133140618607, 2.132863139992878, 2.1991710508718825, 2.3491799844814523, 2.499038794961052, 2.5656873698653726, 2.7155975044915976, 2.8823172595730284, 2.948917076538237, 3.0321959581597184, 3.165590623848402, 3.2821554601996468, 3.3985448321236618, 3.5321018104277755, 3.665289575648785, 3.8653106827041483, 4.0818642598214865, 4.181632306754182, 4.4483751256238975]",2017_Jan_25_1055,60.0503334375,famFaceFilter,001,2,
72,./img/smoo15_HughLaurie(DrHouse)2_1.png,0,15,15,71,,,1.ja,1.655,None,act,0.624,None,None,None,None,None,Doctor House,"['lshift', 'd', 'o', 'c', 't', 'o', 'r', 'space', 'lshift', 'h', 'o', 'u', 's', 'e', 'return']","[0.30023791949861334, 0.5334349551440027, 1.1166629937824837, 1.2331896577989028, 1.449797446046432, 1.5330387968851937, 1.6330570490345053, 1.732467110043217, 1.8329135980438878, 1.9329575122674214, 2.1159123781326343, 2.266006638136787, 2.366159616171899, 2.532501176445294, 2.8158316388344247]",2017_Jan_25_1055,60.0503334375,famFaceFilter,001,2,
8,./img/smoo15_AngelaMerkel4_1.png,0,16,16,7,,,1.ja,1.231,None,None,None,None,None,polit,0.458,None,Angela Merkel,"['lshift', 'a', 'n', 'g', 'e', 'l', 'a', 'space', 'lshift', 'm', 'e', 'r', 'k', 'e', 'l', 'return']","[0.35018657931232156, 0.5168925410289376, 0.6167706141022791, 0.7998881133589748, 0.8666486390593491, 0.9999990376718415, 1.0832121602297775, 1.1833494202455768, 1.2497747351108046, 1.3833413366919558, 1.5163776956796937, 1.6329672317770019, 1.7162566990036794, 1.8496459115021935, 1.9161591189695173, 2.1327893615307403]",2017_Jan_25_1055,60.0503334375,famFaceFilter,001,2,
65,./img/smoo15_UrsulavonderLeyen4_1.png,0,17,17,64,,,1.ja,1.298,None,None,None,None,None,polit,0.641,None,Ursula von der Leyen,"['lshift', 'u', 'r', 's', 'u', 'l', 'a', 'space', 'v', 'o', 'n', 'space', 'd', 'e', 'r', 'space', 'lshift', 'l', 'e', 'y', 'e', 'n', 'return']","[0.3668499259492819, 0.5666965309046645, 0.7166672921794088, 0.9166867953554174, 0.9847878436194151, 1.149970440499601, 1.2332910229897607, 1.3664665987262197, 1.4497008924945476, 1.5663994924043436, 1.7163551772109713, 1.8495176011347212, 1.8995685884674458, 1.999318351173315, 2.1162684394030293, 2.199233922951862, 2.3160544177098927, 2.4161881491900203, 2.5493011736225526, 2.749184667809459, 2.9492291915066744, 3.0491691743327465, 3.3156592217783327]",2017_Jan_25_1055,60.0503334375,famFaceFilter,001,2,
42,./img/smoo15_OmarEpps(DrEricForeman)1_5.png,0,18,18,41,,,2.nein,1.499,None,act,0.508,None,None,None,None,None,,['return'],[0.6503738162164154],2017_Jan_25_1055,60.0503334375,famFaceFilter,001,2,
25,./img/smoo15_JasonSegel(Marshall)6_1.png,0,19,19,24,,,1.ja,1.235,None,act,0.708,None,None,None,None,None,,['return'],[0.6002894681887483],2017_Jan_25_1055,60.0503334375,famFaceFilter,001,2,
2,./img/smoo15_WillSmith5_1.png,0,20,20,1,,,1.ja,1.049,None,act,0.408,None,None,None,None,None,Will Smith,"['lshift', 'w', 'i', 'l', 'l', 'space', 'lshift', 's', 'm', 'i', 't', 'h', 'return']","[0.23369263443964883, 0.35031200269713736, 0.5001929467152877, 0.6667766928067067, 0.7833165086367444, 0.9833039342202028, 1.033176249366079, 1.1834228779307523, 1.24980071796017, 1.3998657873553384, 1.5330471370589294, 1.583024666705569, 1.8162637239965989]",2017_Jan_25_1055,60.0503334375,famFaceFilter,001,2,
6,./img/smoo15_AlysonHannigan(Lily)1_1.png,0,21,21,5,,,1.ja,1.079,None,act,0.458,None,None,None,None,None,,['return'],[0.6671834366716212],2017_Jan_25_1055,60.0503334375,famFaceFilter,001,2,
57,./img/smoo15_UrsulavonderLeyen5_1.png,0,22,22,56,,,1.ja,1.127,None,None,None,None,None,polit,0.625,None,Ursula von der Leyen,"['lshift', 'u', 'r', 's', 'u', 'l', 'a', 'space', 'v', 'o', 'n', 'space', 'd', 'e', 'r', 'space', 'lshift', 'l', 'e', 'y', 'e', 'n', 'return']","[0.3835007623238198, 0.5835783259408345, 0.7834319879666509, 0.9666332097385748, 1.0667367882824692, 1.23329423074847, 1.2998180238209898, 1.4664373760397211, 1.549746410597436, 1.649656882038471, 1.8162585915815725, 1.966257581138052, 2.01617640879158, 2.082645349181803, 2.2162231779202557, 2.366121764614036, 2.466151564696702, 2.599197226186334, 2.7160283065495605, 2.9325148415000513, 3.1824384166366144, 3.282356265924136, 3.5650034756072273]",2017_Jan_25_1055,60.0503334375,famFaceFilter,001,2,
12,./img/smoo15_MariskaHargitay(Liv)8_8.png,0,23,23,11,,,1.ja,3.002,None,act,0.559,None,None,None,None,None,,['return'],[0.5500338258207194],2017_Jan_25_1055,60.0503334375,famFaceFilter,001,2,
41,./img/smoo15_AngelaMerkel3_1.png,0,24,24,40,,,1.ja,1.091,None,None,None,None,None,polit,0.591,None,Angela Merkel,"['lshift', 'a', 'n', 'g', 'e', 'l', 'a', 'space', 'lshift', 'm', 'e', 'r', 'k', 'e', 'l', 'return']","[0.38360276906587387, 0.5003783551956076, 0.6170208193188955, 0.8003006311901117, 0.8834133508862578, 1.0000930250162128, 1.08341553216178, 1.2168294444063577, 1.2667745756853037, 1.3999090921042807, 1.5499456124425706, 1.6998583132763088, 1.7665546837934016, 1.8830053239180415, 1.9496747492576105, 2.1830071523399965]",2017_Jan_25_1055,60.0503334375,famFaceFilter,001,2,
60,./img/smoo15_LeonardoDiCaprio2_1.png,0,25,25,59,,,1.ja,1.019,None,dummy,0.824,None,None,None,None,None,Leonardo DiCaprio,"['lshift', 'l', 'e', 'o', 'n', 'a', 'r', 'd', 'o', 'space', 'lshift', 'c', 'backspace', 'lshift', 'd', 'i', 'lshift', 'c', 'a', 'p', 'r', 'i', 'o', 'return']","[0.4834731435175854, 0.6996693762612267, 0.8003336711108204, 0.8665687658567549, 1.0335069693383048, 1.100138543119101, 1.299999903767457, 1.4666211806415959, 1.533215865191778, 1.86625248080054, 1.9663897408163393, 2.0994684422257706, 2.5327879501164716, 2.6159988272429473, 2.6993983206093617, 2.8323355598386115, 2.9659050484033287, 3.13256417683624, 3.2824714244788993, 3.432501850074914, 3.565802528420136, 3.632318943646169, 3.78224415474142, 4.5651834308973775]",2017_Jan_25_1055,60.0503334375,famFaceFilter,001,2,
58,./img/smoo15_EmilyDeschanel3_1.png,0,26,26,57,,,2.nein,4.269,None,dummy,0.835,None,None,None,None,None,,['return'],[0.6834490211685988],2017_Jan_25_1055,60.0503334375,famFaceFilter,001,2,
63,./img/smoo15_RobertSeanLeonard(Wilson)8_1.png,0,27,27,62,,,2.nein,1.237,None,act,1.624,None,None,None,None,None,,['return'],[0.5167481918660997],2017_Jan_25_1055,60.0503334375,famFaceFilter,001,2,
3,./img/smoo15_JoshRadnor(Ted)3_1.png,0,28,28,2,,,1.ja,1.317,None,dummy,0.475,None,None,None,None,None,,['return'],[0.5669977394927628],2017_Jan_25_1055,60.0503334375,famFaceFilter,001,2,
24,./img/smoo15_BastianSchweinsteiger1_1.png,0,29,29,23,,,1.ja,1.013,None,None,None,None,None,sport,0.558,None,Bastian Schweinsteiger,"['lshift', 'b', 'a', 's', 't', 'i', 'a', 'n', 'space', 'lshift', 's', 'c', 'h', 'w', 'e', 'i', 'n', 's', 't', 'e', 'i', 'g', 'e', 'r', 'return']","[0.40004606342245097, 0.5502201966301072, 0.73350289548398, 0.8995140565612019, 0.9333286500050235, 1.1331662732354744, 1.2000015397252355, 1.316601019875634, 1.483150122167899, 1.5330875548252152, 1.6330028379052237, 1.8163663722907586, 1.916321752361, 2.0496561121772174, 2.166210683699319, 2.2162363297338743, 2.3827305793438427, 2.449132156792075, 2.5826747001792683, 2.6492854235257255, 2.766092124919851, 2.915820700376571, 2.999310331775632, 3.1157709159533624, 3.2492900426987035]",2017_Jan_25_1055,60.0503334375,famFaceFilter,001,2,
62,./img/smoo15_RobertSeanLeonard(Wilson)1_1.png,0,30,30,61,,,1.ja,2.962,None,act,0.458,None,None,None,None,None,,['return'],[0.46703113226521964],2017_Jan_25_1055,60.0503334375,famFaceFilter,001,2,
33,./img/smoo15_Ice-T(OdafinFinTutuola)7_1.png,0,31,31,32,,,2.nein,1.448,None,act,0.925,None,None,None,None,None,,['return'],[0.4666615984069722],2017_Jan_25_1055,60.0503334375,famFaceFilter,001,2,
18,./img/smoo15_HughLaurie(DrHouse)4_1.png,0,32,32,17,,,1.ja,1.165,None,act,0.475,None,None,None,None,None,Doctor House,"['lshift', 'd', 'o', 'c', 't', 'o', 'r', 'space', 'lshift', 'h', 'o', 'u', 's', 'e', 'return']","[0.35030205864404707, 0.5501794580877686, 0.7334227015044235, 0.8668497655617102, 1.083249370237354, 1.1667752493158332, 1.266636642040794, 1.3665445472752253, 1.4496691356789597, 1.5665005368191487, 1.749685719793888, 1.8997100506476272, 1.9829802713193203, 2.1328891228422435, 2.2330087401815035]",2017_Jan_25_1055,60.0503334375,famFaceFilter,001,2,
15,./img/smoo15_LisaEdelstein(DrLisaCuddy)1_1.png,0,33,33,14,,,2.nein,3.613,None,None,None,host,0.759,None,None,None,,['return'],[0.5335292632644268],2017_Jan_25_1055,60.0503334375,famFaceFilter,001,2,
1,./img/smoo15_Ice-T(OdafinFinTutuola)6_1.png,0,34,34,0,,,2.nein,1.154,None,act,0.525,None,None,None,None,None,,['return'],[0.5169400158656572],2017_Jan_25_1055,60.0503334375,famFaceFilter,001,2,
48,./img/smoo15_JoshRadnor(Ted)6_2.png,0,35,35,47,,,2.nein,3.246,None,dummy,2.19,None,None,None,None,None,,['return'],[0.633521532564373],2017_Jan_25_1055,60.0503334375,famFaceFilter,001,2,
66,./img/smoo15_NicoleKidman3_1.png,0,36,36,65,,,1.ja,1.429,None,act,0.891,None,None,None,None,None,Nicole Kidman,"['lshift', 'n', 'i', 'c', 'o', 'l', 'e', 'space', 'lshift', 'k', 'i', 'd', 'm', 'a', 'n', 'return']","[0.4168495891344719, 0.5335321502479928, 0.7333585463211421, 0.8500674110591717, 0.9333450095773514, 1.0832936373135453, 1.1664733991756293, 1.2665869217735235, 1.349528988680504, 1.433114532079344, 1.5830262705858331, 1.6329438151360591, 1.7664513939480457, 1.8329585066730942, 1.9328901493245212, 2.149412931952611]",2017_Jan_25_1055,60.0503334375,famFaceFilter,001,2,
49,./img/smoo15_TomCruise5_1.png,0,37,37,48,,,1.ja,1.163,None,act,1.058,None,None,None,None,None,Tom Cruise,"['lshift', 't', 'o', 'm', 'space', 'lshift', 'c', 'r', 'u', 'i', 's', 'e', 'return']","[0.3334340569717824, 0.5834285235869174, 0.7169668968872429, 0.8833655552743949, 1.0333594124149386, 1.0831566659962846, 1.1666956968865634, 1.3998471823524596, 1.4998163557866064, 1.6329916107470126, 1.6998361797377584, 1.849504449322012, 1.949667050635071]",2017_Jan_25_1055,60.0503334375,famFaceFilter,001,2,
27,./img/smoo15_JasonSegel(Marshall)9_1.png,0,38,38,26,,,1.ja,1.352,None,act,0.508,None,None,None,None,None,,['return'],[0.5169916607883351],2017_Jan_25_1055,60.0503334375,famFaceFilter,001,2,
21,./img/smoo15_NeilPatrickHarris(Barney)3_7.png,0,39,39,20,,,1.ja,1.079,None,act,0.559,None,None,None,None,None,,['return'],[0.7832837894920885],2017_Jan_25_1055,60.0503334375,famFaceFilter,001,2,
55,./img/smoo15_MariskaHargitay(Liv)4_4.png,0,40,40,54,,,2.nein,1.836,None,act,0.591,None,None,None,None,None,,['return'],[0.6333207268398837],2017_Jan_25_1055,60.0503334375,famFaceFilter,001,2,
52,./img/smoo15_BastianSchweinsteiger3_1.png,0,41,41,51,,,1.ja,1.091,None,None,None,None,None,sport,0.441,None,Bastian Schweinsteiger,"['lshift', 'b', 'a', 's', 't', 'i', 'a', 'n', 'space', 'lshift', 's', 'c', 'h', 'w', 'e', 'i', 'n', 's', 't', 'e', 'i', 'g', 'e', 'r', 'return']","[0.4169185559567268, 0.5834477701428114, 0.7334926306548368, 0.8831313888540535, 0.9333940882925162, 1.1164445453823646, 1.1832836611829407, 1.3164306878625212, 1.466555100802907, 1.5830307614487538, 1.6497136593770847, 1.8496215325330922, 1.9662043323360194, 2.0661414281785255, 2.2162372920611233, 2.2420552626344943, 2.4327748303821863, 2.482655485701798, 2.6326563999127757, 2.7160058522358668, 2.81581014684798, 2.9825266941707014, 3.009963620803319, 3.182406659821936, 3.9487438575424676]",2017_Jan_25_1055,60.0503334375,famFaceFilter,001,2,
46,./img/smoo15_NeilPatrickHarris(Barney)1_1.png,0,42,42,45,,,1.ja,1.375,None,dummy,0.508,None,None,None,None,None,,['return'],[0.6001675733396041],2017_Jan_25_1055,60.0503334375,famFaceFilter,001,2,
39,./img/smoo15_BarackObama2_1.png,0,43,43,38,,,1.ja,1.131,None,None,None,None,None,polit,0.558,None,Barack Obama,"['lshift', 'b', 'a', 'r', 'a', 'c', 'k', 'space', 'lshift', 'o', 'b', 'a', 'm', 'a', 'return']","[0.3834815157688354, 0.583499094288527, 0.750187734105566, 0.8667836857212023, 0.950075719155393, 1.1333061315353916, 1.1999556687678705, 1.3664617870872462, 1.4499340965867304, 1.5830384600694742, 1.749530143472839, 1.8328606700169985, 1.9329780419257077, 2.016299265967973, 2.2160910182419684]",2017_Jan_25_1055,60.0503334375,famFaceFilter,001,2,
20,./img/smoo15_NicoleKidman5_1.png,0,44,44,19,,,1.ja,1.295,None,act,0.575,None,None,None,None,None,Nicole Kidman,"['lshift', 'n', 'i', 'c', 'o', 'l', 'e', 'space', 'lshift', 'k', 'i', 'd', 'm', 'a', 'n', 'return']","[0.3833702065248872, 0.5834342975540494, 0.7834172322745871, 0.9167493466593442, 1.0000445878531536, 1.166596256352932, 1.2165821261733072, 1.34965216663295, 1.3997082863797914, 1.5497858660355632, 1.6662660175443307, 1.7496254139214216, 1.8496247402918016, 1.932863845699103, 2.01615652068449, 2.3494356428882384]",2017_Jan_25_1055,60.0503334375,famFaceFilter,001,2,
44,./img/smoo15_GuentherJauch2_1.png,0,45,45,43,,,1.ja,1.29,None,None,None,host,0.591,None,None,None,Günther Jauch,"['lshift', 'g', u'\xfc', 'n', 't', 'h', 'e', 'r', 'space', 'lshift', 'j', 'a', 'u', 'c', 'h', 'return']","[0.38361175079171517, 0.5334118592782033, 0.8000039134658437, 0.9834136395838868, 1.082963879669478, 1.183305153168476, 1.2996031039556328, 1.4331299293235134, 1.5165101761349433, 1.6163645117903798, 1.7163853301472045, 1.8662470276103704, 1.9828814723359756, 2.0827890567934446, 2.166153906360705, 2.416227283852095]",2017_Jan_25_1055,60.0503334375,famFaceFilter,001,2,
9,./img/smoo15_EmilyDeschanel6_12.png,0,46,46,8,,,2.nein,4.577,None,dummy,0.536,None,None,None,None,None,,['return'],[0.5169072967219108],2017_Jan_25_1055,60.0503334375,famFaceFilter,001,2,
32,./img/smoo15_TomCruise1_1.png,0,47,47,31,,,1.ja,1.166,None,act,0.591,None,None,None,None,None,Tom Cruise,"['lshift', 't', 'o', 'm', 'space', 'lshift', 'c', 'r', 'u', 'i', 's', 'e', 'return']","[0.4501390723999066, 0.6833922438308946, 0.900011259234816, 1.0998315605647804, 1.2499171596191445, 1.2997840215739416, 1.399672680252479, 1.6497499070555932, 1.7330611870438588, 1.8496433452946803, 1.9162534270899414, 2.08285481585699, 2.1828387449832007]",2017_Jan_25_1055,60.0503334375,famFaceFilter,001,2,
45,./img/smoo15_RobertSeanLeonard(Wilson)2_6.png,0,48,48,44,,,2.nein,3.094,None,act,0.575,None,None,None,None,None,,['return'],[0.5667475342752368],2017_Jan_25_1055,60.0503334375,famFaceFilter,001,2,
14,./img/smoo15_BritneySpears7_1.png,0,49,49,13,,,1.ja,1.098,None,None,None,music,0.691,None,None,None,Britney Spears,"['lshift', 'b', 'r', 'i', 't', 'n', 'e', 'y', 'space', 'lshift', 's', 'p', 'e', 'a', 'r', 's', 'return']","[0.5336351193172959, 0.6336107082697708, 0.8335715094526677, 0.9335233609872375, 1.0334190767362088, 1.1502485532209903, 1.2667546875791231, 1.4499068306349727, 1.58333389469135, 1.7000084364071881, 1.7831413649846581, 1.9165292943798704, 2.049802385995463, 2.199676914495285, 2.316385779234224, 2.4329794854174907, 2.616353605409131]",2017_Jan_25_1055,60.0503334375,famFaceFilter,001,2,
54,./img/smoo15_LisaEdelstein(DrLisaCuddy)6_3.png,0,50,50,53,,,1.ja,1.565,None,act,0.625,None,None,None,None,None,,['return'],[0.5002824431958288],2017_Jan_25_1055,60.0503334375,famFaceFilter,001,2,
34,./img/smoo15_EmilyDeschanel5_1.png,0,51,51,33,,,1.ja,1.331,None,act,0.708,None,None,None,None,None,Nicole Kidman,"['lshift', 'n', 'i', 'c', 'o', 'l', 'e', 'space', 'lshift', 'k', 'i', 'd', 'm', 'a', 'n', 'return']","[0.48360690707522735, 0.6001508929921329, 0.8167233958874931, 0.9167560829537251, 1.0165700008437852, 1.166679337315145, 1.2332608700535275, 1.349874464343884, 1.433151421309958, 1.5329807364441876, 1.6831099610226374, 1.7664488277405326, 1.8997155038377969, 1.9994703989586924, 2.082995315709013, 2.316060833228221]",2017_Jan_25_1055,60.0503334375,famFaceFilter,001,2,
71,./img/smoo15_AngelaMerkel1_1.png,0,52,52,70,,,1.ja,1.083,None,None,None,None,None,polit,0.608,None,Angela Merkel,"['lshift', 'a', 'n', 'g', 'e', 'l', 'a', 'space', 'lshift', 'm', 'e', 'r', 'k', 'e', 'l', 'return']","[0.38350749861820077, 0.5501008679875667, 0.7001617672958673, 0.9000202409597478, 0.9834360938984901, 1.0998312397887275, 1.2166199777311704, 1.3161471219500527, 1.3829153462729664, 1.4830064145553479, 1.6497534355903554, 1.799440951728684, 1.8995618521730648, 1.983075541766084, 2.116212624392574, 2.3994933665144345]",2017_Jan_25_1055,60.0503334375,famFaceFilter,001,2,
11,./img/smoo15_LeonardoDiCaprio3_1.png,0,53,53,10,,,1.ja,1.163,None,act,0.858,None,None,None,None,None,Leonardo DiCaprio,"['lshift', 'l', 'e', 'o', 'n', 'a', 'r', 'd', 'o', 'space', 'lshift', 'd', 'i', 'lshift', 'c', 'a', 'p', 'r', 'i', 'o', 'return']","[0.5001044125610861, 0.650201880323948, 0.7834329502948094, 0.8667965167578586, 1.0332840300743555, 1.083189064363978, 1.299581932745241, 1.4498048238920092, 1.516470720696816, 1.699656545223661, 1.7662932514194836, 2.0496371863973764, 2.2161971950708903, 2.4159636060467164, 2.5328132914137313, 2.699298559298768, 2.8492709244537764, 2.9492538912518285, 3.0326793674685177, 3.199242583900741, 3.4323465945299176]",2017_Jan_25_1055,60.0503334375,famFaceFilter,001,2,
35,./img/smoo15_KatjaBurkard1_1.png,0,54,54,34,,,2.nein,3.246,None,act,0.475,None,None,None,None,None,,['return'],[0.48333103978620784],2017_Jan_25_1055,60.0503334375,famFaceFilter,001,2,
53,./img/smoo15_GuentherJauch4_1.png,0,55,55,52,,,1.ja,1.064,None,None,None,host,0.741,None,None,None,Günther Jauch,"['lshift', 'g', u'\xfc', 'n', 't', 'h', 'e', 'r', 'space', 'lshift', 'j', 'a', 'u', 'c', 'h', 'return']","[0.5833210636546937, 0.7667570933981551, 1.0000205296591957, 1.2165676912572962, 1.2834039200743064, 1.3997573650958657, 1.5164742492324876, 1.6663458907487438, 1.7496587746172736, 1.8495612266606258, 1.9830287084823794, 2.1160958619593657, 2.2328130668720405, 2.3325843215643545, 2.432683730021381, 2.665947487057565]",2017_Jan_25_1055,60.0503334375,famFaceFilter,001,2,
23,./img/smoo15_JoachimLoew4_1.png,0,56,56,22,,,1.ja,1.277,None,None,None,None,None,sport,0.491,None,Joachim Löw,"['lshift', 'j', 'o', 'a', 'c', 'h', 'i', 'm', 'space', 'lshift', 'l', u'\xf6', 'w', 'return']","[0.4168755719829278, 0.5669072806831537, 0.7500478758056488, 0.7999686281145841, 0.9666094723197602, 1.0166072108495428, 1.1665516684997783, 1.3332361382299496, 1.499661741793716, 1.5239890666734937, 1.6660793259597995, 1.799668381855554, 1.8258173931753845, 1.9828583764692667]",2017_Jan_25_1055,60.0503334375,famFaceFilter,001,2,
56,./img/smoo15_MariskaHargitay(Liv)6_5.png,0,57,57,55,,,1.ja,1.412,None,act,0.525,None,None,None,None,None,Emma Watson,"['lshift', 'e', 'm', 'm', 'a', 'space', 'lshift', 'w', 'a', 't', 's', 'o', 'n', 'return']","[0.2836396903740024, 0.3833111837566321, 0.5002327229285584, 0.6334884926454833, 0.6835154217833406, 0.833243355687955, 0.916707645790666, 0.9834149226880982, 1.1665673865200006, 1.233277229624946, 1.3498000443314595, 1.4497900681999454, 1.6163462275626443, 1.8663262592617684]",2017_Jan_25_1055,60.0503334375,famFaceFilter,001,2,
17,./img/smoo15_GeorgeClooney11_1.png,0,58,58,16,,,1.ja,3.661,None,act,1.624,None,None,None,None,None,Robert De Niro,"['lshift', 'r', 'o', 'b', 'backspace', 'backspace', 'o', 'b', 'e', 'r', 't', 'lshift', 'space', 'd', 'e', 'lshift', 'n', 'backspace', 'space', 'lshift', 'n', 'i', 'r', 'o', 'return']","[2.782584497989774, 2.9659448246165994, 3.0659059786530634, 3.2489885133345524, 3.5655827969158054, 3.682130632143526, 4.348486146169307, 4.581564494724262, 4.681864388130634, 4.815081343960628, 4.881644271695222, 5.0816275271927225, 5.2316980497780605, 5.398251963709299, 5.614433440760877, 5.664822846687457, 6.114504813403073, 6.780876687000273, 6.914214896127305, 7.030547811489669, 7.230562503026704, 7.280738592967282, 7.380739202441873, 7.613853477900193]",2017_Jan_25_1055,60.0503334375,famFaceFilter,001,2,
10,./img/smoo15_KatjaBurkard5_3.png,0,59,59,9,,,1.ja,1.527,None,None,None,host,0.541,None,None,None,Frauke Ludowig,"['lshift', 'f', 'r', 'a', 'u', 'k', 'e', 'space', 'lshift', 'l', 'u', 'd', 'o', 'w', 'i', 'g', 'return']","[0.38359442889213824, 0.533625496039349, 0.7001822969541536, 0.7668331172899343, 0.9000430160504038, 1.066455467801461, 1.09986684591604, 1.2332669647958028, 1.3166337390184708, 1.416482621482828, 1.5832302840690318, 1.6997139641134709, 1.7496347164224062, 1.883191373950467, 1.94958525277616, 3.232548105962451, 3.915543549981521]",2017_Jan_25_1055,60.0503334375,famFaceFilter,001,2,
22,./img/smoo15_WillSmith1_1.png,0,60,60,21,,,1.ja,1.112,None,act,0.458,None,None,None,None,None,Will Smith,"['lshift', 'w', 'i', 'l', 'l', 'space', 'lshift', 's', 'm', 'i', 't', 'h', 'return']","[0.30008073929911916, 0.4002321134548765, 0.5002619135375426, 0.6837280962181467, 0.8001126565031882, 1.000054211130191, 1.066616818089642, 1.1998780409958272, 1.2831582057206106, 1.4328810072111082, 1.5498243591464416, 1.6164828781047618, 1.8497745426457186]",2017_Jan_25_1055,60.0503334375,famFaceFilter,001,2,
37,./img/smoo15_Ice-T(OdafinFinTutuola)5_1.png,0,61,61,36,,,2.nein,1.084,None,act,0.408,None,None,None,None,None,,['return'],[0.43337756833170715],2017_Jan_25_1055,60.0503334375,famFaceFilter,001,2,
59,./img/smoo15_JoshRadnor(Ted)1_2.png,0,62,62,58,,,1.ja,1.2,None,dummy,0.541,None,None,None,None,None,,['return'],[0.6833617701186085],2017_Jan_25_1055,60.0503334375,famFaceFilter,001,2,
19,./img/smoo15_NicoleKidman7_1.png,0,63,63,18,,,1.ja,1.115,None,act,0.408,None,None,None,None,None,Nicole Kidman,"['lshift', 'n', 'i', 'c', 'o', 'l', 'e', 'space', 'lshift', 'k', 'i', 'd', 'm', 'a', 'n', 'return']","[0.5502051201610811, 0.7501299944406128, 1.4332989782324148, 1.5665355013934459, 1.6665848688071492, 1.833158350069425, 1.8997899238511309, 1.9996054456205457, 2.083043432096929, 2.183039871483743, 2.3331097525178848, 2.399511009190064, 2.516116584082738, 2.616218237971225, 2.6993306368904086, 2.932704420067239]",2017_Jan_25_1055,60.0503334375,famFaceFilter,001,2,
28,./img/smoo15_HughLaurie(DrHouse)5_3.png,0,64,64,27,,,1.ja,1.134,None,dummy,0.475,None,None,None,None,None,Doctor House,"['lshift', 'd', 'o', 'c', 't', 'o', 'r', 'space', 'lshift', 'h', 'o', 'u', 's', 'e', 'return']","[0.4168454190476041, 0.6002150481763238, 0.7668270225485685, 0.8835153576283119, 1.099967890330845, 1.1999200626414677, 1.2999091241827045, 1.399859051061867, 1.5163959799083386, 1.616489935174286, 1.7829370307254067, 1.9661780287106012, 2.049695888390488, 2.199512677225357, 2.299571347140045]",2017_Jan_25_1055,60.0503334375,famFaceFilter,001,2,
47,./img/smoo15_BarackObama4_1.png,0,65,65,46,,,1.ja,1.041,None,None,None,None,None,polit,0.608,None,Barack Obama,"['lshift', 'b', 'a', 'r', 'a', 'c', 'k', 'space', 'lshift', 'o', 'b', 'a', 'm', 'a', 'return']","[0.33357102828904317, 0.5168434623137728, 0.699999133905294, 0.8001591690108398, 0.8997430905674264, 1.0665584368716736, 1.1333141509330744, 1.2996002169729763, 1.3830577707803968, 1.4999276650305546, 1.6663715528220564, 1.7497110610911477, 1.8327150377508588, 1.9329857405482471, 2.0989343503215423]",2017_Jan_25_1055,60.0503334375,famFaceFilter,001,2,
26,./img/smoo15_TomCruise4_1.png,0,66,66,25,,,1.ja,1.1,None,act,0.408,None,None,None,None,None,Tom Cruise,"['lshift', 't', 'o', 'm', 'space', 'lshift', 'c', 'r', 'u', 'i', 's', 'e', 'return']","[0.3003299821875771, 0.5502086486967528, 0.6834727585865039, 0.8332933967312783, 1.0000978366551863, 1.0498238779819076, 1.1832679431627184, 1.4498275989826652, 1.5494965261577818, 1.6828485286487194, 1.7495670327043626, 1.8996734821930659, 2.0160022274685616]",2017_Jan_25_1055,60.0503334375,famFaceFilter,001,2,
50,./img/smoo15_OmarEpps(DrEricForeman)2_2.png,0,67,67,49,,,2.nein,0.986,None,act,0.492,None,None,None,None,None,,['return'],[0.4834025728159759],2017_Jan_25_1055,60.0503334375,famFaceFilter,001,2,
7,./img/smoo15_LisaEdelstein(DrLisaCuddy)2_2.png,0,68,68,6,,,2.nein,1.262,None,act,0.475,None,None,None,None,None,,['return'],[0.833483937627534],2017_Jan_25_1055,60.0503334375,famFaceFilter,001,2,
70,./img/smoo15_JasonSegel(Marshall)7_1.png,0,69,69,69,,,1.ja,1.235,None,act,0.408,None,None,None,None,None,,['return'],[0.3834548913673643],2017_Jan_25_1055,60.0503334375,famFaceFilter,001,2,
5,./img/smoo15_BarackObama1_3.png,0,70,70,4,,,1.ja,1.109,None,None,None,None,None,polit,0.974,None,Barack Obama,"['lshift', 'b', 'a', 'r', 'a', 'c', 'k', 'space', 'lshift', 'o', 'b', 'a', 'm', 'a', 'return']","[0.3836922655473245, 0.5169303925886197, 0.7002355457570957, 0.800229418937306, 0.9167326663118729, 1.083277277742127, 1.149977176793982, 1.3165795278891892, 1.3999017142587036, 1.5165114592391546, 1.6995615955529502, 1.7997258007453638, 1.882979661844729, 1.9829738558009922, 2.1495774899995013]",2017_Jan_25_1055,60.0503334375,famFaceFilter,001,2,
67,./img/smoo15_GeorgeClooney4_2.png,0,71,71,66,,,1.ja,1.379,None,act,0.642,None,None,None,None,None,Robert De Niro,"['lshift', 'r', 'o', 'b', 'e', 'r', 't', 'space', 'lshift', 'd', 'e', 'space', 'lshift', 'n', 'i', 'r', 'o', 'return']","[0.5002279112904944, 0.8999997113014615, 1.0333966224216056, 1.2165173294379201, 1.3998657873553384, 1.5497438443899227, 1.7498008783486512, 1.7995769607186958, 1.9162303312232325, 2.0994966705065963, 2.216266803445251, 2.315991545629913, 2.399202422756389, 2.565819208767607, 2.649345408622139, 2.7656314906998887, 3.6320979290385367]",2017_Jan_25_1055,60.0503334375,famFaceFilter,001,2,
39,./img/edges5_AlysonHannigan(Lily)8_3.png,0,0,0,38,,,1.ja,1.915,None,act,0.756,None,None,None,None,None,Alisson,"['lshift', 'l', 'backspace', 'backspace', 'lshift', 'a', 'l', 'i', 'c', 'i', 'a', 'backspace', 'backspace', 'backspace', 'backspace', 'i', 's', 's', 'o', 'n', 'return']","[8.580090529379959, 8.830129583848247, 9.446491208655061, 9.579788358464612, 9.763037375848398, 9.946309168321022, 10.046347308578333, 10.212931696221858, 10.296277620010187, 10.396065555049972, 10.546037278652875, 13.028295964542849, 13.211596947625367, 13.36152793268593, 13.578165232317588, 14.794334519883705, 15.027519045268491, 15.210839274905993, 15.294164989811179, 15.52730139880805, 17.11011980659805]",2017_Jan_25_1055,60.0503334375,famFaceFilter,001,2,
28,./img/edges5_Ice-T(OdafinFinTutuola)5_1.png,0,1,1,27,,,2.nein,1.313,None,act,0.591,None,None,None,None,None,,['return'],[0.516793421271359],2017_Jan_25_1055,60.0503334375,famFaceFilter,001,2,
56,./img/edges5_NeilPatrickHarris(Barney)1_1.png,0,2,2,55,,,1.ja,1.037,None,act,0.49,None,None,None,None,None,Barney Stinson,"['lshift', 'b', 'a', 'r', 'n', 'e', 'y', 'space', 'lshift', 's', 't', 'i', 'n', 's', 'o', 'n', 'return']","[0.38350332853133295, 0.5334455407491987, 0.7168584746268607, 0.7999814591521499, 0.9999637523214915, 1.0831913097954384, 1.2830093656939425, 1.3832563310743353, 1.5163189936874915, 1.616332434198739, 1.69963441168602, 1.8995807779519964, 2.0662033379303466, 2.1661792476588744, 2.282754669615315, 2.4326866170040375, 2.699350204221446]",2017_Jan_25_1055,60.0503334375,famFaceFilter,001,2,
72,./img/edges5_EmilyDeschanel6_12.png,0,3,3,71,,,2.nein,2.482,None,act,0.523,None,None,None,None,None,,['return'],[0.6500366807258615],2017_Jan_25_1055,60.0503334375,famFaceFilter,001,2,
17,./img/edges5_NeilPatrickHarris(Barney)3_7.png,0,4,4,16,,,1.ja,1.223,None,act,1.44,None,None,None,None,None,Barney Stinson,"['lshift', 'b', 'a', 'r', 'n', 'e', 'y', 'space', 'lshift', 's', 't', 'i', 'n', 's', 'o', 'n', 'return']","[0.4335045955958776, 0.5667953298870998, 0.7335872595504043, 0.9499547866334979, 1.066690275773908, 1.1666530336897267, 1.3664351626857751, 1.5332020718269632, 1.7997508212665707, 1.9329687394238135, 2.0663765569252064, 2.2661554781625455, 2.449431119946894, 2.5325585953351037, 2.632696496902099, 2.7993383034354338, 3.0158039879497665]",2017_Jan_25_1055,60.0503334375,famFaceFilter,001,2,
29,./img/edges5_TomCruise4_1.png,0,5,5,28,,,1.ja,1.277,None,act,0.457,None,None,None,None,None,Tom Cruise,"['lshift', 't', 'o', 'm', 'space', 'lshift', 'c', 'r', 'u', 'i', 's', 'e', 'return']","[0.35031713511216367, 0.7002637740379214, 0.8331766342971605, 0.9834376977787542, 1.1497234430416938, 1.216557747204206, 1.3829461407613053, 1.6494804552839923, 1.7332693706157443, 1.8997129376311932, 1.9496025746757368, 2.13269441185912, 2.2662324643833927]",2017_Jan_25_1055,60.0503334375,famFaceFilter,001,2,
44,./img/edges5_EmilyDeschanel5_1.png,0,6,6,43,,,1.ja,1.513,None,act,0.423,None,None,None,None,None,Nicole Kidman,"['lshift', 'n', 'i', 'c', 'o', 'l', 'e', 'space', 'lshift', 'k', 'i', 'd', 'm', 'a', 'n', 'return']","[0.4003370071795871, 0.5335029596390086, 0.7168039427206168, 0.8167830602087633, 0.9167746879566039, 1.0666007792924574, 1.1334941062232247, 1.2499174803951973, 1.333224911072648, 1.4164970563997485, 1.5830233836022671, 1.6497094892893074, 1.7658980554879236, 1.866350959007832, 1.966043944375997, 2.183891531547488]",2017_Jan_25_1055,60.0503334375,famFaceFilter,001,2,
13,./img/edges5_MariskaHargitay(Liv)6_5.png,0,7,7,12,,,2.nein,1.189,None,act,0.689,None,None,None,None,None,,['return'],[0.5335892483608404],2017_Jan_25_1055,60.0503334375,famFaceFilter,001,2,
8,./img/edges5_LeonardoDiCaprio3_1.png,0,8,8,7,,,1.ja,1.073,None,act,0.489,None,None,None,None,None,Leonardo DiCaprio,"['lshift', 'l', 'e', 'o', 'n', 'a', 'r', 'd', 'o', 'space', 'lshift', 'd', 'i', 'lshift', 'c', 'a', 'p', 'r', 'i', 'o', 'return']","[0.35019556103907235, 0.5335530006823319, 0.6501890492872917, 0.7333505269225498, 0.9158928749575352, 0.9660076966974884, 1.1832740379049937, 1.3665958714218505, 1.4497721047491723, 1.6331372430140618, 1.8162576292543235, 2.4325903842291154, 2.6159231241263114, 2.7824375826203323, 2.899279248588755, 3.1823588642091636, 3.315640616775454, 3.448764547589235, 3.5321441528485593, 3.6819237316758517, 3.9318607794020863]",2017_Jan_25_1055,60.0503334375,famFaceFilter,001,2,
30,./img/edges5_MariskaHargitay(Liv)8_8.png,0,9,9,29,,,2.nein,1.489,None,act,0.423,None,None,None,None,None,,['return'],[0.48341347919631517],2017_Jan_25_1055,60.0503334375,famFaceFilter,001,2,
71,./img/edges5_HughLaurie(DrHouse)4_1.png,0,10,10,70,,,1.ja,1.107,None,act,0.523,None,None,None,None,None,Hugh Laurie,"['lshift', 'd', 'o', 'c', 't', 'o', 'r', 'space', 'lshift', 'h', 'o', 'u', 's', 'e', 'backspace', 'backspace', 'backspace', 'backspace', 'backspace', 'backspace', 'backspace', 'backspace', 'backspace', 'backspace', 'backspace', 'backspace', 'backspace', 'lshift', 'h', 'u', 'g', 'h', 'space', 'lshift', 'l', 'a', 'u', 'r', 'i', 'e', 'return']","[0.25019815932319034, 0.483495918607332, 0.6334275452209113, 0.7500462719262941, 0.9665863764539608, 1.0164849952252553, 1.1664544733966977, 1.2498494759001915, 1.4162750794639578, 1.499757012241389, 1.6996680931570154, 1.882882145964686, 2.0161767295676327, 2.2160396940953433, 3.3821939212321013, 4.898315637729866, 5.048022400424088, 5.231630045283964, 6.164485230033279, 6.314407874920107, 6.464518173719625, 6.597679314540073, 6.780885989502167, 6.94759932906527, 7.097426703504425, 7.264158648070406, 7.397093962644249, 7.680610475065805, 7.897275040650129, 8.080446430260963, 8.213655045917221, 8.380318344437, 8.580148589820965, 8.613182414678704, 8.74669544668177, 8.896194025805016, 9.012945553740792, 9.096610649567992, 9.179887285758014, 9.280063680434978, 9.812744491395279]",2017_Jan_25_1055,60.0503334375,famFaceFilter,001,2,
58,./img/edges5_HughLaurie(DrHouse)5_3.png,0,11,11,57,,,1.ja,1.143,None,act,0.424,None,None,None,None,None,Hugh Laurie,"['lshift', 'h', 'u', 'g', 'h', 'space', 'lshift', 'l', 'a', 'u', 'r', 'i', 'e', 'return']","[0.4334952930939835, 0.6502718094743614, 0.7998893964631861, 0.9331685828210539, 1.0499242808436975, 1.1997830913232974, 1.2497346381214811, 1.4161544677181155, 1.4997223684422352, 1.6162958657432682, 1.6997229458393122, 1.8164151302298706, 1.899460486982207, 2.0495970894071434]",2017_Jan_25_1055,60.0503334375,famFaceFilter,001,2,
37,./img/edges5_JasonSegel(Marshall)9_1.png,0,12,12,36,,,1.ja,1.337,None,dummy,0.424,None,None,None,None,None,Eric,"['lshift', 'e', 'r', 'i', 'c', 'return']","[0.35034087253006874, 0.4499668157313863, 0.6833104459719834, 0.7502063391102638, 0.8833639513950402, 1.5831722236289352]",2017_Jan_25_1055,60.0503334375,famFaceFilter,001,2,
11,./img/edges5_RobertSeanLeonard(Wilson)1_1.png,0,13,13,10,,,2.nein,1.739,None,act,1.189,None,None,None,None,None,,['return'],[0.5335905314650518],2017_Jan_25_1055,60.0503334375,famFaceFilter,001,2,
59,./img/edges5_BastianSchweinsteiger3_1.png,0,14,14,58,,,1.ja,1.048,None,None,None,None,None,sport,0.706,None,Bastian Schweinsteiger,"['lshift', 'b', 'a', 's', 't', 'i', 'a', 'n', 'space', 'lshift', 's', 'c', 'h', 'w', 'e', 'i', 'n', 's', 't', 'e', 'i', 'g', 'e', 'r', 'return']","[0.31694585398690833, 0.5002291943928867, 0.666735954264368, 0.816625238456254, 0.8834316351130838, 1.0665978923088915, 1.1332387685924914, 1.2661827441161222, 1.4166231213357605, 1.4994712008983697, 1.6331613012080197, 1.8663086165861387, 1.9494415451645182, 2.0662004509467806, 2.216273539739632, 2.242052375650019, 2.399403870032984, 2.4828431396135784, 2.616047264406916, 2.6989963883834207, 2.7825755162639325, 2.9658492333928734, 3.049131643549117, 3.1491242336260257, 3.298975345483086]",2017_Jan_25_1055,60.0503334375,famFaceFilter,001,2,
7,./img/edges5_AngelaMerkel3_1.png,0,15,15,6,,,1.ja,1.231,None,None,None,None,None,polit,0.54,None,Angela Merkel,"['lshift', 'a', 'n', 'g', 'e', 'l', 'a', 'space', 'lshift', 'm', 'e', 'r', 'k', 'e', 'l', 'return']","[0.2671656015299959, 0.43378687840413477, 0.5671962997857918, 0.7499843621735636, 0.8001094487426599, 0.950228408492876, 1.0668153783817615, 1.3332364590060024, 1.4333535101386587, 1.5667385525493955, 1.7331862896517123, 1.8666178445719197, 1.9660692856732567, 2.04967952881816, 2.1664535110685392, 2.432906990059564]",2017_Jan_25_1055,60.0503334375,famFaceFilter,001,2,
16,./img/edges5_BritneySpears7_1.png,0,16,16,15,,,1.ja,1.079,None,None,None,music,1.774,None,None,None,Britney Spears,"['lshift', 'b', 'r', 'i', 't', 'n', 'e', 'y', 'space', 'lshift', 's', 'p', 'e', 'a', 'r', 's', 'return']","[0.36727752024853544, 0.5671873180599505, 0.6837367571670256, 0.7836988735316481, 0.9835400252968611, 1.166896823388015, 1.2167854981062192, 1.3998956195164283, 1.5167542866092845, 1.6168103903173687, 1.6999490928619707, 1.8167272451992176, 1.9663374543415557, 2.1332814317902375, 2.1995171680882777, 2.333012236639661, 2.516343372657502]",2017_Jan_25_1055,60.0503334375,famFaceFilter,001,2,
35,./img/edges5_WillSmith1_1.png,0,17,17,34,,,1.ja,1.062,None,act,0.574,None,None,None,None,None,Will Smith,"['lshift', 'w', 'i', 'l', 'l', 'space', 'lshift', 's', 'm', 'i', 't', 'h', 'return']","[0.36695161191528314, 0.500147396534885, 0.6166336427859278, 0.8165954062960736, 0.933327687676865, 1.1331685186660252, 1.2163428273379395, 1.2998962931451388, 1.4164964148476429, 1.5661855348662357, 1.6663218325538764, 1.7497864434326402, 2.2495947798206544]",2017_Jan_25_1055,60.0503334375,famFaceFilter,001,2,
12,./img/edges5_UrsulavonderLeyen4_1.png,0,18,18,11,,,1.ja,1.184,None,None,None,None,None,polit,0.49,None,Ursula von der Leyen,"['lshift', 'u', 's', 'backspace', 'r', 's', 'u', 'l', 'a', 'space', 'v', 'o', 'n', 'space', 'd', 'e', 'r', 'space', 'lshift', 'l', 'e', 'y', 'e', 'n', 'return']","[0.28352324871593737, 0.5335898899129461, 0.9834835687343002, 1.3666699706582222, 1.483154933805963, 1.849743106605274, 1.9658925381427252, 2.1329532780246154, 2.2162645580137905, 2.365939563892425, 2.4828004764158322, 2.5661377392543727, 2.7325909295477686, 2.8660058041195953, 2.9156718603489935, 2.9825632626243532, 3.116002195390138, 3.215830227420156, 3.349084393256817, 3.4488594972608553, 3.599086879270544, 3.832296425176537, 4.015848255026867, 4.115538353412376, 4.38178204495307]",2017_Jan_25_1055,60.0503334375,famFaceFilter,001,2,
64,./img/edges5_EmilyDeschanel3_1.png,0,19,19,63,,,2.nein,1.946,None,dummy,0.579,None,None,None,None,None,,['return'],[0.5002150802529286],2017_Jan_25_1055,60.0503334375,famFaceFilter,001,2,
1,./img/edges5_BastianSchweinsteiger6_2.png,0,20,20,0,,,1.ja,1.089,None,None,None,None,None,sport,0.54,None,Bastian Schweinsteiger,"['lshift', 'b', 'a', 's', 't', 'i', 'a', 'n', 'space', 'lshift', 's', 'c', 'h', 'w', 'e', 'i', 'n', 's', 't', 'e', 'i', 'g', 'e', 'r', 'return']","[0.3334619644765553, 0.5337464285612441, 0.6669133433479146, 0.7999185870712608, 0.8832667562910501, 1.0665497759218852, 1.0909265002928805, 1.249905932461843, 1.3997708376837181, 1.483270733912832, 1.599780396805727, 1.7998223542963387, 1.8995804571759436, 1.9994697574065867, 2.132868913958191, 2.16546455891239, 2.3160900238362956, 2.3991494947294996, 2.4826718452732166, 2.5660042964727836, 2.6660167746558727, 2.815898360225219, 2.865760731318005, 2.9992381571937585, 3.1324791712177102]",2017_Jan_25_1055,60.0503334375,famFaceFilter,001,2,
41,./img/edges5_OmarEpps(DrEricForeman)3_1.png,0,21,21,40,,,2.nein,1.392,None,dummy,0.406,None,None,None,None,None,,['return'],[0.850157549092728],2017_Jan_25_1055,60.0503334375,famFaceFilter,001,2,
31,./img/edges5_GeorgeClooney4_2.png,0,22,22,30,,,1.ja,1.087,None,act,0.64,None,None,None,None,None,Robert De Niro,"['lshift', 'r', 'b', 'backspace', 'o', 'b', 'e', 'r', 't', 'space', 'lshift', 'd', 'e', 'backspace', 'backspace', 'lshift', 'd', 'e', 'space', 'lshift', 'n', 'i', 'r', 'o', 'return']","[0.3668245846511127, 0.550120435318604, 0.8833507995814216, 1.249920046601801, 2.33266547787116, 2.549551378839169, 2.865938441176695, 2.9825680742633267, 3.065841502693729, 3.282466292063873, 3.3657005858331104, 3.948485632927259, 4.131950211727599, 4.448581384539466, 4.565211979953347, 5.398265436298061, 5.531615193358448, 5.748152410903458, 5.8480917521774245, 5.931321555082832, 6.03187710689599, 6.214567653405538, 6.264549032362993, 6.381081470346544, 6.614356133764886]",2017_Jan_25_1055,60.0503334375,famFaceFilter,001,2,
53,./img/edges5_KatjaBurkard4_1.png,0,23,23,52,,,1.ja,1.499,None,None,None,host,0.456,None,None,None,Frauke Ludowig,"['lshift', 'f', 'r', 'a', 'u', 'k', 'e', 'space', 'lshift', 'l', 'u', 'd', 'o', 'w', 'i', 'g', 'return']","[0.3502250724231999, 0.5500104091779576, 0.7168270385864162, 0.8002473823880791, 0.9167150236362431, 1.09994190748057, 1.1499017944524894, 1.2832371165959557, 1.3498378958893227, 1.4332319360655674, 1.616491218277588, 1.6994724198466429, 1.7829129725305393, 1.8829812657240836, 1.9829526845896908, 2.1159521543468145, 2.7824696602110635]",2017_Jan_25_1055,60.0503334375,famFaceFilter,001,2,
32,./img/edges5_Ice-T(OdafinFinTutuola)7_1.png,0,24,24,31,,,2.nein,1.106,None,act,0.473,None,None,None,None,None,,['return'],[1.2829750426708415],2017_Jan_25_1055,60.0503334375,famFaceFilter,001,2,
66,./img/edges5_BritneySpears1_1.png,0,25,25,65,,,1.ja,1.323,None,None,None,music,1.039,None,None,None,Britney Spears,"['lshift', 'b', 'r', 'i', 't', 'n', 'e', 'y', 'space', 'lshift', 's', 'p', 'e', 'a', 'r', 's', 'return']","[0.5167671176459407, 0.6502653939560332, 0.783444177452111, 0.9167105327733225, 1.0001138754514614, 1.1497853527944244, 1.233129993478542, 1.3998058022589248, 1.5497913192266424, 1.6330249714428646, 1.7496343956472629, 1.8830832724661377, 1.9829420989844948, 2.1656951967979694, 2.266178894805307, 2.3658526336184877, 2.582749120191693]",2017_Jan_25_1055,60.0503334375,famFaceFilter,001,2,
5,./img/edges5_AlysonHannigan(Lily)1_1.png,0,26,26,4,,,1.ja,1.045,None,act,0.506,None,None,None,None,None,Alisson,"['lshift', 'a', 'l', 'i', 's', 's', 'o', 'n', 'return']","[0.3834638730932056, 0.5334009528969545, 0.7000822148684165, 1.0166081731777012, 1.283188037880791, 1.416260323771894, 1.5165554055392931, 1.6998124423207628, 1.9830473134861677]",2017_Jan_25_1055,60.0503334375,famFaceFilter,001,2,
38,./img/edges5_GeorgeClooney11_1.png,0,27,27,37,,,1.ja,1.478,None,act,0.474,None,None,None,None,None,Robert De Niro,"['lshift', 'r', 'o', 'b', 'e', 'r', 't', 'space', 'lshift', 'd', 'e', 'space', 'lshift', 'n', 'i', 'r', 'o', 'return']","[0.3669933127839613, 0.5165486692449122, 0.6502301086047737, 0.8501379817607813, 0.9499910343129159, 1.0998889794545903, 1.1498732453956109, 1.3331476040766574, 1.359879144464685, 1.4495918286820597, 1.649769474385721, 1.7497264583353171, 1.8495936250274099, 1.9328083514647005, 2.116237003362585, 2.1661561517921655, 2.299557874551283, 2.5661377392543727]",2017_Jan_25_1055,60.0503334375,famFaceFilter,001,2,
69,./img/edges5_GuentherJauch2_1.png,0,28,28,68,,,1.ja,1.031,None,None,None,host,0.507,None,None,None,Günther Jauch,"['lshift', 'g', u'\xfc', 'm', 'n', 't', 'h', 'backspace', 'backspace', 'backspace', 'backspace', 'n', 't', 'h', 'e', 'r', 'space', 'lshift', 'j', 'a', 'u', 'c', 'h', 'return']","[0.333970394307471, 0.7835311077260485, 0.9499605606015393, 1.149902436004595, 1.2164313614921411, 1.36655384977621, 1.683019181437885, 1.8164584349797224, 1.9493238204031513, 2.0995162378376335, 2.466023575106192, 2.7326146669656737, 2.849292095665078, 2.94916247011588, 3.0990693969833956, 3.165692951366509, 3.2824399884393642, 3.398982370476915, 3.5655327558733916, 3.665016916118475, 3.7655567499114113, 3.8486505438277163, 4.065231386897722]",2017_Jan_25_1055,60.0503334375,famFaceFilter,001,2,
45,./img/edges5_WillSmith4_1.png,0,29,29,44,,,1.ja,1.247,None,dummy,0.406,None,None,None,None,None,Will Smith,"['lshift', 'w', 'i', 'l', 'l', 'space', 'lshift', 's', 'm', 'i', 't', 'h', 'return']","[0.3336813752048329, 0.4667437170419362, 0.5835924400817021, 0.8000995046895696, 0.9167923306322336, 1.1000596322428464, 1.166726170599759, 1.2999851480744837, 1.3665192059770561, 1.5331841083761901, 1.6497996273219542, 1.71634619548513, 1.932867695009918]",2017_Jan_25_1055,60.0503334375,famFaceFilter,001,2,
49,./img/edges5_RobertSeanLeonard(Wilson)2_6.png,0,30,30,48,,,2.nein,1.456,None,act,0.406,None,None,None,None,None,,['return'],[0.4336588888136248],2017_Jan_25_1055,60.0503334375,famFaceFilter,001,2,
2,./img/edges5_OmarEpps(DrEricForeman)1_5.png,0,31,31,1,,,2.nein,1.123,None,dummy,0.406,None,None,None,None,None,,['return'],[0.5834686205771504],2017_Jan_25_1055,60.0503334375,famFaceFilter,001,2,
36,./img/edges5_AngelaMerkel1_1.png,0,32,32,35,,,1.ja,1.259,None,None,None,None,None,polit,0.823,None,Angela Merkel,"['lshift', 'a', 'n', 'g', 'e', 'l', 'a', 'space', 'lshift', 'm', 'e', 'r', 'k', 'e', 'l', 'return']","[0.683371393395646, 0.8000802581345852, 0.9000510354480866, 1.0832997320558206, 1.1833875925794928, 1.2829869113802488, 1.4165188691622461, 1.4830927032780892, 1.566412964992196, 1.683160322841104, 1.8662999556363502, 1.982965515626347, 2.066217131294252, 2.1995540573179824, 2.2830321407845986, 2.566108548646298]",2017_Jan_25_1055,60.0503334375,famFaceFilter,001,2,
15,./img/edges5_LisaEdelstein(DrLisaCuddy)6_3.png,0,33,33,14,,,2.nein,1.3,None,act,0.406,None,None,None,None,None,,['return'],[0.516954771557721],2017_Jan_25_1055,60.0503334375,famFaceFilter,001,2,
62,./img/edges5_AlysonHannigan(Lily)5_4.png,0,34,34,61,,,1.ja,1.1,None,act,0.406,None,None,None,None,None,Alisson,"['lshift', 'a', 'l', 'i', 's', 's', 'o', 'n', 'return']","[0.35028666139987763, 0.516916599223805, 0.6500187172750884, 0.8500196154473088, 0.9666386629287445, 1.1163880888198037, 1.1832073165132897, 1.3664335588064205, 1.5831109554274008]",2017_Jan_25_1055,60.0503334375,famFaceFilter,001,2,
70,./img/edges5_BastianSchweinsteiger1_1.png,0,35,35,69,,,1.ja,1.149,None,None,None,None,None,sport,0.506,None,Bastian Schweinsteiger,"['lshift', 'b', 'a', 's', 't', 'i', 'a', 'n', 'space', 'lshift', 's', 'c', 'h', 'w', 'e', 'i', 'n', 's', 't', 'e', 'i', 'g', 'e', 'r', 'return']","[0.6501826337689636, 0.7835570905754139, 0.9335236817632904, 1.1002174539953558, 1.1501391686324496, 1.333323068503887, 1.3831912135628954, 1.533226450796974, 1.6664161406743006, 1.6907287098620145, 1.7997646146313855, 1.999639127091541, 2.0830771135688337, 2.1994850904957275, 2.332913758432369, 2.3599474697357437, 2.516152510986103, 2.599441336660675, 2.716104651218302, 2.7827779258695955, 2.8991111620071024, 3.0660320435890753, 3.149303868140123, 3.282547448371588, 3.4152367278156817]",2017_Jan_25_1055,60.0503334375,famFaceFilter,001,2,
67,./img/edges5_LeonardoDiCaprio2_1.png,0,36,36,66,,,1.ja,1.196,None,dummy,0.474,None,None,None,None,None,Leonardo DiCaprio,"['lshift', 'l', 'e', 'o', 'n', 'a', 'r', 'd', 'o', 'space', 'lshift', 'd', 'i', 'lshift', 'c', 'a', 'p', 'r', 'i', 'o', 'return']","[0.36696091441626777, 0.5335613408560675, 0.6833916022787889, 0.783564468420991, 1.033371922675542, 1.1999255158316373, 1.3997541573353374, 1.5831728651801313, 1.6497181502390958, 1.866582879996713, 1.9497690573771251, 2.0329950109717174, 2.1829122026683763, 2.3162507325714614, 2.4994766540885394, 2.68274812578602, 2.8494649938838847, 2.9493668043751313, 3.065859145369359, 3.232574088811816, 3.4658080136878198]",2017_Jan_25_1055,60.0503334375,famFaceFilter,001,2,
19,./img/edges5_HughLaurie(DrHouse)2_1.png,0,37,37,18,,,1.ja,1.065,None,act,0.406,None,None,None,None,None,Hugh Laurie,"['lshift', 'h', 'u', 'g', 'h', 'space', 'lshift', 'l', 'a', 'u', 'r', 'i', 'e', 'return']","[0.4169028379365045, 0.6001332503165031, 0.7665431358600472, 0.9334033907935009, 1.0832253120424866, 1.2497574132121372, 1.2997394337216974, 1.4497968044943264, 1.549734541888938, 1.6498509514694888, 1.7662220391657684, 1.8496892162511358, 1.9663547762411326, 2.082910310090483]",2017_Jan_25_1055,60.0503334375,famFaceFilter,001,2,
4,./img/edges5_LeonardoDiCaprio1_1.png,0,38,38,3,,,1.ja,0.972,None,act,0.406,None,None,None,None,None,Leonardo DiCaprio,"['lshift', 'l', 'e', 'o', 'n', 'a', 'r', 'd', 'o', 'space', 'lshift', 'd', 'i', 'lshift', 'c', 'a', 'p', 'r', 'i', 'o', 'return']","[0.4501252790350918, 0.6002904305169068, 0.750168808327544, 0.8168558763418332, 1.000173539771822, 1.1000400649127187, 1.2833651061882847, 1.449811880962443, 1.4998092987161726, 1.6997489286886776, 1.7663667091055686, 2.2996053493880027, 2.416198414020073, 2.532733418211137, 2.6659959242215336, 2.7989748643194616, 2.949332160576887, 3.0159024661570584, 3.1491338569039726, 3.29909724033314, 3.5487622700802604]",2017_Jan_25_1055,60.0503334375,famFaceFilter,001,2,
25,./img/edges5_JoachimLoew8_1.png,0,39,39,24,,,1.ja,0.989,None,None,None,None,None,sport,0.756,None,Joachim Löw,"['lshift', 'j', 'o', 'a', 'c', 'h', 'i', 'm', 'space', 'lshift', 'l', u'\xf6', 'w', 'return']","[0.33352066647057654, 0.6000479239228298, 0.7834162699473382, 0.8499689328527893, 1.016607852402558, 1.0831935552268988, 1.233302891699168, 1.39977661165085, 1.5664562697420479, 1.5912413418573124, 1.7497636683428937, 1.882951754339956, 1.932886620789759, 2.0994556111891143]",2017_Jan_25_1055,60.0503334375,famFaceFilter,001,2,
14,./img/edges5_AngelaMerkel4_1.png,0,40,40,13,,,1.ja,1.329,None,None,None,None,None,polit,0.69,None,Angela Merkel,"['lshift', 'a', 'n', 'g', 'e', 'l', 'a', 'space', 'lshift', 'm', 'e', 'r', 'k', 'e', 'l', 'return']","[0.333534139058429, 0.48336985367132, 0.6001874614466942, 0.783366870455211, 0.866835009868737, 0.9835252696038879, 1.0834091166443613, 1.1834886369942978, 1.2496926164758406, 1.3499206560763923, 1.5332274131251324, 1.6665194305196565, 1.733080754374896, 1.8663262592617684, 1.9329719471834323, 2.166381015711522]",2017_Jan_25_1055,60.0503334375,famFaceFilter,001,2,
26,./img/edges5_NicoleKidman7_1.png,0,41,41,25,,,1.ja,1.39,None,act,0.457,None,None,None,None,None,Nicole Kidman,"['lshift', 'n', 'i', 'c', 'o', 'l', 'e', 'space', 'lshift', 'k', 'i', 'd', 'm', 'a', 'n', 'return']","[0.34984751916636014, 0.4835077873158298, 0.7001245572882908, 0.8165793674997985, 0.8832542460304467, 1.0665667770454093, 1.1166495211937217, 1.2330767446756, 1.3162786400762343, 1.4163956912088906, 1.5659237817171743, 1.6162528817703787, 1.733033921090282, 1.8162107959697096, 1.8995932882125999, 2.0994694045530196]",2017_Jan_25_1055,60.0503334375,famFaceFilter,001,2,
6,./img/edges5_GuentherJauch3_1.png,0,42,42,5,,,1.ja,1.289,None,None,None,host,0.506,None,None,None,Günther Jauch,"['lshift', 'g', u'\xfc', 'n', 't', 'h', 'e', 'r', 'space', 'lshift', 'j', 'a', 'u', 'c', 'h', 'return']","[0.38333267574216734, 0.5999882596015595, 0.8166675808779473, 1.033258368001043, 1.0999787967120938, 1.2164217382141942, 1.283174565292029, 1.4498378638118083, 1.5330679874932684, 1.6330990706801458, 1.7495946194330827, 1.8996699536573942, 1.999236232538351, 2.099593865609677, 2.1994558998867433, 2.4161297679729614]",2017_Jan_25_1055,60.0503334375,famFaceFilter,001,2,
10,./img/edges5_GuentherJauch4_1.png,0,43,43,9,,,1.ja,1.181,None,None,None,host,0.674,None,None,None,Günther Jauch,"['lshift', 'g', u'\xfc', 'n', 't', 'h', 'e', 'r', 'space', 'lshift', 'j', 'a', 'u', 'c', 'h', 'return']","[0.4502978564787554, 0.6835600096364942, 0.9334130140714478, 1.1499280980779076, 1.2331960733181404, 1.3665018840774792, 1.4831972762276564, 1.6494759644210717, 1.7330419404888744, 1.8162467228730748, 1.966786540627254, 2.082909668539287, 2.2161856471384453, 2.2994860207463717, 2.416218302127163, 2.6327349900129775]",2017_Jan_25_1055,60.0503334375,famFaceFilter,001,2,
57,./img/edges5_BritneySpears5_1.png,0,44,44,56,,,1.ja,1.176,None,None,None,music,0.506,None,None,None,Britney Spears,"['lshift', 'b', 'r', 'i', 't', 'n', 'e', 'y', 'space', 'lshift', 's', 'p', 'e', 'a', 'r', 's', 'return']","[0.3669009293198542, 0.48350874964398827, 0.6667741265991936, 0.7500478758056488, 0.850073505801447, 0.9665026539396422, 1.0665423980753985, 1.249258606658259, 1.3665320370137124, 1.4830814761207876, 1.566527481995763, 1.683026880059515, 1.8162897068459642, 1.982631267119359, 2.0829799184648436, 2.1827646457459196, 2.3993977752907085]",2017_Jan_25_1055,60.0503334375,famFaceFilter,001,2,
55,./img/edges5_JoachimLoew1_1.png,0,45,45,54,,,1.ja,0.955,None,None,None,None,None,sport,0.473,None,Joachim Löw,"['lshift', 'j', 'o', 'a', 'c', 'h', 'i', 'm', 'space', 'lshift', 'l', u'\xf6', 'w', 'return']","[0.3669140811325633, 0.5167799486816875, 0.7001393129812641, 0.7833902870970633, 0.9498149283335806, 1.0165308661808012, 1.1667123772349441, 1.349595710070389, 1.4829942250707973, 1.5163959799074291, 1.6664273678306927, 1.816226193213879, 1.8830890464323602, 2.0328914003503087]",2017_Jan_25_1055,60.0503334375,famFaceFilter,001,2,
22,./img/edges5_JasonSegel(Marshall)6_1.png,0,46,46,21,,,1.ja,1.206,None,act,0.407,None,None,None,None,None,Eric,"['lshift', 'e', 'r', 'i', 'c', 'return']","[0.2668637513907015, 0.36703373055024713, 0.5669169039611006, 0.6667234440046741, 0.8001867557395599, 0.9165270489484101]",2017_Jan_25_1055,60.0503334375,famFaceFilter,001,2,
21,./img/edges5_JoshRadnor(Ted)3_1.png,0,47,47,20,,,1.ja,1.098,None,act,0.407,None,None,None,None,None,Ted Mosby,"['lshift', 't', 'e', 'd', 'space', 'lshift', 'm', 'p', 'o', 's', 'b', 'y', 'backspace', 'backspace', 'backspace', 'backspace', 'backspace', 'o', 's', 'b', 'y', 'return']","[0.3006125857709776, 0.6002031794669165, 0.7168119621192091, 0.9000183163052498, 0.9834893427014322, 1.0995845631077827, 1.1664657005539993, 1.3667328427382017, 1.4498885464072373, 1.5496158547985033, 1.666332097383929, 1.9160189398935472, 2.03298538769468, 2.182918297411561, 2.3157692479180696, 2.4327911899536048, 2.8825629739267242, 2.9992567621966373, 3.0990710008627502, 3.232376490846036, 3.365687754796454]",2017_Jan_25_1055,60.0503334375,famFaceFilter,001,2,
48,./img/edges5_GeorgeClooney3_1.png,0,48,48,47,,,1.ja,1.232,None,dummy,1.622,None,None,None,None,None,Robert De Niro,"['lshift', 'r', 'o', 'b', 't', 'e', 'r', 'backspace', 'backspace', 'backspace', 'e', 'r', 't', 'lshift', 'space', 'd', 'e', 'space', 'lshift', 'n', 'i', 'r', 'p', 'o', 'backspace', 'backspace', 'o', 'return']","[2.0995014821446603, 2.399567786526859, 2.4993861952798397, 2.699387414228113, 2.8991849404683308, 3.0991762153635136, 3.2492031124238565, 3.7823968440779936, 3.9155473992932457, 4.065468119524667, 4.7984375646556146, 4.94855427897437, 5.031710624194602, 5.2483706989160055, 5.6645662259525125, 5.864762155883, 5.9648458463207135, 6.064429447100338, 6.148032633175717, 6.314701705661719, 6.381298635643361, 6.514574293466467, 6.914371434775603, 7.147709291049978, 7.697360110423688, 7.914054187392139]",2017_Jan_25_1055,60.0503334375,famFaceFilter,001,2,
51,./img/edges5_Ice-T(OdafinFinTutuola)6_1.png,0,49,49,50,,,2.nein,1.167,None,dummy,0.59,None,None,None,None,None,,['return'],[0.5002413838783468],2017_Jan_25_1055,60.0503334375,famFaceFilter,001,2,
27,./img/edges5_OmarEpps(DrEricForeman)2_2.png,0,50,50,26,,,2.nein,1.039,None,dummy,0.423,None,None,None,None,None,,['return'],[0.5834869048048859],2017_Jan_25_1055,60.0503334375,famFaceFilter,001,2,
68,./img/edges5_MariskaHargitay(Liv)4_4.png,0,51,51,67,,,2.nein,2.377,None,act,1.707,None,None,None,None,None,,['return'],[0.633583763092247],2017_Jan_25_1055,60.0503334375,famFaceFilter,001,2,
43,./img/edges5_BarackObama1_3.png,0,52,52,42,,,1.ja,1.06,None,None,None,None,None,polit,0.655,None,Barack Obama,"['lshift', 'b', 'a', 'r', 'a', 'c', 'k', 'space', 'lshift', 'o', 'b', 'a', 'm', 'a', 'return']","[0.3500637221359284, 0.5002625550887387, 0.6500536818493856, 0.7834999924616568, 0.8667541743370748, 1.0666213089516532, 1.0998450331535423, 1.283279459017649, 1.3830898483720375, 1.4828457058210915, 1.649704677650334, 1.716325986601987, 1.8330406253071487, 1.8996080439046636, 2.066203337929437]",2017_Jan_25_1055,60.0503334375,famFaceFilter,001,2,
34,./img/edges5_KatjaBurkard1_1.png,0,53,53,33,,,2.nein,5.371,None,None,None,host,0.45,None,None,None,,['return'],[0.6504078184643731],2017_Jan_25_1055,60.0503334375,famFaceFilter,001,2,
33,./img/edges5_BarackObama2_1.png,0,54,54,32,,,1.ja,1.044,None,None,None,None,None,polit,0.522,None,Barack Obama,"['lshift', 'b', 'a', 'r', 'a', 'c', 'k', 'space', 'lshift', 'o', 'b', 'a', 'm', 'a', 'return']","[0.4002571339760834, 0.5503209202670405, 0.7001508609146185, 0.8169238808368391, 0.8834313143370309, 1.0500352693125024, 1.1334110252610117, 1.283299667900792, 1.399781423288914, 1.5166076920140767, 1.6664742011153066, 1.7831195522221606, 1.8830537610811007, 1.982996310114686, 2.449304092683633]",2017_Jan_25_1055,60.0503334375,famFaceFilter,001,2,
46,./img/edges5_TomCruise5_1.png,0,55,55,45,,,1.ja,1.075,None,act,0.406,None,None,None,None,None,Tom Cruise,"['lshift', 't', 'o', 'm', 'space', 'lshift', 'c', 'r', 'u', 'i', 's', 'e', 'return']","[0.40020709293276013, 0.5669621333645409, 0.7834265347764813, 0.9666332097376653, 1.1167630758682208, 1.166549423068318, 1.283125807352917, 1.8498739831802595, 1.932690947478477, 2.082682238412417, 2.166232175684854, 2.332767163837161, 2.4159039417263557]",2017_Jan_25_1055,60.0503334375,famFaceFilter,001,2,
52,./img/edges5_BarackObama4_1.png,0,56,56,51,,,1.ja,1.013,None,None,None,None,None,polit,1.007,None,Barack Obama,"['lshift', 'b', 'a', 'r', 'a', 'c', 'k', 'space', 'lshift', 'o', 'b', 'a', 'm', 'a', 'return']","[0.38341800213675015, 0.5335979093106289, 0.7165376987086347, 0.8165395912865279, 0.9167467804527405, 1.099868449796304, 1.1498908880712406, 1.3331004500169001, 1.4330907946614388, 1.5329233175543777, 1.7164016897195324, 1.7996279640901776, 1.9160599992110292, 1.9827114610989156, 2.149453349718897]",2017_Jan_25_1055,60.0503334375,famFaceFilter,001,2,
20,./img/edges5_JoshRadnor(Ted)1_2.png,0,57,57,19,,,1.ja,1.239,None,act,0.407,None,None,None,None,None,Ted Mosby,"['lshift', 't', 'e', 'd', 'space', 'lshift', 'm', 'o', 's', 'b', 'y', 'return']","[0.433646057776059, 0.6834397186667047, 0.800083465894204, 0.9667490098445342, 1.0500737624224712, 1.1665006651282965, 1.2496396884498608, 1.416532341751008, 1.4997720887095056, 1.6330448595499547, 1.7161922230443452, 2.1661628880865464]",2017_Jan_25_1055,60.0503334375,famFaceFilter,001,2,
61,./img/edges5_NeilPatrickHarris(Barney)2_2.png,0,58,58,60,,,1.ja,0.998,None,dummy,0.458,None,None,None,None,None,Barney Stinson,"['lshift', 'b', 'a', 'r', 'n', 'e', 'y', 'space', 'lshift', 's', 't', 'i', 'n', 's', 'o', 'n', 'return']","[0.5500819422077257, 0.6835057985053936, 0.8333610804502314, 0.9501049097634677, 1.166587595402234, 1.2663967016533206, 1.4831376119063862, 1.633071804726569, 1.8496805553013473, 1.9993584481626385, 2.132992091910637, 2.33276588073295, 2.5159651778494663, 2.765889394538135, 2.882571634875603, 3.0824657146677055, 7.46404182148035]",2017_Jan_25_1055,60.0503334375,famFaceFilter,001,2,
65,./img/edges5_LisaEdelstein(DrLisaCuddy)1_1.png,0,59,59,64,,,2.nein,1.706,None,act,1.023,None,None,None,None,None,,['return'],[0.5834743945433729],2017_Jan_25_1055,60.0503334375,famFaceFilter,001,2,
18,./img/edges5_JoshRadnor(Ted)6_2.png,0,60,60,17,,,1.ja,1.402,None,act,0.657,None,None,None,None,None,Ted Mosby,"['lshift', 't', 'e', 'd', 'space', 'lshift', 'm', 'o', 's', 'b', 'y', 'return']","[0.5167931004943966, 0.6834272084051918, 0.8334473691720632, 0.983164075919376, 1.0833045436938846, 1.1997949600327047, 1.2665679959936824, 1.4330324134434704, 1.516454681900541, 1.6498541592281981, 1.7827737557818182, 2.1992063362222325]",2017_Jan_25_1055,60.0503334375,famFaceFilter,001,2,
24,./img/edges5_JasonSegel(Marshall)7_1.png,0,61,61,23,,,1.ja,1.206,None,act,0.423,None,None,None,None,None,Eric,"['lshift', 'e', 'r', 'i', 'c', 'return']","[0.25022350062135956, 0.3836168832067415, 0.60024327645624, 0.6670262564712175, 0.8168388752183091, 0.91678976442563]",2017_Jan_25_1055,60.0503334375,famFaceFilter,001,2,
47,./img/edges5_UrsulavonderLeyen5_1.png,0,62,62,46,,,1.ja,1.407,None,None,None,None,None,polit,0.54,None,Ursula von der Leyen,"['lshift', 'u', 'r', 's', 'u', 'l', 'a', 'space', 'v', 'o', 'n', 'space', 'd', 'e', 'r', 'space', 'lshift', 'l', 'e', 'y', 'e', 'n', 'return']","[0.4168001896423448, 0.5833922759084089, 0.7334137197785822, 0.89983066239256, 0.9832006443748469, 1.183298416874095, 1.26648940589439, 1.4164643372560022, 1.6164607445653019, 1.7163295151376587, 1.8662547262320004, 2.0329100053531874, 2.1492583179597204, 2.216066318495905, 2.399358961404687, 2.549370781996913, 2.665866009973797, 2.8159583453225423, 2.9492686469448017, 3.165677233346287, 3.3989968053920165, 3.5156411941716215, 3.782144072653864]",2017_Jan_25_1055,60.0503334375,famFaceFilter,001,2,
50,./img/edges5_WillSmith5_1.png,0,63,63,49,,,1.ja,1.124,None,dummy,0.44,None,None,None,None,None,Will Smith,"['lshift', 'w', 'i', 'l', 'l', 'space', 'lshift', 's', 'm', 'i', 't', 'h', 'return']","[0.300242410361534, 0.366908948717537, 0.5335812289631576, 0.7335291991084887, 0.849999085788113, 1.050010248790386, 1.1499450992014317, 1.2499742577319921, 1.3498356504578624, 1.5164434547432393, 1.6330859188674367, 1.6830365033365524, 1.8996693121052886]",2017_Jan_25_1055,60.0503334375,famFaceFilter,001,2,
42,./img/edges5_JoachimLoew4_1.png,0,64,64,41,,,1.ja,0.939,None,None,None,None,None,sport,0.523,None,Joachim Löw,"['lshift', 'j', 'o', 'a', 'c', 'h', 'i', 'm', 'space', 'lshift', 'l', u'\xf6', 'w', 'return']","[0.30021578596006293, 0.4836312860452381, 0.6667250478840288, 0.783520522119943, 0.9333302538843782, 0.9832105884279372, 1.1165885737691497, 1.2830029501756144, 1.4498038615647602, 1.4997788250038866, 1.633004121007616, 1.7661829045036939, 1.8496459115021935, 1.9830056126156705]",2017_Jan_25_1055,60.0503334375,famFaceFilter,001,2,
23,./img/edges5_UrsulavonderLeyen1_1.png,0,65,65,22,,,1.ja,1.122,None,None,None,None,None,polit,0.557,None,Ursula von der Leyen,"['lshift', 'u', 'r', 's', 'u', 'l', 'a', 'space', 'v', 'o', 'n', 'space', 'd', 'e', 'r', 'space', 'lshift', 'l', 'e', 'y', 'e', 'n', 'return']","[0.4167751691211379, 0.6003183380216797, 0.7498752983619852, 0.9167650646795664, 0.9666688158658872, 1.1497045172627622, 1.182989830441329, 1.3499565829797575, 1.416392162675038, 1.533186995359756, 1.6830470889426579, 1.8329822440909993, 1.883030023664105, 1.9660243770458692, 2.0829462369938483, 2.1825513297608268, 2.3160778343526545, 2.382787035905494, 2.5494095958838443, 2.765632453028047, 2.9491669609788005, 3.049112396995042, 3.2825038228475023]",2017_Jan_25_1055,60.0503334375,famFaceFilter,001,2,
54,./img/edges5_KatjaBurkard5_3.png,0,66,66,53,,,1.ja,1.255,None,None,None,host,0.556,None,None,None,Frauke Ludowig,"['lshift', 'f', 'r', 'a', 'u', 'k', 'e', 'space', 'lshift', 'l', 'u', 'd', 'o', 'w', 'i', 'g', 'return']","[0.30034024701672024, 0.566937112843334, 0.7501354476316919, 0.866672697253307, 0.966814127355974, 1.1498501495298115, 1.200039712058242, 1.3165249959820358, 1.4164293726807955, 1.4998949458868083, 1.6830236722998961, 1.7998663005973867, 1.8829312246807604, 2.0161119328322457, 2.099614716044016, 2.249585156543617, 2.4160274404548545]",2017_Jan_25_1055,60.0503334375,famFaceFilter,001,2,
3,./img/edges5_NicoleKidman5_1.png,0,67,67,2,,,1.ja,1.09,None,act,0.407,None,None,None,None,None,Nicole Kidman,"['lshift', 'n', 'i', 'c', 'o', 'l', 'e', 'space', 'lshift', 'k', 'i', 'd', 'm', 'a', 'n', 'return']","[0.36683645336051995, 0.483494956280083, 0.7001178209948193, 0.7999753644098746, 0.8833953874345752, 1.0330306170990298, 1.1167515279357758, 1.2165648042737303, 1.2998019850256242, 1.4165528714102038, 1.549591475829402, 1.6001666110123551, 1.6997479663614286, 1.816333973923065, 1.899727693323257, 2.1162411734494526]",2017_Jan_25_1055,60.0503334375,famFaceFilter,001,2,
63,./img/edges5_LisaEdelstein(DrLisaCuddy)2_2.png,0,68,68,62,,,2.nein,1.206,None,None,None,None,None,polit,0.872,None,,['return'],[0.5334933363610617],2017_Jan_25_1055,60.0503334375,famFaceFilter,001,2,
40,./img/edges5_NicoleKidman3_1.png,0,69,69,39,,,1.ja,1.306,None,act,0.441,None,None,None,None,None,Nicole Kidman,"['lshift', 'n', 'i', 'c', 'o', 'l', 'e', 'space', 'lshift', 'k', 'i', 'o', 'd', 'm', 'backspace', 'backspace', 'backspace', 'd', 'm', 'a', 'n', 'return']","[0.3504047069372973, 0.5003735435566341, 0.6838740492603392, 0.7834791420273177, 0.8834524855483323, 1.0167470691503695, 1.0997488003786202, 1.2166119583334876, 1.3167126498947255, 1.400008853415784, 1.5835125668781984, 1.6332870453679789, 1.7829187464976712, 2.0663274782100416, 2.182904824822799, 2.3329288349004855, 2.58261086577113, 2.6660347381075553, 2.8161463200103753, 2.8659855952364524, 3.099378624968267]",2017_Jan_25_1055,60.0503334375,famFaceFilter,001,2,
60,./img/edges5_TomCruise1_1.png,0,70,70,59,,,1.ja,1.021,None,act,0.408,None,None,None,None,None,Tom Cruise,"['lshift', 't', 'o', 'm', 'space', 'lshift', 'c', 'r', 'u', 'i', 's', 'e', 'return']","[0.3169606096798816, 0.5669473776733867, 0.6836703565522839, 0.8501665308185693, 1.0169020039193128, 1.0667245987979186, 1.166531138841492, 1.400122408090283, 1.4833502863411923, 1.6164636315497773, 1.6832527063061207, 1.8499285150865035, 1.9495724217395036]",2017_Jan_25_1055,60.0503334375,famFaceFilter,001,2,
9,./img/edges5_RobertSeanLeonard(Wilson)8_1.png,0,71,71,8,,,2.nein,1.633,None,dummy,0.407,None,None,None,None,None,,['return'],[0.4836604766533128],2017_Jan_25_1055,60.0503334375,famFaceFilter,001,2,
40,./img/gray_BritneySpears1_1.png,0,0,0,39,,,1.ja,1.476,None,None,None,music,0.888,None,None,None,Britney Spears,"['lshift', 'b', 'r', 'i', 't', 'n', 'e', 'y', 'space', 'lshift', 's', 'p', 'e', 'a', 'r', 's', 'return']","[0.500307784493998, 0.6169265111993809, 0.800205681519401, 0.9003695659357618, 1.0167153123347816, 1.100199811319726, 1.3333820912730516, 1.7662127366647837, 1.9330941628086293, 2.0829831262244625, 2.1660249544420367, 2.299632294564617, 2.4663257460206296, 2.6328847923668945, 2.8327775890547855, 2.9993789778218343, 3.132728734882221]",2017_Jan_25_1055,60.0503334375,famFaceFilter,001,2,
5,./img/gray_OmarEpps(DrEricForeman)2_2.png,0,1,1,4,,,2.nein,1.042,None,act,0.473,None,None,None,None,None,,['return'],[0.466911162071483],2017_Jan_25_1055,60.0503334375,famFaceFilter,001,2,
70,./img/gray_WillSmith5_1.png,0,2,2,69,,,1.ja,0.964,None,dummy,0.407,None,None,None,None,None,Will Smith,"['lshift', 'w', 'i', 'l', 'l', 'space', 'lshift', 's', 'm', 'i', 't', 'h', 'return']","[0.30027801648884633, 0.41662536676722084, 0.5336460256985447, 0.7168093959116959, 0.8334444821894067, 1.0333388827566523, 1.099982325246856, 1.2165016114176979, 1.3165602813332953, 1.4664091477588954, 1.5662923532472632, 1.6329640240182925, 1.8496292311547222]",2017_Jan_25_1055,60.0503334375,famFaceFilter,001,2,
26,./img/gray_BarackObama1_3.png,0,3,3,25,,,1.ja,0.988,None,None,None,None,None,polit,0.522,None,Barack Obama,"['lshift', 'b', 'a', 'r', 'a', 'c', 'k', 'space', 'lshift', 'o', 'b', 'a', 'm', 'a', 'return']","[0.28368459900229936, 0.48346640722320444, 0.6667234440037646, 0.7501681667754383, 0.8666342041433381, 1.0333520345693614, 1.0833176955075032, 1.2496554064691736, 1.3164354995005851, 1.4496874199057856, 1.6330278584264306, 1.7162172435664615, 1.78302235711908, 1.8829693970146764, 2.0328535487924455]",2017_Jan_25_1055,60.0503334375,famFaceFilter,001,2,
57,./img/gray_UrsulavonderLeyen5_1.png,0,4,4,56,,,1.ja,1.062,None,None,None,None,None,polit,0.489,None,Ursula von der Leyen,"['lshift', 'u', 'r', 's', 'u', 'l', 'a', 'space', 'v', 'o', 'n', 'space', 'd', 'e', 'r', 'space', 'lshift', 'l', 'e', 'y', 'e', 'n', 'return']","[0.3503514581352647, 0.5342176483854928, 0.6840315502358862, 0.8505241959674095, 0.900520009840875, 1.0835980536594434, 1.1337715773934178, 1.2671059372096352, 1.3503283622685558, 1.500438661068074, 1.6334836810065099, 1.7827211485318912, 1.8328125536299922, 1.9166114130148344, 2.033459494501585, 2.1166809572332568, 2.2500736982674425, 2.3498847291739366, 2.4498349768282424, 2.6831141311095053, 2.882943414165311, 2.983132319103788, 3.2161493994590273]",2017_Jan_25_1055,60.0503334375,famFaceFilter,001,2,
23,./img/gray_TomCruise4_1.png,0,5,5,22,,,1.ja,1.112,None,act,0.405,None,None,None,None,None,Tom Cruise,"['lshift', 't', 'o', 'm', 'lshift', 'space', 'c', 'r', 'u', 'i', 's', 'e', 'return']","[0.7836930995645162, 0.9005318785502823, 1.117182650770701, 1.2838241365270733, 1.4504636976289476, 1.5503430538065004, 1.766972013263512, 1.8503897908576619, 2.0000933457922656, 2.04993230024229, 2.216732249303277, 2.366660026605132]",2017_Jan_25_1055,60.0503334375,famFaceFilter,001,2,
55,./img/gray_Ice-T(OdafinFinTutuola)6_1.png,0,6,6,54,,,2.nein,1.027,None,dummy,0.406,None,None,None,None,None,,['return'],[0.8668080646912131],2017_Jan_25_1055,60.0503334375,famFaceFilter,001,2,
64,./img/gray_LisaEdelstein(DrLisaCuddy)2_2.png,0,7,7,63,,,2.nein,1.144,None,act,0.722,None,None,None,None,None,,['return'],[0.5501246054054718],2017_Jan_25_1055,60.0503334375,famFaceFilter,001,2,
67,./img/gray_AngelaMerkel4_1.png,0,8,8,66,,,1.ja,0.989,None,None,None,None,None,polit,0.489,None,Angela Merkel,"['lshift', 'a', 'n', 'g', 'e', 'l', 'a', 'space', 'lshift', 'm', 'e', 'r', 'k', 'e', 'l', 'return']","[0.3334581151657403, 0.4669393903523087, 0.55015860765252, 0.7498656750840382, 0.8000468974396426, 0.9333870312220824, 1.0168670393441062, 1.1332086156562582, 1.18320186332312, 1.299880575125826, 1.4665233439864096, 1.59982049379596, 1.6663715528220564, 1.799742801868888, 1.8496978772009243, 2.0828503249940695]",2017_Jan_25_1055,60.0503334375,famFaceFilter,001,2,
42,./img/gray_NicoleKidman5_1.png,0,9,9,41,,,1.ja,1.08,None,act,0.405,None,None,None,None,None,Nicole Kidman,"['lshift', 'n', 'i', 'c', 'o', 'l', 'e', 'space', 'lshift', 'k', 'i', 'd', 'm', 'a', 'n', 'return']","[0.4000884058432348, 0.60011528686573, 0.7833787391646183, 0.9167573660579365, 0.9833716179391558, 1.1166475965383142, 1.1833677044733122, 1.2999639768650013, 1.383284559355161, 1.483231278475614, 1.61640428800456, 1.716475147404708, 1.8162909899501756, 1.9163233562403548, 1.966081154382664, 2.2163277508707324]",2017_Jan_25_1055,60.0503334375,famFaceFilter,001,2,
61,./img/gray_AlysonHannigan(Lily)8_3.png,0,10,10,60,,,1.ja,1.038,None,act,0.473,None,None,None,None,None,Alisson,"['lshift', 'a', 'l', 'i', 's', 's', 'o', 'n', 'return']","[0.3169788939067075, 0.45017692395776976, 0.6002063872256258, 0.8001357523680781, 0.900427305600715, 1.049993889218058, 1.1498341107335364, 1.3330263507787095, 2.216102886950466]",2017_Jan_25_1055,60.0503334375,famFaceFilter,001,2,
4,./img/gray_AngelaMerkel1_1.png,0,11,11,3,,,1.ja,1.022,None,None,None,None,None,polit,0.656,None,Angela Merkel,"['lshift', 'a', 'n', 'g', 'e', 'l', 'a', 'space', 'lshift', 'm', 'e', 'r', 'k', 'e', 'l', 'return']","[0.6666637796834038, 1.1665471776368577, 1.3164868236481198, 1.4997977507837277, 1.5662358966856118, 1.6997755530901486, 1.7662627777071975, 1.8829049210553421, 1.9661873312115858, 2.06604359152243, 2.199289417185355, 2.349366355289021, 2.432709071318641, 2.5656443858915736, 2.6158355523002683, 2.849263225831237]",2017_Jan_25_1055,60.0503334375,famFaceFilter,001,2,
24,./img/gray_JoachimLoew1_1.png,0,12,12,23,,,1.ja,1.049,None,None,None,None,None,sport,0.572,None,Joachim Löw,"['lshift', 'j', 'o', 'a', 'c', 'h', 'i', 'm', 'space', 'lshift', 'l', u'\xf6', 'w', 'return']","[0.383336204277839, 0.5336466672506504, 0.7167455615044673, 0.7834570084887673, 0.9500029030223232, 1.0000080193985923, 1.1497414064933764, 1.299883462109392, 1.4665108337258062, 1.4908003070468112, 1.633060577570177, 1.7997543498022424, 1.8497597869536548, 1.9993177096221189]",2017_Jan_25_1055,60.0503334375,famFaceFilter,001,2,
35,./img/gray_JoachimLoew4_1.png,0,13,13,34,,,1.ja,1.145,None,None,None,None,None,sport,0.637,None,Joachim Löw,"['lshift', 'j', 'o', 'a', 'c', 'h', 'i', 'm', 'space', 'lshift', 'l', u'\xf6', 'w', 'delete', 'return']","[0.4837329720121488, 0.5837140141547934, 0.7669665600733424, 0.8335676601418527, 1.0001398583008267, 1.050054195091434, 1.1831152538252354, 1.3500560235142984, 1.5166352787437063, 1.549663329635223, 1.7165623984546983, 1.8499253073277941, 1.9164256837584617, 2.0664240317628355, 2.6995372165829394]",2017_Jan_25_1055,60.0503334375,famFaceFilter,001,2,
1,./img/gray_JoachimLoew8_1.png,0,14,14,0,,,1.ja,1.031,None,None,None,None,None,sport,0.555,None,Joachim Löw,"['lshift', 'j', 'o', 'a', 'c', 'h', 'i', 'm', 'space', 'lshift', 'l', u'\xf6', 'w', 'return']","[0.4003341201969306, 0.5667298916005166, 0.7165206975851106, 0.8002807430839312, 0.9831127517736604, 1.0072524227407484, 1.1666084458374826, 1.349978395742255, 1.4998272621678552, 1.5497666194805788, 1.6996321662545597, 1.8329302783922685, 1.8996487824470023, 2.033048901326765]",2017_Jan_25_1055,60.0503334375,famFaceFilter,001,2,
19,./img/gray_JasonSegel(Marshall)9_1.png,0,15,15,18,,,1.ja,1.146,None,act,0.406,None,None,None,None,None,Eric,"['lshift', 'e', 'r', 'i', 'c', 'return']","[0.333614333037076, 0.43325823969007615, 0.6499872812346439, 0.7167882247003945, 0.86672049286517, 0.966593754299538]",2017_Jan_25_1055,60.0503334375,famFaceFilter,001,2,
28,./img/gray_GeorgeClooney4_2.png,0,16,16,27,,,1.ja,0.92,None,act,0.405,None,None,None,None,None,Robert De Niro,"['lshift', 'r', 'o', 'b', 'e', 'r', 't', 'space', 'lshift', 'd', 'e', 'space', 'n', 'i', 'r', 'o', 'backspace', 'backspace', 'backspace', 'backspace', 'lshift', 'n', 'i', 'r', 'o', 'return']","[2.249449789105711, 2.4160024199336476, 2.549316250090669, 2.7326281395544356, 3.748820587141381, 3.9155348890326422, 3.965430620819461, 4.165353891220548, 4.315278139986731, 4.615133053039244, 4.815006603172151, 4.881616043415306, 5.064909648650428, 5.248172138622067, 5.314734745581518, 5.431597903536385, 5.814044596192616, 5.963936767368068, 6.113850430529055, 6.247144372579896, 6.464373824556787, 6.614339774192558, 6.78074388576988, 6.8808278969836465, 6.980751199461338, 7.2640322623583415]",2017_Jan_25_1055,60.0503334375,famFaceFilter,001,2,
29,./img/gray_UrsulavonderLeyen4_1.png,0,17,17,28,,,1.ja,1.0,None,None,None,None,None,polit,0.523,None,Ursula von der Leyen ,"['lshift', 'u', 'r', 's', 'u', 'l', 'a', 'space', 'v', 'o', 'n', 'space', 'd', 'e', 'r', 'space', 'lshift', 'l', 'e', 'y', 'e', 'n', 'space', 'return']","[0.4168085298160804, 0.6001043804835717, 0.7335028954830705, 0.9166710773351952, 0.9999797911168571, 1.1832393941049304, 1.2497420159670583, 1.3830933769067997, 1.483161670100344, 1.5829868151467963, 1.732931914348228, 1.8996192710619653, 1.9495387402675988, 2.049373829368051, 2.182838103431095, 2.2827922003971253, 2.415959115183796, 2.5156851404726694, 2.6491975309236295, 2.865800507531276, 3.0991139848356397, 3.2156236477285347, 3.348899626327693, 3.898816048162189]",2017_Jan_25_1055,60.0503334375,famFaceFilter,001,2,
50,./img/gray_BastianSchweinsteiger3_1.png,0,18,18,49,,,1.ja,1.033,None,None,None,None,None,sport,0.456,None,Bastian Schweinsteiger,"['lshift', 'b', 'a', 's', 't', 'i', 'a', 'n', 'space', 'lshift', 's', 'c', 'h', 'w', 'e', 'i', 'n', 's', 't', 'e', 'i', 'g', 'e', 'r', 'return']","[0.8338220354444275, 1.0171538130143745, 1.150492342918369, 1.3336602039935315, 1.3576799047677923, 1.5169685649216262, 1.5669910031974723, 1.733544917128711, 1.866744230283075, 1.9167522336429101, 2.0501112932042815, 2.2333224590292957, 2.333337824195951, 2.4497916720793, 2.5999879388245972, 2.6663709112690412, 2.833100931179615, 2.9163903984062927, 3.0495351796553223, 3.116206208874246, 3.2328839583487934, 3.4160139678660926, 3.532856275386621, 3.6659539025749837, 3.79916893374957]",2017_Jan_25_1055,60.0503334375,famFaceFilter,001,2,
63,./img/gray_JoshRadnor(Ted)3_1.png,0,19,19,62,,,1.ja,1.533,None,act,0.423,None,None,None,None,None,Ted Mosby,"['lshift', 't', 'e', 'd', 'space', 'lshift', 'm', 'o', 's', 'b', 'y', 'return']","[0.35038802658982604, 0.5336213259524811, 0.6668283377293847, 0.816746491754202, 0.9334598473551523, 1.0333035974053928, 1.1166187267053829, 1.2664669515797868, 1.349894352450974, 1.4831757842412117, 1.566449212671614, 1.7330002396192867]",2017_Jan_25_1055,60.0503334375,famFaceFilter,001,2,
13,./img/gray_NeilPatrickHarris(Barney)2_2.png,0,20,20,12,,,1.ja,0.935,None,act,2.506,None,None,None,None,None,Barney Stinson,"['lshift', 'b', 'a', 'r', 'n', 'e', 'y', 'space', 'lshift', 's', 't', 'i', 'n', 's', 'o', 'n', 'return']","[0.4670426801985741, 0.6168899427448196, 0.7668478729829076, 0.8668427084903669, 1.099824503495256, 1.1834421244857367, 1.4166276121986812, 1.4998670383820354, 1.6665550366469688, 1.7829938080622014, 1.899749506084845, 2.099544786894512, 2.29933236908073, 2.3660855169355273, 2.4662487597997824, 2.649438433638352, 2.865943573590812]",2017_Jan_25_1055,60.0503334375,famFaceFilter,001,2,
48,./img/gray_LeonardoDiCaprio2_1.png,0,21,21,47,,,1.ja,1.105,None,act,4.822,None,None,None,None,None,Leonardo DiCaprio,"['lshift', 'l', 'e', 'o', 'n', 'a', 'r', 'd', 'o', 'space', 'lshift', 'd', 'i', 'lshift', 'c', 'a', 'p', 'r', 'i', 'o', 'return']","[0.5002580642267276, 0.6169403045641957, 0.7667891709907053, 0.8335237138417142, 1.0167101799206648, 1.099901810492156, 1.3166212287578674, 1.483190219158132, 1.5330965365510565, 1.816398129107256, 1.9325876576340306, 2.083068773395098, 2.2328316718749193, 2.349405489952005, 2.4994173105442314, 2.6656539770929157, 2.7826682205059114, 2.9156080259426744, 3.0159274866791748, 3.1657019330923504, 3.4656537204718916]",2017_Jan_25_1055,60.0503334375,famFaceFilter,001,2,
44,./img/gray_BritneySpears5_1.png,0,22,22,43,,,1.ja,1.005,None,None,None,music,0.506,None,None,None,Britney Spears,"['lshift', 'b', 'r', 'i', 't', 'n', 'e', 'y', 'space', 'lshift', 's', 'p', 'e', 'a', 'r', 's', 'return']","[0.38348119499278255, 0.5167866849760685, 0.6668142235894265, 0.7502037729018411, 0.9334386761447604, 1.1333000367931163, 1.2164627975316762, 1.3997766116499406, 1.4997268593051558, 1.6161476672696153, 1.699850293878626, 1.816385618845743, 1.932990552186311, 2.0827784711882487, 2.1662741973304946, 2.316163802297524, 2.482551554303427]",2017_Jan_25_1055,60.0503334375,famFaceFilter,001,2,
62,./img/gray_LisaEdelstein(DrLisaCuddy)1_1.png,0,23,23,61,,,2.nein,1.282,None,dummy,0.573,None,None,None,None,None,,['return'],[0.5169380912102497],2017_Jan_25_1055,60.0503334375,famFaceFilter,001,2,
41,./img/gray_RobertSeanLeonard(Wilson)1_1.png,0,24,24,40,,,2.nein,1.064,None,dummy,0.405,None,None,None,None,None,,['return'],[0.6501653118693866],2017_Jan_25_1055,60.0503334375,famFaceFilter,001,2,
68,./img/gray_Ice-T(OdafinFinTutuola)7_1.png,0,25,25,67,,,2.nein,0.972,None,dummy,0.406,None,None,None,None,None,,['return'],[0.5501066419546987],2017_Jan_25_1055,60.0503334375,famFaceFilter,001,2,
10,./img/gray_HughLaurie(DrHouse)2_1.png,0,26,26,9,,,1.ja,1.006,None,dummy,0.423,None,None,None,None,None,Hugh Laurie,"['lshift', 'h', 'u', 'g', 'h', 'space', 'lshift', 'l', 'a', 'u', 'r', 'i', 'e', 'return']","[0.41690444181676867, 0.5667164190117546, 0.7500459511502413, 0.9001337956360658, 1.0330511467582255, 1.2165978441935295, 1.2997978149387563, 1.3997884803593479, 1.5664357400828521, 1.666499221637423, 1.7995564310604095, 1.88298639813911, 1.9996022378609268, 2.166323276046569]",2017_Jan_25_1055,60.0503334375,famFaceFilter,001,2,
15,./img/gray_GeorgeClooney11_1.png,0,27,27,14,,,1.ja,1.27,None,act,1.539,None,None,None,None,None,Robert De Niro,"['lshift', 'r', 'o', 'b', 'e', 'r', 't', 'space', 'lshift', 'd', 'e', 'space', 'lshift', 'n', 'i', 'r', 'o', 'return']","[0.4001689205988441, 0.6334320360838319, 0.7668090590968859, 0.9666258318920882, 1.0831617984113109, 1.2500021652376745, 1.276845335645703, 1.482996470503167, 1.5497515430124622, 1.6663863085141202, 1.8827214372304297, 1.982952043037585, 2.0660913871342927, 2.1661827761936365, 2.3159556187274575, 2.382763298487589, 2.516095412872346, 2.7825190597031906]",2017_Jan_25_1055,60.0503334375,famFaceFilter,001,2,
3,./img/gray_KatjaBurkard1_1.png,0,28,28,2,,,2.nein,1.305,None,None,None,host,1.006,None,None,None,,['return'],[0.5501050380744346],2017_Jan_25_1055,60.0503334375,famFaceFilter,001,2,
56,./img/gray_GuentherJauch2_1.png,0,29,29,55,,,1.ja,1.099,None,None,None,host,0.756,None,None,None,Günther Jauch,"['lshift', 'g', u'\xfc', 'n', 't', 'h', 'e', 'r', 'space', 'lshift', 'j', 'a', 'u', 'c', 'h', 'return']","[0.41691310276564764, 0.7500613483944107, 0.9833267093108589, 1.1832589614368771, 1.3165660552995178, 1.4331735548485085, 1.5331420867305496, 1.6828879840868467, 1.7829415215874178, 1.8662284226065822, 1.9662274282018188, 2.1495409215440304, 2.249517152048611, 2.366127859356311, 2.4662644778200047, 2.699250763686905]",2017_Jan_25_1055,60.0503334375,famFaceFilter,001,2,
52,./img/gray_EmilyDeschanel5_1.png,0,30,30,51,,,1.ja,1.363,None,act,0.589,None,None,None,None,None,Nicole Kidman,"['lshift', 'n', 'i', 'c', 'o', 'l', 'e', 'space', 'lshift', 'k', 'i', 'd', 'm', 'a', 'n', 'return']","[0.3834468719696815, 0.5335157906756649, 0.7168911937706071, 0.8167391139077154, 0.9167066834625075, 1.0666729538752406, 1.1333077354147463, 1.249928707552499, 1.3336194654530118, 1.416427448025388, 1.5663346956689566, 1.6330926551618177, 1.7498002367965455, 1.8495811147668064, 1.9329427565753576, 2.149516542574929]",2017_Jan_25_1055,60.0503334375,famFaceFilter,001,2,
45,./img/gray_NicoleKidman7_1.png,0,31,31,44,,,1.ja,1.128,None,dummy,1.272,None,None,None,None,None,Nicole Kidman,"['lshift', 'n', 'i', 'c', 'o', 'l', 'e', 'space', 'lshift', 'k', 'i', 'd', 'm', 'a', 'n', 'return']","[0.5166814704753051, 0.6500408508136388, 0.8663904144459593, 1.000006736294381, 1.083150892030062, 1.2332660024685538, 1.2999251629789796, 1.4163793316383817, 1.4664877378600067, 1.5997454322314297, 1.733065677907689, 1.766010006284887, 1.9162806930435181, 2.016161332324373, 2.0829144801782604, 2.332681837443488]",2017_Jan_25_1055,60.0503334375,famFaceFilter,001,2,
34,./img/gray_RobertSeanLeonard(Wilson)2_6.png,0,32,32,33,,,2.nein,1.016,None,act,0.538,None,None,None,None,None,,['return'],[0.5171802770282738],2017_Jan_25_1055,60.0503334375,famFaceFilter,001,2,
69,./img/gray_OmarEpps(DrEricForeman)3_1.png,0,33,33,68,,,2.nein,0.998,None,dummy,0.456,None,None,None,None,None,,['return'],[0.6001932354129167],2017_Jan_25_1055,60.0503334375,famFaceFilter,001,2,
37,./img/gray_TomCruise1_1.png,0,34,34,36,,,1.ja,1.012,None,act,0.523,None,None,None,None,None,Tom Cruise,"['lshift', 't', 'o', 'm', 'space', 'lshift', 'c', 'r', 'u', 'i', 's', 'e', 'return']","[0.333616257693393, 0.6167459143580345, 0.7501399384946126, 0.9333940882925162, 1.083056583909638, 1.133191614532734, 1.2166619993777203, 1.4663158019675393, 1.549734862664991, 1.6831016208489018, 1.7663933335070396, 1.8996074023534675, 2.0164525968575617]",2017_Jan_25_1055,60.0503334375,famFaceFilter,001,2,
53,./img/gray_Ice-T(OdafinFinTutuola)5_1.png,0,35,35,52,,,2.nein,0.948,None,dummy,0.507,None,None,None,None,None,,['return'],[0.5503000698336109],2017_Jan_25_1055,60.0503334375,famFaceFilter,001,2,
32,./img/gray_MariskaHargitay(Liv)6_5.png,0,36,36,31,,,2.nein,0.999,None,act,0.405,None,None,None,None,None,,['return'],[0.5001900597317217],2017_Jan_25_1055,60.0503334375,famFaceFilter,001,2,
47,./img/gray_HughLaurie(DrHouse)5_3.png,0,37,37,46,,,1.ja,1.253,None,act,0.406,None,None,None,None,None,Hugh Laurie,"['lshift', 'h', 'u', 'g', 'h', 'space', 'lshift', 'l', 'a', 'u', 'r', 'i', 'e', 'return']","[0.46691886069402244, 0.6335786306781301, 0.7834303840872963, 0.9501924815904204, 1.1000740671597669, 1.2665474663353962, 1.3498856915011856, 1.4666555036646969, 1.5998727802707435, 1.683309162867772, 1.833076231434461, 1.8998871189542115, 2.016179295775146, 2.1330918532221403]",2017_Jan_25_1055,60.0503334375,famFaceFilter,001,2,
21,./img/gray_HughLaurie(DrHouse)4_1.png,0,38,38,20,,,1.ja,1.196,None,act,0.406,None,None,None,None,None,Hugh Laurie,"['lshift', 'h', 'u', 'g', 'h', 'space', 'lshift', 'l', 'a', 'u', 'r', 'i', 'e', 'return']","[0.4336736445047791, 0.5836055918935017, 0.7502506061855456, 0.9000981895087534, 1.050057723626196, 1.233433447497191, 1.3165666968516234, 1.4165660232220034, 1.5499908418469204, 1.683153586546723, 1.7996000565844952, 1.86643019065923, 1.9831313567756297, 2.116288006733157]",2017_Jan_25_1055,60.0503334375,famFaceFilter,001,2,
9,./img/gray_RobertSeanLeonard(Wilson)8_1.png,0,39,39,8,,,2.nein,1.072,None,act,1.456,None,None,None,None,None,,['return'],[0.5335985508627346],2017_Jan_25_1055,60.0503334375,famFaceFilter,001,2,
49,./img/gray_NeilPatrickHarris(Barney)1_1.png,0,40,40,48,,,1.ja,0.973,None,act,0.473,None,None,None,None,None,Barney Stinson,"['lshift', 'b', 'a', 'r', 'n', 'e', 'y', 'space', 'lshift', 's', 't', 'i', 'n', 's', 'o', 'n', 'return']","[0.3834715717148356, 0.5669284518935456, 1.0999483229988982, 1.2497243732914285, 1.4662927061008304, 1.6328860754701964, 1.8494402941387307, 2.2828002197957176, 2.4827164331254608, 2.582369321504302, 2.732669840423114, 2.9324384968313097, 3.0990026755916915, 3.1657529364629227, 3.2991206569740825, 3.432150600444402, 3.665624786483022]",2017_Jan_25_1055,60.0503334375,famFaceFilter,001,2,
14,./img/gray_JoshRadnor(Ted)6_2.png,0,41,41,13,,,1.ja,1.246,None,dummy,0.623,None,None,None,None,None,Ted Mosby,"['lshift', 't', 'e', 'd', 'space', 'lshift', 'm', 'o', 's', 'b', 'y', 'return']","[0.3834827988730467, 0.5833380647782178, 0.7335057824675459, 0.8999952204385409, 0.9666521355175064, 1.0832763154139684, 1.16664790127561, 1.33311809269253, 1.3998343513158034, 1.533150106129142, 1.6330618606734788, 1.7830015066847409]",2017_Jan_25_1055,60.0503334375,famFaceFilter,001,2,
2,./img/gray_BastianSchweinsteiger1_1.png,0,42,42,1,,,1.ja,0.999,None,None,None,None,None,sport,0.572,None,Bastian Schweinsteiger,"['lshift', 'b', 'a', 's', 't', 'i', 'a', 'n', 'space', 'lshift', 's', 'c', 'h', 'w', 'e', 'i', 'n', 's', 't', 'e', 'i', 'g', 'e', 'r', 'return']","[0.4676021134000621, 0.6008251639723312, 0.734283664069153, 0.9007358920343904, 0.9507762937610096, 1.1339733454460657, 1.2004714764443634, 1.317165264715186, 1.4838048258170602, 1.5503594133779188, 1.7005579255546763, 1.9169482277293355, 2.0000769862199377, 2.150193700537784, 2.299843365119159, 2.3502132037137926, 2.516689489872988, 2.583446807814653, 2.7332664836321783, 2.766253475206213, 2.8999307444792066, 3.0665119243631125, 3.1331418942654636, 3.2497009566495763, 3.383026976292058]",2017_Jan_25_1055,60.0503334375,famFaceFilter,001,2,
27,./img/gray_LeonardoDiCaprio1_1.png,0,43,43,26,,,1.ja,1.246,None,act,0.489,None,None,None,None,None,Leonardo DiCaprio,"['lshift', 'l', 'e', 'o', 'n', 'a', 'r', 'd', 'o', 'space', 'lshift', 'd', 'i', 'lshift', 'c', 'a', 'p', 'r', 'i', 'o', 'return']","[0.36706516659069166, 0.6002814487910655, 0.7331911012915953, 0.7833780976134221, 0.9668356193433283, 1.0334687970043888, 1.2163129951777591, 1.3834609861105491, 1.4499360212430474, 1.616428025422465, 1.766323725132679, 1.883146786098223, 1.9995063258620576, 2.132963222078615, 2.2495989499084317, 2.382932988948596, 2.599564835389174, 2.716059742590005, 2.832752889308722, 2.9826534006579095, 3.1823232580827607]",2017_Jan_25_1055,60.0503334375,famFaceFilter,001,2,
30,./img/gray_BarackObama4_1.png,0,44,44,29,,,1.ja,0.989,None,None,None,None,None,polit,0.54,None,Barack Obama,"['lshift', 'b', 'a', 'r', 'a', 'c', 'k', 'space', 'lshift', 'o', 'b', 'a', 'm', 'a', 'return']","[0.40005568669948843, 0.5667093619422303, 0.7335211797117154, 0.8500465606248326, 0.9334559980452468, 1.1166315577429486, 1.1666703555902131, 1.3330991669135983, 1.4163565565477256, 1.5495946835890209, 1.6997267951510366, 1.7665040011988822, 1.8663381279711757, 1.9497177332305, 2.099538050600131]",2017_Jan_25_1055,60.0503334375,famFaceFilter,001,2,
7,./img/gray_OmarEpps(DrEricForeman)1_5.png,0,45,45,6,,,2.nein,1.105,None,act,0.423,None,None,None,None,None,,['return'],[0.7166339314835568],2017_Jan_25_1055,60.0503334375,famFaceFilter,001,2,
71,./img/gray_BritneySpears7_1.png,0,46,46,70,,,1.ja,0.943,None,None,None,music,0.489,None,None,None,Britney Spears,"['lshift', 'b', 'r', 'i', 't', 'n', 'e', 'y', 'space', 'lshift', 's', 'p', 'e', 'a', 'r', 's', 'return']","[0.36700004907834227, 0.5168922202537942, 0.6668661892881573, 0.7668093798729387, 0.9667063466476975, 1.1499630626531143, 1.2166783589491388, 1.3998715613224704, 1.4998558112247338, 1.6662012208089436, 1.7997796910985926, 1.9161921588893165, 2.0661131998967903, 2.232827181011089, 2.4494487626225236, 2.682671460342135, 2.865865304266663]",2017_Jan_25_1055,60.0503334375,famFaceFilter,001,2,
31,./img/gray_AngelaMerkel3_1.png,0,47,47,30,,,1.ja,0.881,None,None,None,None,None,polit,0.44,None,Angela Merkel,"['lshift', 'a', 'n', 'g', 'e', 'l', 'a', 'space', 'lshift', 'm', 'e', 'r', 'k', 'e', 'l', 'return']","[0.3167620493859431, 0.466870102754001, 0.5667610068639988, 0.7500991999522739, 0.7998534695607304, 0.9500622465666311, 1.0165058456595943, 1.149919757904172, 1.2165516524610211, 1.333231326590976, 1.48313697035519, 1.633036840152272, 1.6997370599792703, 1.8163798448795205, 1.8829273753699454, 2.1328471011956935]",2017_Jan_25_1055,60.0503334375,famFaceFilter,001,2,
60,./img/gray_EmilyDeschanel3_1.png,0,48,48,59,,,2.nein,1.472,None,dummy,0.523,None,None,None,None,None,,['return'],[0.9170524799019404],2017_Jan_25_1055,60.0503334375,famFaceFilter,001,2,
54,./img/gray_LeonardoDiCaprio3_1.png,0,49,49,53,,,1.ja,0.989,None,act,2.972,None,None,None,None,None,Leonardo DiCaprio,"['lshift', 'l', 'e', 'o', 'n', 'a', 'r', 'd', 'o', 'space', 'lshift', 'c', 'backspace', 'lshift', 'd', 'i', 'lshift', 'c', 'a', 'p', 'r', 'i', 'o', 'return']","[0.41697757872589136, 0.600031243574449, 0.7335529365273032, 0.8169081628166168, 0.983307462754965, 1.0832869010191644, 1.2832419282349292, 1.4164832630349338, 1.4664190918128952, 1.6497659458509588, 1.7497732916199311, 1.8662467068343176, 2.2995803288658863, 2.3994353060734284, 2.4995023161627614, 2.632751028808343, 2.7827134499093518, 2.932632887037471, 3.0988634588429704, 3.2157092948991703, 3.3489897643612494, 3.415832087920535, 3.5657640353092575, 3.8151766144092107]",2017_Jan_25_1055,60.0503334375,famFaceFilter,001,2,
18,./img/gray_JasonSegel(Marshall)7_1.png,0,50,50,17,,,1.ja,0.972,None,dummy,0.406,None,None,None,None,None,Eric,"['lshift', 'e', 'r', 'i', 'c', 'return']","[0.4008175295057299, 0.5173275131755872, 0.7505489277909874, 0.9005533705376365, 0.9835817261664488, 1.1505625928448353]",2017_Jan_25_1055,60.0503334375,famFaceFilter,001,2,
59,./img/gray_AlysonHannigan(Lily)5_4.png,0,51,51,58,,,1.ja,1.113,None,dummy,0.54,None,None,None,None,None,Alisson,"['lshift', 'a', 'l', 'i', 's', 's', 'o', 'n', 'return']","[0.35036910080998496, 0.500162793778145, 0.6669386846451744, 0.8501800034064217, 0.9834373770017919, 1.1167428669859873, 1.1833035492891213, 1.3499103912463397, 1.5997874538761607]",2017_Jan_25_1055,60.0503334375,famFaceFilter,001,2,
43,./img/gray_LisaEdelstein(DrLisaCuddy)6_3.png,0,52,52,42,,,2.nein,1.045,None,dummy,0.573,None,None,None,None,None,,['return'],[0.5001855688688011],2017_Jan_25_1055,60.0503334375,famFaceFilter,001,2,
25,./img/gray_MariskaHargitay(Liv)8_8.png,0,53,53,24,,,2.nein,2.382,None,None,None,host,0.405,None,None,None,,['return'],[0.5168995980993714],2017_Jan_25_1055,60.0503334375,famFaceFilter,001,2,
66,./img/gray_NeilPatrickHarris(Barney)3_7.png,0,54,54,65,,,1.ja,1.019,None,act,0.406,None,None,None,None,None,Barney Stinson,"['lshift', 'b', 'a', 'r', 'n', 'e', 'y', 'space', 'lshift', 's', 't', 'i', 'n', 's', 'o', 'n', 'return']","[0.40024237828401965, 0.5501855528300439, 0.7169187805002366, 0.8502322898812054, 1.200054788527268, 1.3332213825378858, 1.5830567442981192, 2.232850276877798, 2.6660754766489845, 2.782527399876926, 2.91599167394088, 3.0992246525274822, 3.2990895417106003, 3.4324001641089126, 3.5158756813680156, 3.7322053568941556, 5.281634520108128]",2017_Jan_25_1055,60.0503334375,famFaceFilter,001,2,
39,./img/gray_UrsulavonderLeyen1_1.png,0,55,55,38,,,1.ja,1.602,None,None,None,None,None,polit,1.105,None,Ursula von der Leyen,"['lshift', 'u', 'r', 's', 'u', 'l', 'a', 'space', 'v', 'o', 'n', 'space', 'd', 'e', 'r', 'space', 'lshift', 'l', 'e', 'y', 'e', 'n', 'return']","[0.4335716377636345, 0.5835796090450458, 0.7666666345894555, 0.9500603219121331, 1.016658214221934, 1.2001718717374388, 1.2665756946162219, 1.4167491862717725, 1.4833874963478593, 1.6165576188932391, 1.7664238072193257, 1.9331698659252652, 1.9996532412324086, 2.099707741061138, 2.2328137084232367, 2.3496210513694678, 2.4661522062488075, 2.566047601221726, 2.716089253975042, 2.916023430756468, 3.1493215108166623, 3.249165260866903, 3.4990763257428625]",2017_Jan_25_1055,60.0503334375,famFaceFilter,001,2,
17,./img/gray_JasonSegel(Marshall)6_1.png,0,56,56,16,,,1.ja,1.438,None,act,0.456,None,None,None,None,None,Eric,"['lshift', 'e', 'r', 'i', 'c', 'return']","[0.31694938252258, 0.46696312777021376, 0.6502031634281593, 0.8002323059199625, 0.8668982027247694, 1.0335566896055752]",2017_Jan_25_1055,60.0503334375,famFaceFilter,001,2,
12,./img/gray_BarackObama2_1.png,0,57,57,11,,,1.ja,1.122,None,None,None,None,None,polit,0.556,None,Barack Obama,"['lshift', 'b', 'a', 'r', 'a', 'c', 'k', 'space', 'lshift', 'o', 'b', 'a', 'm', 'a', 'return']","[0.3668922683700657, 0.5501932514516739, 0.6668475842843691, 0.7832395224158972, 0.88333957242412, 1.0496994169252503, 1.09980942702623, 1.2664621399408134, 1.349860029427873, 1.449774670955776, 1.6163189616090676, 1.7162528496928644, 1.7995063900161767, 1.8661835139782852, 2.0327778456749]",2017_Jan_25_1055,60.0503334375,famFaceFilter,001,2,
38,./img/gray_MariskaHargitay(Liv)4_4.png,0,58,58,37,,,2.nein,1.258,None,act,0.489,None,None,None,None,None,,['return'],[0.4333442076367646],2017_Jan_25_1055,60.0503334375,famFaceFilter,001,2,
20,./img/gray_WillSmith1_1.png,0,59,59,19,,,1.ja,0.924,None,act,0.406,None,None,None,None,None,Will Smith,"['lshift', 'w', 'i', 'l', 'l', 'space', 'lshift', 's', 'm', 'i', 't', 'h', 'return']","[0.26691250933072297, 0.4002109422444846, 0.5003283141522843, 0.7000690630557074, 0.833321625012104, 0.9999692055116611, 1.0999672487787393, 1.1832063541860407, 1.2832133791789602, 1.41646080872124, 1.5497688649120391, 1.5995693262520945, 1.8162313256289053]",2017_Jan_25_1055,60.0503334375,famFaceFilter,001,2,
58,./img/gray_GeorgeClooney3_1.png,0,60,60,57,,,1.ja,0.964,None,act,0.64,None,None,None,None,None,Robert De Niro,"['lshift', 'r', 'o', 'b', 'e', 'r', 't', 'space', 'lshift', 'd', 'e', 'space', 'lshift', 'n', 'i', 'r', 'o', 'return']","[0.35015995491176, 0.5167651929905333, 0.6498669902657639, 0.8333103978557119, 0.9833908644941403, 1.1165032473754763, 1.1425300430710195, 1.333108469414583, 1.3830859990612225, 1.4662917437735814, 1.6830884690361927, 1.7495086514873037, 1.8328876151945224, 1.916251181658481, 2.0995034068009772, 2.182745078415792, 2.2826545875286683, 2.532632373796332]",2017_Jan_25_1055,60.0503334375,famFaceFilter,001,2,
