num,pic,trials.thisRepN,trials.thisTrialN,trials.thisN,trials.thisIndex,key_resp_2.keys,key_resp_2.rt,ratingBekannt.response,ratingBekannt.rt,key_resp_5.keys,ratingK1.response,ratingK1.rt,ratingK2.response,ratingK2.rt,ratingK3.response,ratingK3.rt,key_resp_6.keys,inputText,key_resp_4.keys,key_resp_4.rt,key_resp_5.rt,key_resp_6.rt,date,frameRate,expName,session,participant,
,,,,,,space,50.1265393635,,,,,,,,,,,,,,,,2017_Jan_25_1257,60.0010970739,famFaceFilter,001,3,
41,./img/smoo15_AngelaMerkel3_1.png,0,0,0,40,,,1.ja,3.479,None,None,None,None,None,polit,1.769,None,Angela Merkl,"['lshift', 'a', 'n', 'g', 'e', 'l', 'a', 'space', 'lshift', 'm', 'e', 'r', 'k', 'l', 'return']","[1.0165943798147055, 1.1168544970059884, 1.2996217089603306, 1.4995597350516618, 2.0661395035222085, 2.1661994565420173, 2.466019405019324, 2.6825928702419333, 2.815790579517852, 2.932461913473162, 3.0490729415578244, 3.1989160340162925, 3.3323787042008917, 3.5987933693049854, 3.8655454906765954]",,,2017_Jan_25_1257,60.0010970739,famFaceFilter,001,3,
27,./img/smoo15_JasonSegel(Marshall)9_1.png,0,1,1,26,,,1.ja,16.684,None,act,0.769,None,None,None,None,None,,['return'],[1.149820638145684],,,2017_Jan_25_1257,60.0010970739,famFaceFilter,001,3,
30,./img/smoo15_KatjaBurkard4_1.png,0,2,2,29,,,1.ja,3.122,None,None,None,host,0.694,None,None,None,,['return'],[1.4664514901796792],,,2017_Jan_25_1257,60.0010970739,famFaceFilter,001,3,
36,./img/smoo15_BastianSchweinsteiger6_2.png,0,3,3,35,,,1.ja,2.073,None,None,None,None,None,sport,1.106,None,Sebastian Schweinsteiger,"['lshift', 's', 'e', 'b', 'a', 's', 't', 'i', 'a', 'n', 'space', 'lshift', 's', 'c', 'h', 'w', 'e', 'i', 'n', 's', 't', 'e', 'i', 'g', 'e', 'r', 'return']","[0.9831047323750681, 1.1333106223974028, 1.3330241053463396, 1.4496585500728543, 1.6164074957632693, 2.132795777048159, 2.4993451359623577, 2.6490310482204222, 2.965863347533741, 3.0991970657978527, 3.199079950509258, 3.3155854433171044, 3.548919450278845, 4.148353409093033, 4.281957220680852, 4.3984373721905285, 4.548030900985395, 4.631650446632193, 4.765026186541945, 5.114776831380368, 5.248226991303454, 5.364436087162176, 5.531307890028984, 5.7313071843218495, 5.797835147481237, 5.997810383580145, 6.114426544078015]",,,2017_Jan_25_1257,60.0010970739,famFaceFilter,001,3,
69,./img/smoo15_BritneySpears5_1.png,0,4,4,68,,,1.ja,2.172,None,None,None,music,1.038,None,None,None,Britney Spears,"['capslock', 'capslock', 'lshift', 'b', 'r', 'i', 't', 'n', 'e', 'y', 'space', 'lshift', 's', 'p', 'e', 'a', 'r', 's', 'return']","[0.3503896304700902, 1.4834593501527706, 1.7666294245827885, 1.9500073938852438, 2.133106929690257, 2.7662127366638742, 3.016033663509006, 3.5991471851430106, 3.7656459256177186, 4.015979773153958, 4.1490356994727335, 4.282165083477594, 4.415276504030771, 4.898662396497457, 5.031895391124635, 5.664990612493057, 5.93160287556384, 6.03129201162119, 6.514598351661334]",,,2017_Jan_25_1257,60.0010970739,famFaceFilter,001,3,
18,./img/smoo15_HughLaurie(DrHouse)4_1.png,0,5,5,17,,,2.nein,2.971,None,act,0.873,None,None,None,None,None,,['return'],[0.6834775702263869],,,2017_Jan_25_1257,60.0010970739,famFaceFilter,001,3,
37,./img/smoo15_Ice-T(OdafinFinTutuola)5_1.png,0,6,6,36,,,1.ja,1.224,None,act,0.406,None,None,None,None,None,,['return'],[0.5335327917982795],,,2017_Jan_25_1257,60.0010970739,famFaceFilter,001,3,
57,./img/smoo15_UrsulavonderLeyen5_1.png,0,7,7,56,,,2.nein,2.107,None,dummy,1.007,None,None,None,None,None,,['return'],[0.6836562424105068],,,2017_Jan_25_1257,60.0010970739,famFaceFilter,001,3,
62,./img/smoo15_RobertSeanLeonard(Wilson)1_1.png,0,8,8,61,,,1.ja,1.807,None,act,0.841,None,None,None,None,None,,['return'],[0.6167080627983523],,,2017_Jan_25_1257,60.0010970739,famFaceFilter,001,3,
40,./img/smoo15_NeilPatrickHarris(Barney)2_2.png,0,9,9,39,,,1.ja,1.84,None,act,0.608,None,None,None,None,None,,['return'],[1.0333639032778592],,,2017_Jan_25_1257,60.0010970739,famFaceFilter,001,3,
45,./img/smoo15_RobertSeanLeonard(Wilson)2_6.png,0,10,10,44,,,1.ja,2.457,None,act,0.457,None,None,None,None,None,,['return'],[1.066832700282248],,,2017_Jan_25_1257,60.0010970739,famFaceFilter,001,3,
31,./img/smoo15_BritneySpears1_1.png,0,11,11,30,,,1.ja,1.824,None,None,None,music,0.624,None,None,None,Britney Spears,"['lshift', 'b', 'r', 'i', 't', 'n', 'e', 'y', 'space', 'lshift', 's', 'p', 'e', 'a', 'r', 's', 'return']","[0.5502567650837591, 0.7337354580249666, 0.9337309030070173, 1.150191775883286, 1.3666317983243061, 1.583206867428089, 1.699705303164592, 1.9498396280796442, 2.1330145462270593, 2.2162395374925836, 2.349604050245034, 2.499466068484253, 2.6160674732909683, 3.0325757568480185, 3.2825057475038193, 3.4657849178220204, 3.5491022925543803]",,,2017_Jan_25_1257,60.0010970739,famFaceFilter,001,3,
6,./img/smoo15_AlysonHannigan(Lily)1_1.png,0,12,12,5,,,1.ja,1.756,None,act,0.973,None,None,None,None,None,,['return'],[0.7500754625343689],,,2017_Jan_25_1257,60.0010970739,famFaceFilter,001,3,
2,./img/smoo15_WillSmith5_1.png,0,13,13,1,,,1.ja,1.957,None,act,0.474,None,None,None,None,None,Will Smith,"['lshift', 'w', 'i', 'l', 'l', 'space', 'lshift', 's', 'm', 'i', 't', 'h', 'return']","[0.5168418584344181, 0.8000334248499712, 0.9833177275850176, 1.1830757983880176, 1.3332595548727113, 1.3998709197712742, 1.533153634663904, 1.6662913588425, 1.866370205563726, 1.9663073014053225, 2.1657949581076537, 2.3992739557870664, 2.665918296448581]",,,2017_Jan_25_1257,60.0010970739,famFaceFilter,001,3,
59,./img/smoo15_JoshRadnor(Ted)1_2.png,0,14,14,58,,,2.nein,5.504,None,act,0.904,None,None,None,None,None,,['return'],[0.7668097006499011],,,2017_Jan_25_1257,60.0010970739,famFaceFilter,001,3,
43,./img/smoo15_JoachimLoew1_1.png,0,15,15,42,,,1.ja,1.59,None,None,None,None,None,sport,1.14,None,Jogi Löw,"['lshift', 'j', 'o', 'g', 'i', 'space', 'lshift', 'l', u'\xf6', 'w', 'return']","[0.8332064664573409, 1.0828458341311489, 1.2998039096801222, 1.8827778937920812, 2.0661356542113936, 2.149278526841954, 2.2825339757819165, 2.5324690988527436, 2.7490743208927597, 2.899039308202191, 3.715374565228558]",,,2017_Jan_25_1257,60.0010970739,famFaceFilter,001,3,
13,./img/smoo15_GeorgeClooney3_1.png,0,16,16,12,,,2.nein,2.438,None,dummy,1.239,None,None,None,None,None,,['return'],[0.5838105677066778],,,2017_Jan_25_1257,60.0010970739,famFaceFilter,001,3,
49,./img/smoo15_TomCruise5_1.png,0,17,17,48,,,1.ja,1.224,None,act,0.524,None,None,None,None,None,Tom Cruise,"['lshift', 't', 'o', 'm', 'space', 'lshift', 'c', 'r', 'u', 'i', 's', 'e', 'return']","[0.6500976281513431, 0.8999416508613649, 1.0332907663687365, 1.1998337739187264, 1.2830491419081227, 1.3497214542312577, 1.6663577594572416, 2.182798006442681, 2.5993473493163037, 2.6659827724088245, 2.7991942750486487, 2.9491926230530225, 3.032409915696917]",,,2017_Jan_25_1257,60.0010970739,famFaceFilter,001,3,
63,./img/smoo15_RobertSeanLeonard(Wilson)8_1.png,0,18,18,62,,,1.ja,2.256,None,act,0.407,None,None,None,None,None,,['return'],[0.4667340937648987],,,2017_Jan_25_1257,60.0010970739,famFaceFilter,001,3,
38,./img/smoo15_AlysonHannigan(Lily)5_4.png,0,19,19,37,,,1.ja,1.506,None,dummy,0.408,None,None,None,None,None,,['return'],[0.6834894389339752],,,2017_Jan_25_1257,60.0010970739,famFaceFilter,001,3,
60,./img/smoo15_LeonardoDiCaprio2_1.png,0,20,20,59,,,1.ja,1.74,None,act,0.824,None,None,None,None,None,Leonardo Di Caprio,"['lshift', 'l', 'e', 'o', 'n', 'a', 'r', 'd', 'o', 'space', 'lshift', 'd', 'i', 'space', 'lshift', 'c', 'a', 'p', 'r', 'i', 'o', 'return']","[0.7168280009154842, 0.8335426396206458, 0.950025998889032, 1.2830100072478672, 2.132840364902222, 2.89899504112509, 3.2658019831014826, 3.5324572301451553, 3.6489271168247797, 3.715312655476737, 3.8320892039337195, 4.198732229415327, 4.3321012330306985, 4.415285806531756, 4.532215044328041, 5.19839477314963, 5.448274401986055, 5.598159516090163, 5.798005800270403, 5.964701176382732, 6.147970723424805, 6.3810115411979496]",,,2017_Jan_25_1257,60.0010970739,famFaceFilter,001,3,
35,./img/smoo15_KatjaBurkard1_1.png,0,21,21,34,,,2.nein,5.653,None,act,0.855,None,None,None,None,None,,['return'],[0.5169278263801971],,,2017_Jan_25_1257,60.0010970739,famFaceFilter,001,3,
29,./img/smoo15_GuentherJauch3_1.png,0,22,22,28,,,1.ja,1.725,None,None,None,host,0.507,None,None,None,Günther Jauch,"['lshift', 'g', u'\xfc', 'n', 't', 'h', 'e', 'r', 'space', 'lshift', 'j', 'a', 'u', 'c', 'h', 'return']","[0.6335895370593789, 0.8001408847831044, 1.3998722028736665, 1.6329322672027047, 1.8830345145252068, 2.082938859146452, 2.182788383164734, 2.349522573162176, 2.4493332832917076, 2.6159025944671157, 2.782496284611625, 2.965690449313115, 3.099058169826094, 3.199024777051818, 3.298989138847901, 3.581977012556308]",,,2017_Jan_25_1257,60.0010970739,famFaceFilter,001,3,
48,./img/smoo15_JoshRadnor(Ted)6_2.png,0,23,23,47,,,2.nein,2.355,None,dummy,1.37,None,None,None,None,None,,['return'],[0.7500661600333842],,,2017_Jan_25_1257,60.0010970739,famFaceFilter,001,3,
4,./img/smoo15_UrsulavonderLeyen1_1.png,0,24,24,3,,,2.nein,1.94,None,None,None,None,None,polit,0.974,None,,['return'],[0.6002747124966845],,,2017_Jan_25_1257,60.0010970739,famFaceFilter,001,3,
7,./img/smoo15_LisaEdelstein(DrLisaCuddy)2_2.png,0,25,25,6,,,1.ja,2.057,None,dummy,0.408,None,None,None,None,None,,['return'],[0.73357250385925],,,2017_Jan_25_1257,60.0010970739,famFaceFilter,001,3,
42,./img/smoo15_OmarEpps(DrEricForeman)1_5.png,0,26,26,41,,,1.ja,2.006,None,act,0.458,None,None,None,None,None,,['return'],[0.6336206523228611],,,2017_Jan_25_1257,60.0010970739,famFaceFilter,001,3,
24,./img/smoo15_BastianSchweinsteiger1_1.png,0,27,27,23,,,1.ja,4.706,None,None,None,None,None,sport,0.868,None,,['return'],[1.3831187182040594],,,2017_Jan_25_1257,60.0010970739,famFaceFilter,001,3,
10,./img/smoo15_KatjaBurkard5_3.png,0,28,28,9,,,1.ja,4.321,None,None,None,host,0.868,None,None,None,,['return'],[0.6667914485005895],,,2017_Jan_25_1257,60.0010970739,famFaceFilter,001,3,
23,./img/smoo15_JoachimLoew4_1.png,0,29,29,22,,,1.ja,1.974,None,None,None,None,None,sport,1.824,None,Jogi Löw,"['lshift', 'j', 'o', 'g', 'i', 'space', 'lshift', 'l', u'\xf6', 'w', 'return']","[0.8833437425109878, 1.0497484956413246, 1.249886685905949, 1.5330407215406012, 1.6998422744800337, 1.7662727217611973, 1.8494890520778426, 2.082880798705446, 2.3494847216024937, 2.5493829714814638, 2.649127601773216]",,,2017_Jan_25_1257,60.0010970739,famFaceFilter,001,3,
9,./img/smoo15_EmilyDeschanel6_12.png,0,30,30,8,,,1.ja,2.372,None,act,0.422,None,None,None,None,None,,['return'],[0.6002031794669165],,,2017_Jan_25_1257,60.0010970739,famFaceFilter,001,3,
5,./img/smoo15_BarackObama1_3.png,0,31,31,4,,,1.ja,1.592,None,None,None,None,None,polit,1.107,None,Barak Obama,"['lshift', 'b', 'r', 'a', 'backspace', 'backspace', 'a', 'r', 'a', 'k', 'space', 'lshift', 'o', 'b', 'a', 'm', 'a', 'return']","[0.6166442283920333, 0.7001521440179204, 0.8500549007985683, 1.099931642651427, 2.9822546761915874, 3.132458641559424, 3.582041488516552, 3.782234531463473, 3.9655255704929004, 4.6151603189919115, 4.715217385028154, 4.814936674021737, 4.965069106359806, 5.198389640734604, 5.881281474132265, 5.981413922509091, 6.18129324660913, 6.53068269776486]",,,2017_Jan_25_1257,60.0010970739,famFaceFilter,001,3,
71,./img/smoo15_AngelaMerkel1_1.png,0,32,32,70,,,1.ja,1.838,None,None,None,None,None,polit,0.606,None,Angela Merkel,"['lshift', 'a', 'n', 'g', 'e', 'l', 'a', 'space', 'lshift', 'm', 'e', 'r', 'k', 'l', 'backspace', 'e', 'l', 'return']","[0.5835176992914057, 0.7335529365263938, 1.0833680573250604, 1.2999242006499117, 1.43318029114198, 1.5661919503836543, 1.6830442019581824, 2.415876354996726, 2.549368536565453, 2.7658797712610976, 2.8658306604665995, 3.0824230514699593, 3.3155732538307348, 3.9154890180761868, 4.798364427746492, 5.348215411293495, 5.4648883491299785, 7.147531581191288]",,,2017_Jan_25_1257,60.0010970739,famFaceFilter,001,3,
67,./img/smoo15_GeorgeClooney4_2.png,0,33,33,66,,,2.nein,2.82,None,dummy,1.039,None,None,None,None,None,,['return'],[0.7841293548135582],,,2017_Jan_25_1257,60.0010970739,famFaceFilter,001,3,
16,./img/smoo15_WillSmith4_1.png,0,34,34,15,,,1.ja,1.273,None,dummy,0.457,None,None,None,None,None,Will Smith,"['lshift', 'w', 'i', 'l', 'l', 'space', 'lshift', 's', 'm', 'i', 't', 'h', 'return']","[0.7001251988403965, 0.8163240298690653, 1.0500644599196676, 1.2665558065091318, 1.41581829455572, 1.5329281291924417, 1.6329207192684407, 1.7497559697185352, 1.8829151858844853, 1.9662187672511209, 2.1994706555778976, 2.382758807623759, 2.6159718820654234]",,,2017_Jan_25_1257,60.0010970739,famFaceFilter,001,3,
61,./img/smoo15_OmarEpps(DrEricForeman)3_1.png,0,35,35,60,,,1.ja,1.823,None,dummy,0.407,None,None,None,None,None,,['return'],[0.699993359938162],,,2017_Jan_25_1257,60.0010970739,famFaceFilter,001,3,
50,./img/smoo15_OmarEpps(DrEricForeman)2_2.png,0,36,36,49,,,1.ja,2.524,None,act,0.507,None,None,None,None,None,,['return'],[0.7168004141858546],,,2017_Jan_25_1257,60.0010970739,famFaceFilter,001,3,
54,./img/smoo15_LisaEdelstein(DrLisaCuddy)6_3.png,0,37,37,53,,,1.ja,1.691,None,dummy,0.509,None,None,None,None,None,,['return'],[0.6498188738769386],,,2017_Jan_25_1257,60.0010970739,famFaceFilter,001,3,
12,./img/smoo15_MariskaHargitay(Liv)8_8.png,0,38,38,11,,,2.nein,2.807,None,act,1.424,None,None,None,None,None,,['return'],[0.8667926674461341],,,2017_Jan_25_1257,60.0010970739,famFaceFilter,001,3,
15,./img/smoo15_LisaEdelstein(DrLisaCuddy)1_1.png,0,39,39,14,,,1.ja,1.674,None,act,0.69,None,None,None,None,None,,['return'],[0.6166791929663304],,,2017_Jan_25_1257,60.0010970739,famFaceFilter,001,3,
55,./img/smoo15_MariskaHargitay(Liv)4_4.png,0,40,40,54,,,2.nein,2.057,None,act,0.942,None,None,None,None,None,,['return'],[0.7168899106673052],,,2017_Jan_25_1257,60.0010970739,famFaceFilter,001,3,
1,./img/smoo15_Ice-T(OdafinFinTutuola)6_1.png,0,41,41,0,,,1.ja,1.507,None,act,0.407,None,None,None,None,None,,['return'],[0.6002156897266104],,,2017_Jan_25_1257,60.0010970739,famFaceFilter,001,3,
66,./img/smoo15_NicoleKidman3_1.png,0,42,42,65,,,2.nein,1.874,None,act,3.789,None,None,None,None,None,,['return'],[0.6001999717082072],,,2017_Jan_25_1257,60.0010970739,famFaceFilter,001,3,
8,./img/smoo15_AngelaMerkel4_1.png,0,43,43,7,,,1.ja,1.09,None,None,None,None,None,polit,1.09,None,Angela Merkel ,"['lshift', 'a', 'n', 'g', 'e', 'l', 'a', 'space', 'lshift', 'm', 'e', 'r', 'k', 'e', 'l', 'space', 'return']","[0.3668669270718965, 0.5504072089897818, 0.7834400073643337, 0.966673948280004, 1.1165388535009697, 1.2829493805966194, 1.433091436212635, 1.5829313209123939, 1.7662409649437905, 1.8663108620166895, 2.0332192333389685, 2.1995999282735283, 2.3327504834887804, 2.51595010138044, 2.616009092071181, 2.8325886520378845, 2.982567432711221]",,,2017_Jan_25_1257,60.0010970739,famFaceFilter,001,3,
19,./img/smoo15_NicoleKidman7_1.png,0,44,44,18,,,2.nein,5.687,None,dummy,1.053,None,None,None,None,None,,['return'],[0.7833880416656029],,,2017_Jan_25_1257,60.0010970739,famFaceFilter,001,3,
11,./img/smoo15_LeonardoDiCaprio3_1.png,0,45,45,10,,,1.ja,1.857,None,act,1.707,None,None,None,None,None,Leonardo Di Caprio,"['lshift', 'l', 'e', 'o', 'n', 'a', 'r', 'd', 'o', 'space', 'lshift', 'd', 'i', 'space', 'lshift', 'c', 'a', 'p', 'r', 'i', 'o', 'return']","[1.0164695979819953, 1.1332435802323744, 1.2496236496535857, 1.9328147669839382, 2.1326719575445168, 2.349274292600967, 2.4992017491276783, 2.6159507108550315, 3.3323716471295484, 3.382311645995287, 3.532092828701934, 3.682146991715854, 3.7821992461122136, 3.848731700134522, 3.965306801315819, 4.098692164503518, 4.33202520913801, 4.465132138828267, 4.631756944238077, 5.015030917986223, 5.181464540948582, 5.4814166491050855]",,,2017_Jan_25_1257,60.0010970739,famFaceFilter,001,3,
47,./img/smoo15_BarackObama4_1.png,0,46,46,46,,,1.ja,1.605,None,None,None,None,None,polit,0.673,None,Barak Obama,"['lshift', 'lshift', 'b', 'r', 'a', 'backspace', 'backspace', 'a', 'r', 'a', 'k', 'space', 'lshift', 'o', 'b', 'a', 'm', 'a', 'return']","[0.3839116762756021, 0.8669289972131082, 1.100411844201517, 1.2668842810489878, 1.5168912579247262, 3.166279329745521, 3.316061474779417, 3.349216552935104, 3.5327606841638044, 4.182396074214921, 4.415584769687484, 4.49901313288683, 4.648765766536599, 4.715652998726, 4.898231273662532, 5.082189847376867, 5.348471390476334, 5.481885623496055, 5.631566403340912]",,,2017_Jan_25_1257,60.0010970739,famFaceFilter,001,3,
56,./img/smoo15_MariskaHargitay(Liv)6_5.png,0,47,47,55,,,2.nein,1.885,None,dummy,0.823,None,None,None,None,None,,['return'],[0.7335061032426893],,,2017_Jan_25_1257,60.0010970739,famFaceFilter,001,3,
46,./img/smoo15_NeilPatrickHarris(Barney)1_1.png,0,48,48,45,,,1.ja,1.074,None,act,0.508,None,None,None,None,None,,['return'],[0.5667953298870998],,,2017_Jan_25_1257,60.0010970739,famFaceFilter,001,3,
58,./img/smoo15_EmilyDeschanel3_1.png,0,49,49,57,,,1.ja,1.29,None,act,0.408,None,None,None,None,None,,['return'],[0.6337454341555713],,,2017_Jan_25_1257,60.0010970739,famFaceFilter,001,3,
25,./img/smoo15_JasonSegel(Marshall)6_1.png,0,50,50,24,,,1.ja,2.007,None,act,0.474,None,None,None,None,None,,['return'],[0.5836084788788867],,,2017_Jan_25_1257,60.0010970739,famFaceFilter,001,3,
53,./img/smoo15_GuentherJauch4_1.png,0,51,51,52,,,1.ja,1.457,None,None,None,host,0.758,None,None,None,Günther Jauch,"['lshift', 'g', u'\xfc', 'n', 't', 'h', 'e', 'r', 'space', 'lshift', 'j', 'a', 'u', 'c', 'h', 'return']","[0.4837355382187525, 0.7669662392963801, 1.0002258262466057, 1.216871786828051, 1.4168264932668535, 1.5834137678939442, 1.6664530299040052, 1.7999407206098113, 1.899921441976403, 2.0831268338351947, 2.3498411036489415, 2.5829502466913254, 2.699479476916167, 2.816252176062335, 2.8995275291490543, 3.1992926249440643]",,,2017_Jan_25_1257,60.0010970739,famFaceFilter,001,3,
51,./img/smoo15_LeonardoDiCaprio1_1.png,0,52,52,50,,,1.ja,1.822,None,act,0.406,None,None,None,None,None,Leonardo Di Capri,"['lshift', 'l', 'e', 'o', 'n', 'a', 'r', 'd', 'o', 'space', 'lshift', 'd', 'i', 'space', 'lshift', 'c', 'a', 'p', 'r', 'i', 'return']","[0.6000328474547132, 1.03326799127899, 1.2500464323147753, 1.4164072391431546, 1.6663904786018975, 1.79943614009062, 1.966324302529756, 2.1495450916318077, 2.3660912909017497, 2.4493846074401517, 2.582580712834897, 2.8659503098861023, 2.9659457869456674, 3.0157507391486433, 3.215775053962716, 3.299076069122748, 3.5156703847806057, 3.6156106883827306, 3.7488536270611803, 3.915491263507647, 4.182037125963689]",,,2017_Jan_25_1257,60.0010970739,famFaceFilter,001,3,
33,./img/smoo15_Ice-T(OdafinFinTutuola)7_1.png,0,53,53,32,,,1.ja,1.734,None,dummy,0.49,None,None,None,None,None,,['return'],[0.850128037707691],,,2017_Jan_25_1257,60.0010970739,famFaceFilter,001,3,
26,./img/smoo15_TomCruise4_1.png,0,54,54,25,,,1.ja,1.524,None,act,0.408,None,None,None,None,None,Tom Cruise,"['lshift', 't', 'o', 'm', 'space', 'lshift', 'c', 'r', 'u', 'i', 's', 'e', 'return']","[0.5333608559067216, 0.8500119168238598, 0.9499262375775288, 1.166722000511072, 1.2662456161961018, 1.3163456822421722, 1.4998022416457388, 1.7161723349363456, 1.9497507731484802, 2.049510159133206, 2.8158980394491664, 2.9991435282972816, 3.0491252280298795]",,,2017_Jan_25_1257,60.0010970739,famFaceFilter,001,3,
44,./img/smoo15_GuentherJauch2_1.png,0,55,55,43,,,1.ja,1.323,None,None,None,host,0.723,None,None,None,Günther Jauch ,"['lshift', 'g', u'\xfc', 'n', 't', 'h', 'e', 'r', 'space', 'lshift', 'j', 'a', 'u', 'c', 'h', 'space', 'return']","[0.783440328141296, 1.6662852641002246, 1.999578821218165, 2.199453654455283, 2.416044120802326, 2.5826708508666343, 2.649085900904538, 2.782686504731828, 2.9990719952675136, 3.099111418627217, 3.215903685106241, 3.349125773349442, 3.4323129130589223, 4.315319199304213, 4.531648874830353, 4.581575080330367, 4.765175988895862]",,,2017_Jan_25_1257,60.0010970739,famFaceFilter,001,3,
28,./img/smoo15_HughLaurie(DrHouse)5_3.png,0,56,56,27,,,1.ja,1.903,None,dummy,0.439,None,None,None,None,None,,['return'],[0.48355590370556456],,,2017_Jan_25_1257,60.0010970739,famFaceFilter,001,3,
22,./img/smoo15_WillSmith1_1.png,0,57,57,21,,,1.ja,0.974,None,dummy,0.407,None,None,None,None,None,Will Smith,"['lshift', 'w', 'i', 'l', 'l', 'space', 'lshift', 's', 'm', 'i', 't', 'h', 'return']","[0.3333166529846494, 0.4836604766533128, 0.7167914324600133, 0.9000410913959058, 1.0166274197326857, 1.1165904984245572, 1.1665911239379056, 1.2832724019481248, 1.4332078778716095, 1.5164354353455565, 2.016274886998872, 2.182988226561065, 2.3828046785802144]",,,2017_Jan_25_1257,60.0010970739,famFaceFilter,001,3,
65,./img/smoo15_UrsulavonderLeyen4_1.png,0,58,58,64,,,1.ja,4.605,None,None,None,None,None,polit,3.401,None,von der Leyn ,"['v', 'o', 'n', 'space', 'd', 'e', 'r', 'space', 'lshift', 'l', 'e', 'y', 'n', 'space', 'return']","[1.6496620144534972, 1.7496635862553376, 1.8994784504338895, 1.9995518760406412, 2.132740603590719, 2.3159912248538603, 2.482707772174763, 2.5989701168346073, 3.015709679830252, 3.1490847781878983, 3.332342456520564, 4.181945063273815, 4.265177753162789, 4.39856439945288, 5.38150489455802]",,,2017_Jan_25_1257,60.0010970739,famFaceFilter,001,3,
64,./img/smoo15_JoachimLoew8_1.png,0,59,59,63,,,1.ja,1.702,None,None,None,None,None,sport,0.706,None,Jogi Löw,"['lshift', 'j', 'o', 'b', 'backspace', 'g', 'i', 'space', 'lshift', 'l', u'\xf6', 'w', 'return']","[0.3669772739885957, 0.6835224788537744, 0.8999868802657147, 1.1332275414351898, 1.466491907945965, 1.633011819631065, 1.7497598190311692, 1.8163638060832454, 1.9493549356666335, 2.082886572672578, 2.299456830138297, 2.549331005782733, 2.765580487330226]",,,2017_Jan_25_1257,60.0010970739,famFaceFilter,001,3,
52,./img/smoo15_BastianSchweinsteiger3_1.png,0,60,60,51,,,1.ja,1.989,None,None,None,None,None,sport,0.99,None,Sebastian Schweinsteiger,"['lshift', 's', 'e', 'b', 'a', 's', 't', 'i', 'a', 'n', 'space', 'lshift', 's', 'c', 'h', 'w', 'e', 'i', 'n', 's', 't', 'e', 'i', 'g', 'e', 'r', 'return']","[0.4502734775105637, 0.5669460945700848, 0.7834685564230313, 0.9333183851758804, 1.0666296491272078, 1.266529823660676, 1.4998756993318239, 2.115985515043576, 2.6326169444746483, 2.749292127742592, 2.8493495145539782, 2.949302328417616, 3.099163384327767, 3.4490715301435557, 3.54893773450749, 3.682368647876501, 3.832070278154788, 3.915546436966906, 4.032426596046207, 4.165142499890862, 4.248685380092866, 4.381961037915971, 4.581900347111514, 4.79833555791447, 4.948214898053266, 5.115121986271333, 5.165016755730903]",,,2017_Jan_25_1257,60.0010970739,famFaceFilter,001,3,
14,./img/smoo15_BritneySpears7_1.png,0,61,61,13,,,1.ja,1.937,None,None,None,music,0.788,None,None,None,Britney Spears,"['lshift', 'b', 'r', 'i', 't', 'n', 'e', 'y', 'space', 'lshift', 's', 'p', 'e', 'a', 'r', 's', 'return']","[0.6000613965115917, 0.7001373883267661, 0.8501742294411088, 0.9666171709432092, 1.1665192701329943, 1.3998295396777394, 1.516550914677282, 1.7497707254133275, 1.8661379637978825, 1.966277790021195, 2.0829651627736894, 2.266167667648915, 2.382618628547789, 2.599436525022611, 2.7827307718089287, 2.9993096902235266, 3.099144137771873]",,,2017_Jan_25_1257,60.0010970739,famFaceFilter,001,3,
70,./img/smoo15_JasonSegel(Marshall)7_1.png,0,62,62,69,,,1.ja,1.554,None,dummy,0.405,None,None,None,None,None,,['return'],[0.7168039427215263],,,2017_Jan_25_1257,60.0010970739,famFaceFilter,001,3,
21,./img/smoo15_NeilPatrickHarris(Barney)3_7.png,0,63,63,20,,,1.ja,0.874,None,dummy,0.408,None,None,None,None,None,,['return'],[0.516718038930776],,,2017_Jan_25_1257,60.0010970739,famFaceFilter,001,3,
17,./img/smoo15_GeorgeClooney11_1.png,0,64,64,16,,,1.ja,1.658,None,act,0.608,None,None,None,None,None,George Clooney,"['lshift', 'g', 'e', 'o', 'r', 'g', 'e', 'space', 'lshift', 'c', 'l', 'o', 'o', 'n', 'e', 'y', 'return']","[0.5502439340471028, 0.7168023388403526, 1.2333388186016236, 1.832947600290936, 2.0328124894731445, 2.249552437398961, 2.3828733246264164, 2.4827536431312183, 2.615878536273158, 2.8159686101516854, 2.949046349232958, 3.1157067607691715, 3.2490901993005536, 3.5155773597634834, 3.7486848989283317, 3.9821260450480622, 4.165137367474017]",,,2017_Jan_25_1257,60.0010970739,famFaceFilter,001,3,
39,./img/smoo15_BarackObama2_1.png,0,65,65,38,,,1.ja,1.619,None,None,None,None,None,polit,0.622,None,Barak Obama,"['lshift', 'b', 'r', 'backspace', 'a', 'r', 'a', 'k', 'space', 'lshift', 'o', 'b', 'a', 'm', 'a', 'return']","[0.5500800175523182, 0.7001948072156665, 0.983293027838954, 1.4664380175909173, 1.5663744718822272, 1.8328279508732521, 2.416012363986738, 2.5327635711473704, 2.599329385864621, 2.7160177209443646, 2.8325315539241274, 3.0158668600306555, 3.165810676127876, 3.2657272423111863, 3.3325224118107144, 3.4490590198820428]",,,2017_Jan_25_1257,60.0010970739,famFaceFilter,001,3,
3,./img/smoo15_JoshRadnor(Ted)3_1.png,0,66,66,2,,,2.nein,1.956,None,act,0.94,None,None,None,None,None,,['return'],[0.5002320813764527],,,2017_Jan_25_1257,60.0010970739,famFaceFilter,001,3,
32,./img/smoo15_TomCruise1_1.png,0,67,67,31,,,1.ja,1.107,None,dummy,0.424,None,None,None,None,None,Tom Cruise,"['lshift', 't', 'o', 'm', 'space', 'lshift', 'c', 'r', 'u', 'i', 's', 'e', 'return']","[0.41672159954396193, 0.7001251988422155, 0.8334431990861049, 1.016643137752908, 1.116709185514992, 1.23310336907889, 1.3666010038359673, 2.066173826546219, 2.4493300755329983, 2.6994567018282396, 3.2157728085312556, 3.39896633168064, 3.4263083086425468]",,,2017_Jan_25_1257,60.0010970739,famFaceFilter,001,3,
20,./img/smoo15_NicoleKidman5_1.png,0,68,68,19,,,2.nein,1.24,None,None,None,music,0.923,None,None,None,,['return'],[0.4670510203723097],,,2017_Jan_25_1257,60.0010970739,famFaceFilter,001,3,
34,./img/smoo15_EmilyDeschanel5_1.png,0,69,69,33,,,2.nein,1.988,None,act,0.824,None,None,None,None,None,,['return'],[0.5002625550896482],,,2017_Jan_25_1257,60.0010970739,famFaceFilter,001,3,
72,./img/smoo15_HughLaurie(DrHouse)2_1.png,0,70,70,71,,,1.ja,0.99,None,dummy,0.407,None,None,None,None,None,,['return'],[0.6668523959233426],,,2017_Jan_25_1257,60.0010970739,famFaceFilter,001,3,
68,./img/smoo15_AlysonHannigan(Lily)8_3.png,0,71,71,67,,,1.ja,1.124,None,dummy,0.407,None,None,None,None,None,,['return'],[0.49981058181947446],,,2017_Jan_25_1257,60.0010970739,famFaceFilter,001,3,
47,./img/edges5_UrsulavonderLeyen5_1.png,0,0,0,46,,,2.nein,5.367,None,None,None,None,None,polit,1.134,None,,['return'],[0.8836324408384826],,,2017_Jan_25_1257,60.0010970739,famFaceFilter,001,3,
63,./img/edges5_LisaEdelstein(DrLisaCuddy)2_2.png,0,1,1,62,,,1.ja,1.888,None,act,0.406,None,None,None,None,None,,['return'],[0.8999650675032171],,,2017_Jan_25_1257,60.0010970739,famFaceFilter,001,3,
40,./img/edges5_NicoleKidman3_1.png,0,2,2,39,,,2.nein,3.056,None,dummy,1.206,None,None,None,None,None,,['return'],[0.7669226137713849],,,2017_Jan_25_1257,60.0010970739,famFaceFilter,001,3,
42,./img/edges5_JoachimLoew4_1.png,0,3,3,41,,,1.ja,1.089,None,None,None,None,None,sport,0.589,None,Jogi Löw,"['lshift', 'j', 'o', 'g', 'i', 'space', 'lshift', 'l', u'\xf6', 'w', 'return']","[0.5502198758531449, 0.8667484003708523, 1.04994224429538, 2.7493447349916096, 2.882523518488597, 2.9658957459014346, 3.0822427754046657, 3.265847854056119, 3.549034288058465, 3.8651656919882953, 3.948721724003917]",,,2017_Jan_25_1257,60.0010970739,famFaceFilter,001,3,
49,./img/edges5_RobertSeanLeonard(Wilson)2_6.png,0,4,4,48,,,1.ja,1.472,None,act,0.439,None,None,None,None,None,,['return'],[0.5169948685470445],,,2017_Jan_25_1257,60.0010970739,famFaceFilter,001,3,
34,./img/edges5_KatjaBurkard1_1.png,0,5,5,33,,,2.nein,2.988,None,None,None,host,1.038,None,None,None,,['return'],[0.683532743682008],,,2017_Jan_25_1257,60.0010970739,famFaceFilter,001,3,
10,./img/edges5_GuentherJauch4_1.png,0,6,6,9,,,1.ja,1.172,None,None,None,host,0.539,None,None,None,Günther Jauch,"['lshift', 'j', 'backspace', 'lshift', 'g', u'\xfc', 'n', 't', 'h', 'e', 'r', 'space', 'lshift', 'j', 'a', 'u', 'c', 'h', 'return']","[0.6501005151349091, 1.4497814072510664, 8.846853236356765, 12.145407082283782, 12.345372695104743, 12.878528575200107, 13.128337633334013, 13.345023370129638, 13.528066128597857, 13.678243469563313, 13.84481053530726, 13.911406823737707, 14.094588798954646, 14.12803610397168, 14.32785576374954, 14.461081380530231, 14.527728993107303, 14.64453922303619, 15.310804919803559]",,,2017_Jan_25_1257,60.0010970739,famFaceFilter,001,3,
13,./img/edges5_MariskaHargitay(Liv)6_5.png,0,7,7,12,,,1.ja,1.935,None,act,0.438,None,None,None,None,None,,['return'],[0.6834871935025149],,,2017_Jan_25_1257,60.0010970739,famFaceFilter,001,3,
33,./img/edges5_BarackObama2_1.png,0,8,8,32,,,1.ja,0.989,None,None,None,None,None,polit,0.64,None,Barak Obama,"['lshift', 'b', 'a', 'r', 'a', 'k', 'space', 'lshift', 'o', 'b', 'a', 'm', 'a', 'return']","[0.5002000037857215, 0.6002676554271602, 0.9166466983660939, 1.149474841706251, 1.433095285525269, 1.7829091232197243, 1.8829341116652358, 2.04952170706747, 2.316094193924073, 2.516069750799943, 2.7159333568779402, 2.8824875915852317, 2.9659489947043767, 3.0990790202613425]",,,2017_Jan_25_1257,60.0010970739,famFaceFilter,001,3,
30,./img/edges5_MariskaHargitay(Liv)8_8.png,0,9,9,29,,,1.ja,1.454,None,dummy,0.672,None,None,None,None,None,,['return'],[0.7167237487410603],,,2017_Jan_25_1257,60.0010970739,famFaceFilter,001,3,
12,./img/edges5_UrsulavonderLeyen4_1.png,0,10,10,11,,,1.ja,1.807,None,None,None,None,None,polit,0.523,None,von der Leyn,"['v', 'o', 'n', 'space', 'lshift', 'd', 'e', 'r', 'space', 'backspace', 'backspace', 'backspace', 'backspace', 'd', 'r', 'e', 'r', 'space', 'lshift', 'backspace', 'backspace', 'backspace', 'backspace', 'e', 'r', 'space', 'backspace', 'backspace', 'backspace', 'e', 'r', 'space', 'lshift', 'l', 'e', 'y', 'n', 'return']","[0.9832189286025823, 1.1334427820765995, 1.4001041238625476, 1.516606088134722, 1.566423550597392, 1.6331343560304958, 1.8497642778165755, 1.9997324728828971, 2.116404769167275, 2.316360758712108, 2.4827895700345834, 2.632836996754122, 2.765747611581901, 2.8159708555831457, 3.132699223497184, 3.2491072004249872, 3.365917751129018, 3.5657938674703473, 3.8323740529485804, 3.9819473728603043, 4.115584865920027, 4.265425712948854, 4.498673751964816, 4.6651295084648154, 4.781654889378842, 5.0485734934518405, 5.21502700452038, 5.448322839149114, 5.581159354740521, 5.731469817712423, 6.197954989364007, 6.514459455687756, 6.747672530129421, 6.831220221969488, 7.6806374202424195, 7.813921739016223, 8.063666641966847]",,,2017_Jan_25_1257,60.0010970739,famFaceFilter,001,3,
36,./img/edges5_AngelaMerkel1_1.png,0,11,11,35,,,1.ja,1.502,None,None,None,None,None,polit,0.989,None,Angela Merkel,"['lshift', 'a', 'n', 'l', 'backspace', 'g', 'a', 'backspace', 'e', 'l', 'a', 'space', 'lshift', 'm', 'e', 'r', 'h', 'backspace', 'k', 'e', 'l', 'return']","[0.4168402866325778, 0.5830663675751566, 0.7166884633898007, 0.9165292943780514, 1.4497794825947494, 2.315960751140665, 2.4326946364017203, 2.782531249187741, 2.9823271715486044, 3.165820620180966, 3.332303642633633, 3.4488867632135225, 3.64882222309825, 3.732212093187627, 3.8484734755202226, 3.998690913476821, 4.148739623298752, 4.615027517762428, 4.848446209567555, 4.948449706023894, 5.048268435552018, 5.248202612334353]",,,2017_Jan_25_1257,60.0010970739,famFaceFilter,001,3,
24,./img/edges5_JasonSegel(Marshall)7_1.png,0,12,12,23,,,1.ja,1.652,None,dummy,0.405,None,None,None,None,None,,['return'],[0.566814897219956],,,2017_Jan_25_1257,60.0010970739,famFaceFilter,001,3,
28,./img/edges5_Ice-T(OdafinFinTutuola)5_1.png,0,13,13,27,,,1.ja,1.007,None,dummy,0.423,None,None,None,None,None,Ice T,"['lshift', 'i', 'c', 'e', 'space', 'backspace', 'minus', 'lshift', 't', 'backspace', 'minus', 'space', 'lshift', 't', 'return']","[2.1327720396311634, 2.2662074438630952, 2.4160081939007796, 2.9492285499545687, 3.082427542334699, 3.3990683384236036, 3.6488546214677626, 3.7655423149954004, 4.01534303295557, 4.948448743698464, 5.24822442509867, 5.714814169699821, 5.931270872488312, 6.214578239010734, 9.229975162321352]",,,2017_Jan_25_1257,60.0010970739,famFaceFilter,001,3,
27,./img/edges5_OmarEpps(DrEricForeman)2_2.png,0,14,14,26,,,1.ja,2.335,None,act,0.555,None,None,None,None,None,,['return'],[0.7334647231509734],,,2017_Jan_25_1257,60.0010970739,famFaceFilter,001,3,
32,./img/edges5_Ice-T(OdafinFinTutuola)7_1.png,0,15,15,31,,,1.ja,2.205,None,act,0.74,None,None,None,None,None,Ice T,"['lshift', 'i', 'c', 'e', 'space', 'lshift', 't', 'return']","[0.6667786174621142, 0.833337022255364, 0.9334200711418816, 1.1833247204995132, 1.2830520288916887, 1.4330850206952164, 1.5663648486042803, 2.2661118526375503]",,,2017_Jan_25_1257,60.0010970739,famFaceFilter,001,3,
17,./img/edges5_NeilPatrickHarris(Barney)3_7.png,0,16,16,16,,,1.ja,1.971,None,act,1.071,None,None,None,None,None,,['return'],[0.6835128555758274],,,2017_Jan_25_1257,60.0010970739,famFaceFilter,001,3,
53,./img/edges5_KatjaBurkard4_1.png,0,17,17,52,,,1.ja,4.604,None,None,None,host,0.618,None,None,None,,['return'],[0.866678471220439],,,2017_Jan_25_1257,60.0010970739,famFaceFilter,001,3,
55,./img/edges5_JoachimLoew1_1.png,0,18,18,54,,,1.ja,1.722,None,None,None,None,None,sport,0.738,None,Jogi Löw,"['lshift', 'j', 'o', 'g', 'i', 'space', 'lshift', 'l', u'\xf6', 'w', 'return']","[2.5160065579439106, 2.8827195125759317, 3.050854210232501, 3.4158150867988297, 3.6157582453051873, 3.699094545816479, 3.79892514405401, 4.09885126935842, 4.2988524883076025, 4.665394469375315, 4.965179132501362]",,,2017_Jan_25_1257,60.0010970739,famFaceFilter,001,3,
62,./img/edges5_AlysonHannigan(Lily)5_4.png,0,19,19,61,,,1.ja,2.318,None,dummy,0.505,None,None,None,None,None,,['return'],[0.8665408583528915],,,2017_Jan_25_1257,60.0010970739,famFaceFilter,001,3,
2,./img/edges5_OmarEpps(DrEricForeman)1_5.png,0,20,20,1,,,1.ja,1.639,None,dummy,0.471,None,None,None,None,None,,['return'],[0.7334910267745727],,,2017_Jan_25_1257,60.0010970739,famFaceFilter,001,3,
66,./img/edges5_BritneySpears1_1.png,0,21,21,65,,,1.ja,1.822,None,None,None,music,0.471,None,None,None,Britney Spears,"['lshift', 'b', 'r', 'i', 't', 'n', 'e', 'y', 'space', 'lshift', 's', 'p', 'e', 'a', 'r', 's', 'return']","[0.5667991791979148, 0.7002509430003556, 0.8502127225510776, 0.9666569471555704, 1.2165352928896027, 1.4166353108212206, 1.783039358242604, 2.016341608390576, 2.116336443898035, 2.2329192437009624, 2.3496091826600605, 2.649358239659705, 2.9492445887517533, 3.1824862122484774, 3.332270923490796, 3.5657447887551825, 4.082135957023638]",,,2017_Jan_25_1257,60.0010970739,famFaceFilter,001,3,
25,./img/edges5_JoachimLoew8_1.png,0,22,22,24,,,1.ja,1.6,None,None,None,None,None,sport,0.638,None,Jogi Löw,"['lshift', 'j', 'o', 'g', 'i', 'space', 'lshift', 'l', u'\xf6', 'w', 'return']","[1.1832775664388464, 1.449778199490538, 1.8329851310736558, 2.1324698687149066, 2.2662802599952556, 2.349447190819774, 2.48261699259092, 2.6325165416110394, 2.8658463784868218, 3.0657840838048287, 3.3482805288058444]",,,2017_Jan_25_1257,60.0010970739,famFaceFilter,001,3,
60,./img/edges5_TomCruise1_1.png,0,23,23,59,,,None,None,1,None,None,None,None,None,None,2,Tom Cruise,"['lshift', 't', 'o', 'm', 'space', 'lshift', 'c', 'r', 'u', 'i', 'e', 'backspace', 's', 'e', 'return']","[1.183240356433089, 1.4331113243188156, 1.6664523883518996, 1.7996401535747282, 1.9164542328144307, 1.9995316671593173, 2.3827305793438427, 2.81575272795817, 2.932430798207861, 3.1324891152708005, 3.598814219738415, 4.198627335688798, 4.248446081255679, 4.448442809341941, 4.615091993720853]",2.78293703072,0.999966639305,2017_Jan_25_1257,60.0010970739,famFaceFilter,001,3,
8,./img/edges5_LeonardoDiCaprio3_1.png,0,24,24,7,,,None,None,1,None,None,None,None,None,None,1,Leonardo di Caprio,"['lshift', 'l', 'e', 'o', 'n', 'a', 'r', 'd', 'o', 'space', 'lshift', 'd', 'i', 'space', 'lshift', 'c', 'a', 'p', 'r', 'i', 'o', 'backspace', 'backspace', 'backspace', 'backspace', 'backspace', 'backspace', 'backspace', 'backspace', 'backspace', 'd', 'i', 'space', 'lshift', 'c', 'a', 'r', 'i', 'p', 'backspace', 'backspace', 'p', 'backspace', 'backspace', 'p', 'r', 'i', 'o', 'return']","[0.6668328285923053, 1.0166726491370355, 1.150043898183867, 1.466499606569414, 1.6829389874583285, 1.8497905814419937, 2.1329596935429436, 2.3992274432785052, 2.6493986574241717, 2.7326444991267635, 2.815864678754224, 3.1491081948297506, 3.215857493374642, 3.2824605180976505, 3.4656970252199244, 3.832267555344515, 4.082044215110727, 4.215342648025398, 5.214958358474178, 5.33163225863791, 5.49826251723789, 5.931380577852906, 6.081187101857722, 6.231320817298183, 6.347786213114887, 6.4810339634332195, 6.631040010059223, 6.764305082277133, 6.897501829225803, 7.047097924227273, 7.696920647415027, 7.763953191095425, 7.8472076937468955, 8.330175935967418, 8.463538844840514, 8.680152407054265, 8.879927799756842, 9.163198918600756, 9.329770475207624, 10.07962267770381, 11.828938222086435, 12.112159299887935, 12.92824820100941, 13.078498358108845, 13.72802211814087, 13.994703668809962, 14.244463969005665, 14.427644019566287, 14.761008468163709]",1.43314179803,1.26608266203,2017_Jan_25_1257,60.0010970739,famFaceFilter,001,3,
48,./img/edges5_GeorgeClooney3_1.png,0,25,25,47,,,None,None,1,None,None,None,None,None,None,1,George Clooney,"['lshift', 'g', 'e', 'o', 'r', 'g', 'e', 'space', 'lshift', 'c', 'l', 'o', 'o', 'n', 'e', 'y', 'return']","[0.5669496231039375, 1.0334517958799552, 1.2166000896249898, 1.5831366175007133, 1.6996340909099672, 2.499457407533555, 2.632816787870979, 2.732742656557093, 3.3324229712761735, 3.6324944080733985, 3.782285534834955, 3.9155101892865787, 4.0488923447155685, 5.081590958738161, 5.248376152107085, 5.698231658594523, 6.048131785011719]",1.3831774202,0.866762193735,2017_Jan_25_1257,60.0010970739,famFaceFilter,001,3,
29,./img/edges5_TomCruise4_1.png,0,26,26,28,,,None,None,1,None,None,None,None,None,None,1,Tom Cruise,"['lshift', 't', 'o', 'm', 'space', 'lshift', 'c', 'r', 'u', 'i', 's', 'e', 'return']","[0.40023147190186137, 0.7000421178781835, 0.8668395007316576, 1.0166787438793108, 1.0998585057423043, 1.1665648203124874, 1.2998741596074979, 1.5664152104236564, 1.8496718943515589, 2.0161757672394742, 2.56606235691288, 2.7326926155128604, 2.8325228929752484]",2.21601884366,0.850099167876,2017_Jan_25_1257,60.0010970739,famFaceFilter,001,3,
50,./img/edges5_WillSmith5_1.png,0,27,27,49,,,None,None,1,None,None,None,None,None,None,1,Will Smith,"['lshift', 'w', 'i', 'l', 'l', 'space', 'lshift', 's', 'm', 'i', 't', 'h', 'return']","[0.6334798316947854, 1.0999547385163169, 1.2495229260148335, 1.4165503052008717, 1.5664825733656471, 1.7829867509917676, 1.9163236770145886, 2.2325214815609797, 2.4490336785838736, 2.5493197786254314, 2.7659500211866543, 2.965750113633476, 4.16476013499414]",1.13336098422,1.34975994734,2017_Jan_25_1257,60.0010970739,famFaceFilter,001,3,
52,./img/edges5_BarackObama4_1.png,0,28,28,51,,,None,None,1,None,None,None,None,None,None,4,Barak Obama,"['lshift', 'b', 'r', 'backspace', 'a', 'r', 'a', 'k', 'space', 'lshift', 'o', 'b', 'a', 'm', 'a', 'return']","[0.48344619833915203, 0.9333158189674577, 1.133191935306968, 1.549857719841384, 1.649783588525679, 1.8163580321161135, 2.2828916409307567, 2.4993294179421355, 2.582684002680253, 2.7326765767174948, 2.815600038620687, 2.9825129008040676, 3.132530174587373, 3.215817717158643, 3.332485201804957, 3.4823414460770437]",1.40051824557,1.23278323471,2017_Jan_25_1257,60.0010970739,famFaceFilter,001,3,
6,./img/edges5_GuentherJauch3_1.png,0,29,29,5,,,None,None,1,None,None,None,None,None,None,3,Günther Jauch,"['lshift', 'g', u'\xfc', 'n', 't', 'h', 'e', 'r', 'space', 'lshift', 'j', 'a', 'u', 'c', 'h', 'return']","[0.4668293642116623, 1.66644693516173, 2.032947215358945, 2.2327591765169927, 2.6827522958719783, 2.849230506686581, 2.9491772258079436, 3.065772856647527, 3.2158943826034374, 3.41568581410138, 3.5656007603665785, 3.7487949250680686, 3.8155936231014493, 3.981903747335309, 4.048849039965717, 4.382106349405149]",1.48318604907,1.19984820884,2017_Jan_25_1257,60.0010970739,famFaceFilter,001,3,
72,./img/edges5_EmilyDeschanel6_12.png,0,30,30,71,,,None,None,2,None,None,None,None,None,None,3,,['return'],[0.9666925532837922],2.28264079416,1.66642608473,2017_Jan_25_1257,60.0010970739,famFaceFilter,001,3,
41,./img/edges5_OmarEpps(DrEricForeman)3_1.png,0,31,31,40,,,None,None,1,None,None,None,None,None,None,1,,['return'],[0.45009288066830777],0.88318592076,0.716547642762,2017_Jan_25_1257,60.0010970739,famFaceFilter,001,3,
37,./img/edges5_JasonSegel(Marshall)9_1.png,0,32,32,36,,,None,None,1,None,None,None,None,None,None,1,,['return'],[0.46699135605013],1.03324425386,0.61678023738,2017_Jan_25_1257,60.0010970739,famFaceFilter,001,3,
26,./img/edges5_NicoleKidman7_1.png,0,33,33,25,,,None,None,2,None,None,None,None,None,None,1,,['return'],[0.616556015014794],3.44905132126,1.51640207465,2017_Jan_25_1257,60.0010970739,famFaceFilter,001,3,
11,./img/edges5_RobertSeanLeonard(Wilson)1_1.png,0,34,34,10,,,None,None,1,None,None,None,None,None,None,1,,['return'],[0.6168934712786722],0.949935860855,0.350104781453,2017_Jan_25_1257,60.0010970739,famFaceFilter,001,3,
65,./img/edges5_LisaEdelstein(DrLisaCuddy)1_1.png,0,35,35,64,,,None,None,1,None,None,None,None,None,None,1,,['return'],[0.4168556838776567],0.733290221051,0.267015478401,2017_Jan_25_1257,60.0010970739,famFaceFilter,001,3,
44,./img/edges5_EmilyDeschanel5_1.png,0,36,36,43,,,None,None,2,None,None,None,None,None,None,1,,['return'],[0.5669550762941071],2.11613210964,1.16647949392,2017_Jan_25_1257,60.0010970739,famFaceFilter,001,3,
71,./img/edges5_HughLaurie(DrHouse)4_1.png,0,37,37,70,,,None,None,1,None,None,None,None,None,None,1,,['return'],[0.7668408159133833],0.833367495969,0.250312676328,2017_Jan_25_1257,60.0010970739,famFaceFilter,001,3,
69,./img/edges5_GuentherJauch2_1.png,0,38,38,68,,,None,None,1,None,None,None,None,None,None,3,Günther Jauch,"['lshift', 'g', u'\xfc', 'n', 'insert', 'backspace', 'n', 't', 'h', 'e', 'r', 'space', 'lshift', 'j', 'a', 'u', 'c', 'h', 'return']","[0.8668616342692985, 1.2333317615302803, 1.4665785174438497, 1.6498798213015107, 2.0997478380504617, 2.4160110808825266, 2.9493953534329194, 3.1325558366625046, 3.2992370986321475, 3.382624723290064, 3.5489980403799564, 3.6488196568916464, 3.7989517684527527, 3.982286112230213, 4.182258461347374, 4.281946635075656, 4.381964887226786, 4.482065578786205, 4.765212557351333]",0.76723087943,1.08288111948,2017_Jan_25_1257,60.0010970739,famFaceFilter,001,3,
18,./img/edges5_JoshRadnor(Ted)6_2.png,0,39,39,17,,,None,None,2,None,None,None,None,None,None,1,,['return'],[0.5669335843085719],1.98278042792,1.73311764361,2017_Jan_25_1257,60.0010970739,famFaceFilter,001,3,
35,./img/edges5_WillSmith1_1.png,0,40,40,34,,,None,None,1,None,None,None,None,None,None,1,Will Smith ,"['lshift', 'w', 'i', 'l', 'l', 'space', 'lshift', 's', 'm', 'i', 't', 'h', 'space', 'return']","[0.6333386902915663, 0.9666107554239716, 1.1665167039245716, 1.34987735132745, 1.4831549338068726, 1.5831908286309044, 1.64957283874719, 1.966213955613057, 2.133931003025282, 2.2160797910855763, 2.432833532375298, 2.5994339588141884, 2.6826310425767588, 2.8659628201457963]",0.816705432437,0.466830968093,2017_Jan_25_1257,60.0010970739,famFaceFilter,001,3,
4,./img/edges5_LeonardoDiCaprio1_1.png,0,41,41,3,,,None,None,1,None,None,None,None,None,None,1,Leonardo di Caprio,"['lshift', 'l', 'e', 'o', 'n', 'a', 'r', 'd', 'o', 'space', 'd', 'i', 'space', 'lshift', 'd', 'backspace', 'lshift', 'c', 'a', 'p', 'r', 'i', 'o', 'return']","[0.41652015226463845, 1.2998847452126938, 1.4999157963211474, 1.8164388676468661, 2.0495996556146565, 2.2161619097187213, 2.365987359504288, 2.6493178218916, 2.7492982224830484, 2.8492625842791313, 3.0991139848356397, 3.16580778914431, 3.2490279687717702, 3.7987929843729944, 4.13197234526524, 4.3984489201229735, 4.4986076721252175, 4.5818634578809, 4.865130727413998, 5.264909584495399, 5.448270552673421, 5.698110084520522, 5.881312268620604, 6.197963971089848]",1.48306158801,0.233547002174,2017_Jan_25_1257,60.0010970739,famFaceFilter,001,3,
39,./img/edges5_AlysonHannigan(Lily)8_3.png,0,42,42,38,,,None,None,1,None,None,None,None,None,None,1,,['return'],[0.6835574434280716],1.31621608877,0.333347447475,2017_Jan_25_1257,60.0010970739,famFaceFilter,001,3,
22,./img/edges5_JasonSegel(Marshall)6_1.png,0,43,43,21,,,None,None,1,None,None,None,None,None,None,1,,['return'],[0.25033865917612275],0.600079680738,0.183412613102,2017_Jan_25_1257,60.0010970739,famFaceFilter,001,3,
1,./img/edges5_BastianSchweinsteiger6_2.png,0,44,44,0,,,None,None,1,None,None,None,None,None,None,5,Sebastian Schweinsteiger,"['lshift', 's', 'e', 'b', 'a', 's', 't', 'i', 'o', 'backspace', 'a', 'n', 'space', 'lshift', 's', 'c', 'h', 'w', 'e', 'i', 'n', 's', 't', 'e', 'i', 'g', 'e', 'r', 'return']","[0.8001941335860465, 1.1500480682716443, 1.3166622880744399, 1.5166006349445524, 1.7997630107511213, 1.9996689592517214, 2.382853436520236, 2.532854992283319, 2.7160860462154233, 3.6654964761164592, 7.697427473367497, 7.847188767966145, 7.963879348479168, 8.04718036363738, 8.163688101876687, 8.347046183071143, 8.43034559435182, 8.563581796735889, 8.713742778130836, 8.7968619133444, 8.913550569201107, 9.19692754409698, 9.496608275825565, 9.679580142816121, 9.763199046910813, 9.963276610527828, 10.02952132855171, 10.213014777184071, 10.696183504354849]",1.19992134574,1.28299781776,2017_Jan_25_1257,60.0010970739,famFaceFilter,001,3,
16,./img/edges5_BritneySpears7_1.png,0,45,45,15,,,None,None,1,None,None,None,None,None,None,2,Britney Spears,"['lshift', 'b', 'r', 'i', 't', 'n', 'e', 'y', 'space', 'lshift', 's', 'p', 'e', 'a', 'r', 's', 'return']","[0.7666669553655083, 1.0665270008321386, 1.2498520421086141, 1.3665358863254369, 1.5664347777565126, 1.8662322719192161, 2.1495861509501992, 3.032504544593394, 3.1325285707098374, 3.249060687918245, 3.349184475344373, 3.5823888888353395, 3.815533317230802, 4.048771732970636, 4.198668715784152, 4.415213631951701, 4.581895856250412]",1.29982572244,0.600081605393,2017_Jan_25_1257,60.0010970739,famFaceFilter,001,3,
54,./img/edges5_KatjaBurkard5_3.png,0,46,46,53,,,None,None,2,None,None,None,None,None,None,3,,['return'],[1.1998690592718049],2.23275917652,2.04955218078,2017_Jan_25_1257,60.0010970739,famFaceFilter,001,3,
68,./img/edges5_MariskaHargitay(Liv)4_4.png,0,47,47,67,,,None,None,1,None,None,None,None,None,None,1,,['return'],[0.31674857679718116],0.950079568467,0.333470946201,2017_Jan_25_1257,60.0010970739,famFaceFilter,001,3,
51,./img/edges5_Ice-T(OdafinFinTutuola)6_1.png,0,48,48,50,,,None,None,1,None,None,None,None,None,None,1,Ice T ,"['lshift', 'i', 'c', 'e', 'space', 'lshift', 't', 'space', 'return']","[0.5999504080446059, 0.7168000934107113, 0.9167673101128457, 1.3329692526676808, 1.399919998486439, 1.5496485739440686, 1.666417103002459, 1.76640776842396, 2.066470223495344]",1.14979016443,0.700056552794,2017_Jan_25_1257,60.0010970739,famFaceFilter,001,3,
57,./img/edges5_BritneySpears5_1.png,0,49,49,56,,,None,None,1,None,None,None,None,None,None,2,Britney Spears,"['lshift', 'b', 'r', 'i', 't', 'n', 'e', 'y', 'space', 'lshift', 's', 'p', 'e', 'a', 'r', 's', 'return']","[0.8168157793516002, 0.9666999311284599, 1.1166014048048964, 1.1999684998045268, 1.5165236487227958, 2.3162138433417567, 2.5159648570734134, 2.8159676478226174, 2.9157696970050893, 3.0492006103722815, 3.1658642457059614, 3.498197720502503, 3.665345711433474, 3.865509242998087, 4.032114160299898, 4.265458432091691, 4.415265918423756]",1.68310162085,0.983264799557,2017_Jan_25_1257,60.0010970739,famFaceFilter,001,3,
20,./img/edges5_JoshRadnor(Ted)1_2.png,0,50,50,19,,,None,None,2,None,None,None,None,None,None,1,,['return'],[0.7834342333972018],2.89905278079,1.83277309819,2017_Jan_25_1257,60.0010970739,famFaceFilter,001,3,
9,./img/edges5_RobertSeanLeonard(Wilson)8_1.png,0,51,51,8,,,None,None,1,None,None,None,None,None,None,1,,['return'],[0.25033063977753045],0.883376461656,0.699832009652,2017_Jan_25_1257,60.0010970739,famFaceFilter,001,3,
7,./img/edges5_AngelaMerkel3_1.png,0,52,52,6,,,None,None,1,None,None,None,None,None,None,4,Angela Merkel,"['lshift', 'a', 'n', 'g', 'e', u'\xf6', 'l', 'a', 'backspace', 'backspace', 'backspace', 'l', 'a', 'space', 'lshift', 'm', 'e', 'r', 'k', 'e', 'l', 'return']","[0.6834050748675509, 1.0833311680944462, 1.266593658066995, 1.4664688120792562, 1.5997537724033464, 1.7332696913908876, 1.8996417253765685, 2.232882996020635, 2.3827456558119593, 2.499883397953454, 2.8325174397832598, 2.9324660835591203, 3.032531810544242, 3.232406964558322, 3.348964102286118, 3.5156588368463417, 3.6655452340546617, 3.815347908748663, 3.9321029652201105, 4.365260481272344, 4.5316969912182685]",0.916669152679,1.43302439405,2017_Jan_25_1257,60.0010970739,famFaceFilter,001,3,
14,./img/edges5_AngelaMerkel4_1.png,0,53,53,13,,,None,None,1,None,None,None,None,None,None,4,Angela Merkel,"['lshift', 'a', 'n', 'g', 'e', 'l', 'a', 'space', 'lshift', 'm', 'e', 'r', 'k', 'e', 'l', 'return']","[0.36695866898480745, 0.6170192154404504, 0.7671128338915878, 1.3167819374921237, 1.466521740107055, 1.6166519270136632, 1.7164135584280302, 2.3830433358634764, 2.5323006914968573, 2.6162618634971295, 2.749565428825008, 2.88273138128352, 3.049393396699088, 3.282633095541314, 3.365902033110615, 3.582538370414113]",1.66644757671,0.933305233362,2017_Jan_25_1257,60.0010970739,famFaceFilter,001,3,
58,./img/edges5_HughLaurie(DrHouse)5_3.png,0,54,54,57,,,None,None,1,None,None,None,None,None,None,1,,['return'],[2.8325145528015128],1.56643509853,0.733410512019,2017_Jan_25_1257,60.0010970739,famFaceFilter,001,3,
21,./img/edges5_JoshRadnor(Ted)3_1.png,0,55,55,20,,,None,None,2,None,None,None,None,None,None,1,,['return'],[0.5002724991427385],1.96594803238,1.69944707855,2017_Jan_25_1257,60.0010970739,famFaceFilter,001,3,
31,./img/edges5_GeorgeClooney4_2.png,0,56,56,30,,,None,None,1,None,None,None,None,None,None,1,George Clooney,"['lshift', 'g', 'e', 'a', 'r', 'o', 'backspace', 'backspace', 'backspace', 'backspace', 'e', 'o', 'r', 'g', 'e', 'space', 'lshift', 'c', 'l', 'o', 'o', 'n', 'e', 'y', 'return']","[0.5333281367638847, 0.8333665336413105, 1.6663818176511995, 1.8995240006152017, 2.082927952766113, 2.2661583651461115, 2.7658509014290757, 2.9490614257010748, 3.0991101355248247, 3.2823630022194266, 4.148715244329651, 4.731656188521811, 4.898369528084004, 5.0814260799161275, 5.181474164226529, 5.298348549338698, 5.46474945315822, 5.981161471861924, 6.147809693911768, 6.297699298880616, 6.430921387125636, 7.030805073776719, 7.230726740297541, 7.913845041493914, 8.03054460373096]",1.18316048323,0.76664610493,2017_Jan_25_1257,60.0010970739,famFaceFilter,001,3,
38,./img/edges5_GeorgeClooney11_1.png,0,57,57,37,,,None,None,1,None,None,None,None,None,None,1,George Clooney,"['lshift', 'g', 'e', 'o', 'r', 'g', 'e', 'space', 'lshift', 'c', 'o', 'backspace', 'l', 'o', 'o', 'n', 'e', 'y', 'return']","[0.6999599992432195, 0.8668885794468224, 1.033235272134334, 1.3164640485574637, 1.4331270423408569, 1.6496886388540588, 1.7831208353254624, 1.883042533923799, 2.0495669364718196, 2.266185951875741, 2.4827837960692705, 2.7826512193823874, 2.9824981451129133, 3.1490084335200663, 3.265670785749535, 3.8154970695522934, 3.998843282037342, 4.348610928002017, 4.4485765729004925]",3.74871697652,0.600139345059,2017_Jan_25_1257,60.0010970739,famFaceFilter,001,3,
61,./img/edges5_NeilPatrickHarris(Barney)2_2.png,0,58,58,60,,,None,None,1,None,None,None,None,None,None,1,,['return'],[1.1667418886190717],1.66627114996,0.84977422187,2017_Jan_25_1257,60.0010970739,famFaceFilter,001,3,
67,./img/edges5_LeonardoDiCaprio2_1.png,0,59,59,66,,,None,None,1,None,None,None,None,None,None,1,Leonardo Di Caprio,"['lshift', 'l', 'e', 'o', 'n', 'a', 'r', 'd', 'o', 'space', 'lshift', 'd', 'i', 'space', 'lshift', 'c', 'a', 'p', 'r', 'i', 'o', 'return']","[0.6168825648983329, 0.9500972111418378, 1.133597716845543, 1.4001554480091727, 1.8331131206650753, 1.9831663213517459, 2.1831425197779026, 2.3997900842387025, 2.516257404709904, 2.5996671629072807, 2.7494005500011554, 3.0826524062522367, 3.1827117177199398, 3.2828047106577287, 3.465736159881999, 3.632602188781675, 3.865682141216894, 3.9655913295555365, 4.1156429263610335, 4.332242374433918, 4.532074223698146, 4.73198498383681]",1.00003528535,0.40015929732,2017_Jan_25_1257,60.0010970739,famFaceFilter,001,3,
19,./img/edges5_HughLaurie(DrHouse)2_1.png,0,60,60,18,,,None,None,1,None,None,None,None,None,None,1,,['return'],[1.3833031643589493],1.53311867009,0.78337745606,2017_Jan_25_1257,60.0010970739,famFaceFilter,001,3,
43,./img/edges5_BarackObama1_3.png,0,61,61,42,,,None,None,1,None,None,None,None,None,None,4,Barak Obama,"['lshift', 'b', 'a', 'r', 'a', 'k', 'space', 'lshift', 'o', 'b', 'a', 'm', 'a', 'return']","[0.6836180700775003, 0.8502021369440627, 1.4167209579900373, 1.6332594586383493, 1.8498133565317403, 1.9996481088164728, 2.0830761512406752, 2.1829705838845257, 2.5326949250993493, 2.7492635786838946, 2.915793434422085, 3.049156664070324, 3.1158122960459878, 3.2991055805050564]",1.06651609445,0.849963800438,2017_Jan_25_1257,60.0010970739,famFaceFilter,001,3,
23,./img/edges5_UrsulavonderLeyen1_1.png,0,62,62,22,,,None,None,1,None,None,None,None,None,None,4,Von der Leyn,"['lshift', 'v', 'o', 'n', 'space', 'd', 'e', 'r', 'space', 'lshift', 'l', 'e', 'y', 'n', 'return']","[0.8667131150195928, 1.2665602973720524, 1.3333047842770611, 1.5499260451124428, 1.6499821488196176, 1.7331372109365475, 1.9329748341660888, 2.0829613134610554, 2.1661455661869695, 2.316249770243303, 2.5825646740377124, 2.899110841231959, 4.01481311113821, 4.115481255297709, 4.498704867228298]",2.04954031207,0.933185263169,2017_Jan_25_1257,60.0010970739,famFaceFilter,001,3,
45,./img/edges5_WillSmith4_1.png,0,63,63,44,,,None,None,1,None,None,None,None,None,None,1,Will Smith,"['lshift', 'w', 'i', 'l', 'l', 'space', 'lshift', 's', 'm', 'i', 't', 'h', 'return']","[0.40011086015692854, 0.5835494561088126, 0.7334522128876415, 0.9332567961992027, 1.066728448107824, 1.1831867868550034, 1.3164813704570406, 1.5164306237074925, 1.6996138820268243, 1.766354519621018, 1.9828615842288855, 2.1827829299727455, 2.4157595925626083]",1.33319475814,0.21651315935,2017_Jan_25_1257,60.0010970739,famFaceFilter,001,3,
46,./img/edges5_TomCruise5_1.png,0,64,64,45,,,None,None,1,None,None,None,None,None,None,1,Tom Cruise,"['lshift', 't', 'o', 'm', 'space', 'lshift', 'c', 'r', 'u', 'i', 's', 'e', 'return']","[0.43372272322085337, 0.8167448878757568, 0.9333437264740496, 1.083471988724341, 1.1665186285808886, 1.2331745813316957, 1.3997108525873045, 1.6997287198064441, 1.8996728406418697, 1.983122054274645, 2.7326765767193137, 2.9325658448724425, 2.999305199360606]",1.14973306632,0.200174117168,2017_Jan_25_1257,60.0010970739,famFaceFilter,001,3,
59,./img/edges5_BastianSchweinsteiger3_1.png,0,65,65,58,,,None,None,1,None,None,None,None,None,None,5,Sebastian Schweinsteiger,"['lshift', 's', 'e', 'b', 'a', 's', 't', 'i', 'a', 'n', 'space', 'lshift', 's', 'c', 'h', 'w', 'e', 'i', 'n', 's', 't', 'e', 'i', 'g', 'e', 'r', 'return']","[0.45021477551563294, 0.5668059154922958, 0.7501777900524758, 1.0999518515345699, 1.2166093921259744, 1.4664716990628222, 1.6994804392452352, 1.9996484295934351, 2.749299826364222, 2.8322787825018167, 2.915895120389905, 2.999072636819619, 3.1658645664829237, 3.3822869462492235, 3.5156902728867863, 3.6488969638885465, 3.832133150233858, 3.9153921437482495, 4.048728748995927, 4.215396538378627, 4.381927997996172, 4.498549290909068, 4.581741242256612, 4.765301733055821, 4.848383016711523, 4.981456906481981, 5.131647078485912]",1.2332243016,1.34982570641,2017_Jan_25_1257,60.0010970739,famFaceFilter,001,3,
3,./img/edges5_NicoleKidman5_1.png,0,66,66,2,,,None,None,2,None,None,None,None,None,None,3,,['return'],[1.000024058193958],2.53267407467,2.41601076011,2017_Jan_25_1257,60.0010970739,famFaceFilter,001,3,
64,./img/edges5_EmilyDeschanel3_1.png,0,67,67,63,,,None,None,1,None,None,None,None,None,None,1,,['return'],[0.6334275452209113],1.14977188021,0.233538661998,2017_Jan_25_1257,60.0010970739,famFaceFilter,001,3,
5,./img/edges5_AlysonHannigan(Lily)1_1.png,0,68,68,4,,,None,None,1,None,None,None,None,None,None,1,,['return'],[0.383534764570868],0.766669842347,0.233696162975,2017_Jan_25_1257,60.0010970739,famFaceFilter,001,3,
56,./img/edges5_NeilPatrickHarris(Barney)1_1.png,0,69,69,55,,,None,None,1,None,None,None,None,None,None,1,,['return'],[0.2837343192713888],0.76665636976,0.21690001511,2017_Jan_25_1257,60.0010970739,famFaceFilter,001,3,
15,./img/edges5_LisaEdelstein(DrLisaCuddy)6_3.png,0,70,70,14,,,None,None,1,None,None,None,None,None,None,1,,['return'],[0.28369678848866897],0.866676546564,0.250036809037,2017_Jan_25_1257,60.0010970739,famFaceFilter,001,3,
70,./img/edges5_BastianSchweinsteiger1_1.png,0,71,71,69,,,None,None,1,None,None,None,None,None,None,4,,"['lshift', 's', 'e', 'b', 'a', 's', 't', 'i', 'o', 'n', 'space', 'lshift', 's', 'c', 'h', 'w', 'i', 'e', 'backspace', 'backspace', 'e', 'i', 'n', 's', 't', 'e', 'i', 'g', 'e', 'r', 'backspace', 'backspace', 'backspace', 'backspace', 'backspace', 'backspace', 'backspace', 'backspace', 'backspace', 'backspace', 'backspace', 'backspace', 'backspace', 'backspace', 'backspace', 'backspace', 'backspace', 'backspace', 'backspace', 'backspace', 'backspace', 'backspace', 'backspace', 'backspace', 'return']","[3.6489646476074995, 3.782115523597895, 4.015101809465705, 4.765038376028315, 4.965093164553764, 5.814801627360794, 6.214549689953856, 6.38115941889555, 6.54773674946955, 6.747555126143197, 6.831082288326797, 6.947462678524971, 7.047549576720485, 7.247357688565899, 7.380789564262159, 7.530756155449126, 7.697238857126649, 8.363727172383733, 8.530173947157891, 8.63024384423079, 8.81352846774098, 8.946680306058624, 9.229959123525987, 9.413074377351222, 9.546539613740606, 9.663120488889035, 9.813064946538361, 9.946329697981128, 10.079669190210552, 11.345687376280694, 12.795185217619292, 12.978372004474295, 13.16170570669965, 13.31171464030922, 13.461620284073433, 13.64475125591889, 14.727841521300434, 14.911016118669068, 15.077421834126653, 15.244196762665524, 15.377346997105633, 15.543998426916005, 15.710393235991432, 15.8606161271382, 16.043707001994335, 16.21053197157562, 16.39375147757528, 16.54356505864962, 16.72694366950418, 16.893473846017514, 17.093383002276823, 17.3099462026712, 17.65987680280159, 17.909803585698683]",1.21651572556,0.79979925843,2017_Jan_25_1257,60.0010970739,famFaceFilter,001,3,
42,./img/gray_NicoleKidman5_1.png,0,0,0,41,,,None,None,1,None,None,None,None,None,None,1,Nicole Kitman ,"['lshift', 'n', 'i', 'c', 'o', 'l', 'e', 'space', 'lshift', 'k', 'i', 't', 'm', 'a', 'n', 'space', 'return']","[0.5002561395704106, 0.6169733444821759, 0.783532070052388, 0.933413655622644, 1.2666353589356731, 1.4165345871806494, 1.5498503419948975, 1.6831324153354217, 1.8497716556612431, 2.0831287584896927, 2.24967048293729, 2.482745623734445, 2.6993524496519967, 2.832755455516235, 2.9160474889486068, 3.032602381246761, 3.215854285614114]",2.78265057783,1.14975006744,2017_Jan_25_1257,60.0010970739,famFaceFilter,001,3,
59,./img/gray_AlysonHannigan(Lily)5_4.png,0,1,1,58,,,None,None,1,None,None,None,None,None,None,1,,['return'],[2.032923157166806],1.54921456412,0.867168296047,2017_Jan_25_1257,60.0010970739,famFaceFilter,001,3,
23,./img/gray_TomCruise4_1.png,0,2,2,22,,,None,None,1,None,None,None,None,None,None,1,Tom Cruise,"['lshift', 't', 'o', 'm', 'space', 'lshift', 'v', 'backspace', 'c', 'r', 'u', 'i', 'backspace', 'backspace', 'backspace', 'backspace', 'lshift', 'c', 'r', 'u', 'i', 's', 'e', 'return']","[0.48349239007256983, 0.8167724746035674, 0.9664105912506784, 1.183288793596148, 1.3004002321122243, 1.4497570282801462, 1.683054466788235, 2.0163226826098253, 2.0995088599902374, 2.48278700382798, 2.7993216230879625, 3.098992410761639, 3.582244539671592, 3.732264058886358, 3.8820959241893434, 4.01584183950763, 4.115100494283979, 4.33190491816822, 4.648513636664575, 5.664796543062039, 5.897982030774074, 6.2311569008033985, 6.431191801224486, 6.581056385670308]",0.899976294659,0.583477923079,2017_Jan_25_1257,60.0010970739,famFaceFilter,001,3,
33,./img/gray_KatjaBurkard4_1.png,0,3,3,32,,,None,None,2,None,None,None,None,None,None,1,,['return'],[0.800235192904438],2.74939541759,2.94913392106,2017_Jan_25_1257,60.0010970739,famFaceFilter,001,3,
49,./img/gray_NeilPatrickHarris(Barney)1_1.png,0,4,4,48,,,None,None,1,None,None,None,None,None,None,1,,['return'],[0.2502950336511276],0.91670379648,0.216934979684,2017_Jan_25_1257,60.0010970739,famFaceFilter,001,3,
57,./img/gray_UrsulavonderLeyen5_1.png,0,5,5,56,,,None,None,1,None,None,None,None,None,None,4,von der Leyn ,"['v', 'o', 'n', 'space', 'd', 'e', 'r', 'space', 'lshift', 'l', 'e', 'y', 'n', 'space', 'return']","[1.2498940637524356, 1.3995687488550175, 1.583152656296079, 1.6497329059311596, 1.71640361437494, 1.916166496816004, 2.0829959572602093, 2.149437952473818, 2.2827463294415793, 2.415977720187584, 2.482748510718011, 3.2991751888803265, 3.398691747494013, 3.4989630918425974, 3.6655548573326087]",1.48287553798,1.7662762503,2017_Jan_25_1257,60.0010970739,famFaceFilter,001,3,
19,./img/gray_JasonSegel(Marshall)9_1.png,0,6,6,18,,,None,None,1,None,None,None,None,None,None,1,,['return'],[0.7500748209840822],1.16653178039,0.583470224457,2017_Jan_25_1257,60.0010970739,famFaceFilter,001,3,
56,./img/gray_GuentherJauch2_1.png,0,7,7,55,,,None,None,1,None,None,None,None,None,None,3,Günther Jauch,"['lshift', 'g', u'\xfc', 'n', 't', 'h', 'e', 'r', 'space', 'lshift', 'j', 'a', 'u', 'c', 'h', 'return']","[0.7335769947203516, 1.6328607341729366, 2.2994728689336625, 2.5328264432264405, 2.7825970082503773, 2.932648284280731, 3.0325391883925477, 3.1657766738808277, 3.2490735189530824, 3.3490186341932713, 3.432319328576341, 3.598991929598924, 3.665445793520121, 3.765589469054248, 3.8655544724024367, 4.0821295415044005]",0.816998942402,1.01638395081,2017_Jan_25_1257,60.0010970739,famFaceFilter,001,3,
7,./img/gray_OmarEpps(DrEricForeman)1_5.png,0,8,8,6,,,None,None,1,None,None,None,None,None,None,1,,['return'],[0.7000629683116131],2.21635212984,0.366886494405,2017_Jan_25_1257,60.0010970739,famFaceFilter,001,3,
53,./img/gray_Ice-T(OdafinFinTutuola)5_1.png,0,9,9,52,,,None,None,1,None,None,None,None,None,None,1,Ice T,"['lshift', 'i', 'c', 'e', 'space', 'lshift', 't', 'return']","[0.5500764890166465, 0.7499805128627486, 0.916711495099662, 1.166490079522191, 1.3497910626047087, 1.4664617550097319, 1.533036551452824, 2.049365168417353]",1.06667167077,0.616605093728,2017_Jan_25_1257,60.0010970739,famFaceFilter,001,3,
58,./img/gray_GeorgeClooney3_1.png,0,10,10,57,,,None,None,1,None,None,None,None,None,None,1,George Clooney,"['lshift', 'g', 'e', 'o', 'r', 'g', 'e', 'space', 'lshift', 'c', 'l', 'o', 'o', 'n', 'e', 'y', 'return']","[0.7167064268414833, 0.9999714509431215, 1.3500172096282768, 1.6664376326607453, 2.0828230590414023, 2.299474472813017, 2.399477648494212, 2.466098636670722, 2.6825845300681976, 3.065916885034312, 3.248922433496773, 3.4155299170051876, 3.548981360032485, 3.7655705432753166, 3.898732967199976, 4.265450733470061, 4.3653528647373605]",1.86616619208,1.19956400137,2017_Jan_25_1257,60.0010970739,famFaceFilter,001,3,
18,./img/gray_JasonSegel(Marshall)7_1.png,0,11,11,17,,,None,None,1,None,None,None,None,None,None,1,,['return'],[0.8002165878988308],1.10001376129,0.3667892993,2017_Jan_25_1257,60.0010970739,famFaceFilter,001,3,
6,./img/gray_NicoleKidman3_1.png,0,12,12,5,,,None,None,1,None,None,None,None,None,None,1,Nicole Kitman,"['lshift', 'n', 'i', 'c', 'o', 'l', 'e', 'space', 'lshift', 'k', 'i', 't', 'space', 'backspace', 'm', 'a', 'n', 'return']","[0.6168655637757183, 0.7167256733973772, 0.9667246308763424, 1.3666058154758502, 1.4998888511454425, 1.683054466788235, 1.8163493711672345, 1.9329231892443204, 2.0829690120845044, 2.5328812959087372, 2.6827292000070884, 2.849376459731502, 2.982708574116259, 3.332425216707634, 3.9486870802047633, 4.0668760050321, 4.165653495929291, 4.465331661449454]",2.83257389635,0.150242458478,2017_Jan_25_1257,60.0010970739,famFaceFilter,001,3,
14,./img/gray_JoshRadnor(Ted)6_2.png,0,13,13,13,,,None,None,2,None,None,None,None,None,None,1,,['return'],[0.6834278499591164],1.78290976477,1.76634874565,2017_Jan_25_1257,60.0010970739,famFaceFilter,001,3,
29,./img/gray_UrsulavonderLeyen4_1.png,0,14,14,28,,,None,None,1,None,None,None,None,None,None,4,von der Leyn,"['c', 'backspace', 'v', 'o', 'n', 'space', 'd', 'e', 'r', 'space', 'lshift', 'l', 'e', 'y', 'n', 'return']","[1.6996789995373547, 2.0496535459697043, 2.2329214891306037, 2.2996204258561193, 2.4494686507296137, 2.5327898747727886, 2.6492687431764352, 2.815665797685142, 2.965913388577974, 2.9934507180732908, 3.1990988762900088, 3.3325593010413286, 3.7989649202663713, 3.982137592980507, 4.648506900370194]",1.44951805022,2.36576185403,2017_Jan_25_1257,60.0010970739,famFaceFilter,001,3,
8,./img/gray_BastianSchweinsteiger6_2.png,0,15,15,7,,,None,None,1,None,None,None,None,None,None,5,Sebastian Schweinsteiger,"['lshift', 's', 'e', 'b', 'a', 's', 't', 'i', 'a', 'n', 'space', 'lshift', 's', 'c', 'h', 'w', 'e', 'i', 'n', 's', 't', 'e', 'i', 'g', 'e', 'r', 'return']","[0.8167946081412083, 0.9666399460329558, 1.1498190342645103, 1.2832531553922308, 1.4497381025012146, 1.566357791534756, 1.783058604798498, 2.1660400309101533, 2.3826250440670265, 2.532805592791192, 2.6161062871760805, 2.7326589340427745, 2.949162149339827, 3.132365937317445, 3.249126446979062, 3.365762816360075, 3.5158131300631794, 3.6655391393123864, 3.7988247411904013, 4.0153962817585125, 4.115197047834954, 4.248657793363236, 4.4651985394430085, 4.631870819688629, 4.731626677135864, 4.915043139548288, 5.0483835941086]",4.69847865605,1.53308851715,2017_Jan_25_1257,60.0010970739,famFaceFilter,001,3,
44,./img/gray_BritneySpears5_1.png,0,16,16,43,,,None,None,1,None,None,None,None,None,None,2,Britney Spears,"['lshift', 'b', 'r', 'i', 't', 'n', 'e', 'y', 'space', 'lshift', 's', 'p', 'e', 'a', 'r', 's', 'return']","[0.9333562367337436, 1.1663213513893425, 1.3333208230724267, 1.4666080288279773, 1.6664042719639838, 1.8663544875416846, 1.9830752209891216, 2.199324060984509, 2.3328787938553432, 2.449462235210376, 2.5494958846047666, 2.7494403262153355, 2.8326977158503723, 3.049272784954155, 3.2992034171602427, 3.4989582802045334, 3.615437148609999]",1.33325698866,0.866645752078,2017_Jan_25_1257,60.0010970739,famFaceFilter,001,3,
