num,pic,trials.thisRepN,trials.thisTrialN,trials.thisN,trials.thisIndex,key_resp_2.keys,key_resp_2.rt,ratingBekannt.response,ratingBekannt.rt,key_resp_5.keys,ratingK1.response,ratingK1.rt,ratingK2.response,ratingK2.rt,ratingK3.response,ratingK3.rt,key_resp_6.keys,inputText,key_resp_4.keys,key_resp_4.rt,date,frameRate,expName,session,participant,
,,,,,,space,34.3168390356,,,,,,,,,,,,,,2017_Jan_25_1502,59.9991339166,famFaceFilter,001,4,
6,./img/smoo15_AlysonHannigan(Lily)1_1.png,0,0,0,5,,,1.ja,3.776,None,act,1.804,None,None,None,None,None,,['return'],[1.1666132574755466],2017_Jan_25_1502,59.9991339166,famFaceFilter,001,4,
50,./img/smoo15_OmarEpps(DrEricForeman)2_2.png,0,1,1,49,,,1.ja,3.072,None,act,1.205,None,None,None,None,None,,['return'],[1.4004419009033882],2017_Jan_25_1502,59.9991339166,famFaceFilter,001,4,
33,./img/smoo15_Ice-T(OdafinFinTutuola)7_1.png,0,2,2,32,,,1.ja,1.24,None,act,0.724,None,None,None,None,None,Ice Cube,"['lshift', 'i', 'c', 'e', 'space', 'lshift', 'c', 'u', 'b', 'e', 'return']","[0.8834537686525437, 1.016888531328732, 1.3333131244507967, 1.5164662298338953, 1.6663622503183433, 1.899690483314771, 2.1495088439514802, 2.4327664902084507, 2.66585959445365, 2.9824772946776648, 4.032079195723782]",2017_Jan_25_1502,59.9991339166,famFaceFilter,001,4,
43,./img/smoo15_JoachimLoew1_1.png,0,3,3,42,,,1.ja,1.435,None,None,None,None,None,sport,1.757,None,Jogi Löw,"['lshift', 'j', 'o', 'g', 'i', 'space', 'lshift', 'l', u'\xf6', 'e', 'backspace', 'w', 'return']","[0.9000067683737143, 1.00016231261543, 1.216644677479053, 1.4334340248933586, 1.550062374877598, 1.7831651024025632, 1.9830511627988017, 2.1162998754443834, 2.2997063938018982, 2.466259024629835, 3.266034224867326, 3.3826542346760107, 3.93235477431881]",2017_Jan_25_1502,59.9991339166,famFaceFilter,001,4,
5,./img/smoo15_BarackObama1_3.png,0,4,4,4,,,1.ja,1.341,None,None,None,None,None,polit,0.674,None,Obama,"['lshift', 'o', 'b', 'a', 'n', 'a', 'backspace', 'backspace', 'm', 'a', 'return']","[0.8497848074730427, 0.9500869463117851, 1.24994089703614, 1.5329643768709502, 1.6663779683367466, 1.916393606163183, 2.7991978035825014, 2.9325068221005495, 3.5823135064929374, 3.6652639135754725, 5.081715099018766]",2017_Jan_25_1502,59.9991339166,famFaceFilter,001,4,
28,./img/smoo15_HughLaurie(DrHouse)5_3.png,0,5,5,27,,,1.ja,1.315,None,act,1.007,None,None,None,None,None,,['return'],[1.899517585094145],2017_Jan_25_1502,59.9991339166,famFaceFilter,001,4,
19,./img/smoo15_NicoleKidman7_1.png,0,6,6,18,,,1.ja,1.008,None,dummy,0.691,None,None,None,None,None,Nicole Kidmann,"['lshift', 'n', 'i', 'c', 'o', 'l', 'e', 'space', 'lshift', 'k', 'i', 'd', 'm', 'a', 'n', 'n', 'return']","[1.183277245661884, 1.64980572206332, 1.8996321020968026, 2.366079742969305, 2.4828967091925733, 2.6827128404329414, 2.8658742859915947, 2.9991191493281804, 3.398910195894132, 3.5656453482188226, 3.748794283514144, 3.882131530313927, 4.215237754298869, 4.348601304722251, 4.531781676058017, 4.648509466576797, 5.431439119456627]",2017_Jan_25_1502,59.9991339166,famFaceFilter,001,4,
54,./img/smoo15_LisaEdelstein(DrLisaCuddy)6_3.png,0,7,7,53,,,1.ja,1.501,None,dummy,0.557,None,None,None,None,None,,['return'],[0.8834967526272521],2017_Jan_25_1502,59.9991339166,famFaceFilter,001,4,
44,./img/smoo15_GuentherJauch2_1.png,0,8,8,43,,,1.ja,1.323,None,None,None,host,1.507,None,None,None,Günther Jauch,"['lshift', 'g', u'\xfc', 'n', 't', 'h', 'e', 'r', 'space', 'lshift', 'j', 'u', 'a', 'c', 'h', 'backspace', 'backspace', 'backspace', 'backspace', 'a', 'u', 'c', 'h', 'return']","[0.8496853669385018, 0.9833295962926059, 1.3665936259894806, 1.7328841187372745, 1.999344013245718, 2.099548956979561, 2.249317629426514, 2.61603443336935, 2.849184956507088, 3.3324441424847464, 3.4822801778755093, 3.7154922899899248, 3.8487891190234222, 4.065386000889703, 4.18200184061061, 4.5485835978906834, 4.6986149858166755, 4.83177580586198, 4.9651149773162615, 5.5316254581885005, 5.647696299623931, 5.781383192173962, 5.864585729126702, 6.7144330879054905]",2017_Jan_25_1502,59.9991339166,famFaceFilter,001,4,
22,./img/smoo15_WillSmith1_1.png,0,9,9,21,,,1.ja,1.47,None,dummy,1.14,None,None,None,None,None,Will Smith,"['lshift', 'w', 'i', 'l', 'l', 'space', 'lshift', 's', 'm', 'i', 't', 'h', 'return']","[0.6000119970194646, 0.8001235628835275, 0.9999326370561903, 1.2332948723014852, 1.3499366948708484, 1.6163808713608887, 1.7496879652244388, 1.8492888879045495, 1.982892057942081, 2.1660894304004614, 2.2990824846383475, 2.4327520552906208, 4.065363225799956]",2017_Jan_25_1502,59.9991339166,famFaceFilter,001,4,
32,./img/smoo15_TomCruise1_1.png,0,10,10,31,,,1.ja,1.469,None,act,0.524,None,None,None,None,None,Tom Cruise,"['lshift', 't', 'o', 'm', 'space', 'lshift', 'c', 'r', 'u', 'i', 's', 'e', 'return']","[1.0332080061816669, 1.1667303406866267, 1.566531652082631, 1.8328811996761942, 2.11628608207684, 2.282762689013907, 2.4160476493379974, 2.7993110374809476, 3.7486393487488385, 3.932157497125445, 4.032166446773772, 4.19851955498234, 4.798505889924854]",2017_Jan_25_1502,59.9991339166,famFaceFilter,001,4,
30,./img/smoo15_KatjaBurkard4_1.png,0,11,11,29,,,1.ja,1.503,None,None,None,host,1.722,None,None,None,Burkhardt,"['lshift', 'b', 'u', 'r', 'k', 'a', 'backspace', 'h', 'a', 'r', 'd', 't', 'return']","[0.81701466042432, 0.9168118979650899, 1.44996168331636, 1.6166214533004677, 1.749730628424004, 2.399667868616234, 3.399079565580905, 4.015681130775192, 4.098894253333128, 4.332170520629006, 4.498749775859324, 4.598798501720012, 5.2983549648597545]",2017_Jan_25_1502,59.9991339166,famFaceFilter,001,4,
47,./img/smoo15_BarackObama4_1.png,0,12,12,46,,,1.ja,1.404,None,None,None,None,None,polit,0.906,None,Obama,"['lshift', 'o', 'b', 'a', 'm', 'a', 'return']","[0.7501174841818283, 0.8499917079425359, 1.2499530865243287, 1.383190892789571, 1.5332110535564425, 1.6161046832967259, 2.2662626173223543]",2017_Jan_25_1502,59.9991339166,famFaceFilter,001,4,
1,./img/smoo15_Ice-T(OdafinFinTutuola)6_1.png,0,13,13,0,,,1.ja,1.155,None,None,None,music,1.156,None,None,None,Ice Cube,"['lshift', 'i', 'c', 'e', 'space', 'lshift', 'c', 'u', 'b', 'e', 'return']","[0.6500796646978415, 0.7835173143612337, 1.0665869859258237, 1.2166953600717534, 1.3666109478872386, 1.599816323709092, 1.83292257976791, 2.066278078717005, 2.382870116867707, 2.4995546026366355, 3.182597842267569]",2017_Jan_25_1502,59.9991339166,famFaceFilter,001,4,
46,./img/smoo15_NeilPatrickHarris(Barney)1_1.png,0,14,14,45,,,1.ja,1.323,None,act,1.007,None,None,None,None,None,,['return'],[0.9000969064036326],2017_Jan_25_1502,59.9991339166,famFaceFilter,001,4,
70,./img/smoo15_JasonSegel(Marshall)7_1.png,0,15,15,69,,,1.ja,2.94,None,dummy,0.824,None,None,None,None,None,,['return'],[0.6830278423840355],2017_Jan_25_1502,59.9991339166,famFaceFilter,001,4,
62,./img/smoo15_RobertSeanLeonard(Wilson)1_1.png,0,16,16,61,,,1.ja,1.491,None,act,0.591,None,None,None,None,None,,['return'],[0.5834028615136049],2017_Jan_25_1502,59.9991339166,famFaceFilter,001,4,
38,./img/smoo15_AlysonHannigan(Lily)5_4.png,0,17,17,37,,,1.ja,1.174,None,act,0.825,None,None,None,None,None,,['return'],[0.9334466955442622],2017_Jan_25_1502,59.9991339166,famFaceFilter,001,4,
55,./img/smoo15_MariskaHargitay(Liv)4_4.png,0,18,18,54,,,1.ja,1.323,None,dummy,0.575,None,None,None,None,None,,['return'],[0.8167567565833451],2017_Jan_25_1502,59.9991339166,famFaceFilter,001,4,
68,./img/smoo15_AlysonHannigan(Lily)8_3.png,0,19,19,67,,,1.ja,1.191,None,act,0.608,None,None,None,None,None,,['return'],[0.6334326776377566],2017_Jan_25_1502,59.9991339166,famFaceFilter,001,4,
31,./img/smoo15_BritneySpears1_1.png,0,20,20,30,,,1.ja,1.091,None,None,None,music,0.841,None,None,None,Britney Spears,"['lshift', 'b', 'r', 'i', 't', 'n', 'e', 'y', 'space', 'lshift', 's', 'p', 'a', 'e', 'r', 's', 'backspace', 'backspace', 'backspace', 'backspace', 'e', 'a', 'r', 's', 'return']","[0.8331933146473602, 0.9165732406836469, 1.2334369760355912, 1.3331880218429433, 1.5998737426016305, 1.7331288707646308, 2.5325136867068068, 2.7992356551440025, 2.9493751445515954, 3.1567731354043644, 3.232661019086663, 3.4324579037747753, 3.5657255422011076, 3.815560262410145, 4.065547671954846, 4.398800490533176, 4.781846071826294, 4.931849552245694, 5.048443579205923, 5.165176822916692, 5.414984277169424, 5.964703101039049, 6.214485534772393, 6.414624687364267, 7.08106873554425]",2017_Jan_25_1502,59.9991339166,famFaceFilter,001,4,
69,./img/smoo15_BritneySpears5_1.png,0,21,21,68,,,1.ja,1.519,None,None,None,music,0.856,None,None,None,Britney Spears,"['lshift', 'b', 'r', 'i', 't', 'n', 'e', 'y', 'space', 'lshift', 's', 'p', 'e', 'a', 'r', 's', 'return']","[0.8165312511118827, 1.0001257441617781, 1.266576336169237, 1.3832428584864829, 1.6164524043924757, 1.8496994810811884, 1.9663932693511015, 2.2162315180939913, 2.332792505134421, 2.532491873946128, 2.6494102053584356, 2.815970214032859, 2.999112092256837, 3.2325763342450955, 3.4656970252217434, 3.682324060024257, 5.081718306777475]",2017_Jan_25_1502,59.9991339166,famFaceFilter,001,4,
13,./img/smoo15_GeorgeClooney3_1.png,0,22,22,12,,,1.ja,1.62,None,dummy,0.69,None,None,None,None,None,George Clooney,"['lshift', 'g', 'e', 'o', 'r', 'g', 'e', 'space', 'lshift', 'c', 'l', 'o', 'o', 'n', 'e', 'y', 'return']","[0.7167490900355915, 0.8333479286375223, 1.449893999597407, 1.5664700631059532, 1.7329238949496357, 2.366073006673105, 2.4492373712892004, 2.665997528099979, 2.832488569951238, 3.049223385460209, 3.249199583886366, 3.4990346248705464, 3.615464093785704, 3.8988221429026453, 3.998573830263922, 4.198688603886694, 4.981782173261308]",2017_Jan_25_1502,59.9991339166,famFaceFilter,001,4,
45,./img/smoo15_RobertSeanLeonard(Wilson)2_6.png,0,23,23,44,,,1.ja,1.253,None,act,0.523,None,None,None,None,None,,['return'],[0.6999513382943405],2017_Jan_25_1502,59.9991339166,famFaceFilter,001,4,
64,./img/smoo15_JoachimLoew8_1.png,0,24,24,63,,,1.ja,1.141,None,None,None,None,None,sport,1.041,None,Jogi Löw,"['lshift', 'j', 'o', 'g', 'i', 'space', 'lshift', 'l', u'\xf6', 'w', 'return']","[0.8001354315929348, 1.0170655996371352, 1.3000329436872562, 1.8327413413753675, 1.916163609832438, 2.1828535006752645, 2.3660216825301177, 2.5160482588144077, 2.682409065640968, 2.8492869632500515, 3.515543036741292]",2017_Jan_25_1502,59.9991339166,famFaceFilter,001,4,
27,./img/smoo15_JasonSegel(Marshall)9_1.png,0,25,25,26,,,1.ja,1.39,None,dummy,0.573,None,None,None,None,None,,['return'],[0.816798136675061],2017_Jan_25_1502,59.9991339166,famFaceFilter,001,4,
20,./img/smoo15_NicoleKidman5_1.png,0,26,26,19,,,1.ja,1.14,None,act,0.474,None,None,None,None,None,Nicole Kidmann,"['lshift', 'n', 'i', 'c', 'o', 'l', 'e', 'space', 'lshift', 'k', 'i', 'd', 'm', 'a', 'n', 'n', 'return']","[1.0499095251507242, 1.21668830300041, 1.432935859891586, 1.6662544696082477, 1.7996667779734707, 2.0161866736198135, 2.166143320755509, 2.2994545847031986, 2.549127954625874, 2.6324575188409653, 2.8492629050560936, 2.9826367203095288, 3.43233568814685, 3.582284957436059, 3.7654351758355915, 3.89883818169983, 4.448689806798939]",2017_Jan_25_1502,59.9991339166,famFaceFilter,001,4,
16,./img/smoo15_WillSmith4_1.png,0,27,27,15,,,1.ja,1.285,None,act,0.524,None,None,None,None,None,Will Smith,"['lshift', 'w', 'i', 'l', 'l', 'space', 'lshift', 's', 'm', 'i', 'o', 't', 'backspace', 'backspace', 'backspace', 't', 'h', 'backspace', 'backspace', 'i', 't', 'h', 'return']","[0.6501816714408051, 0.8999416508595459, 1.1165866491137422, 1.4331055503535026, 1.5497704687913938, 1.9496349730434304, 2.1328612153374706, 2.2658696668186167, 2.3827353909837257, 2.616085436740832, 2.7492587670458306, 3.215572323581, 3.382245886932651, 3.4822590066651173, 4.048730352875282, 4.132027518724499, 4.815043813177908, 4.981556988568627, 5.581472432037117, 5.6980680628767, 5.86472687053174, 6.697427152590535]",2017_Jan_25_1502,59.9991339166,famFaceFilter,001,4,
34,./img/smoo15_EmilyDeschanel5_1.png,0,28,28,33,,,1.ja,1.403,None,dummy,0.557,None,None,None,None,None,,['return'],[0.8002377591110417],2017_Jan_25_1502,59.9991339166,famFaceFilter,001,4,
40,./img/smoo15_NeilPatrickHarris(Barney)2_2.png,0,29,29,39,,,1.ja,1.107,None,dummy,0.425,None,None,None,None,None,,['return'],[0.7334304001269629],2017_Jan_25_1502,59.9991339166,famFaceFilter,001,4,
61,./img/smoo15_OmarEpps(DrEricForeman)3_1.png,0,30,30,60,,,1.ja,1.658,None,act,1.041,None,None,None,None,None,,['return'],[0.8333719868314802],2017_Jan_25_1502,59.9991339166,famFaceFilter,001,4,
9,./img/smoo15_EmilyDeschanel6_12.png,0,31,31,8,,,1.ja,1.207,None,act,0.441,None,None,None,None,None,,['return'],[0.6672562528037815],2017_Jan_25_1502,59.9991339166,famFaceFilter,001,4,
26,./img/smoo15_TomCruise4_1.png,0,32,32,25,,,1.ja,2.307,None,dummy,0.791,None,None,None,None,None,Tom Cruise,"['lshift', 't', 'o', 'm', 'space', 'lshift', 'c', 'r', 'u', 'i', 's', 'e', 'return']","[1.2164474002893257, 1.5831978857022477, 1.9494486022376805, 2.2161246997166018, 2.4326263111324806, 2.5661021331288794, 2.6824068202113267, 3.2491703932828386, 3.365705076696031, 3.665881727996748, 3.815696592173481, 4.115543806605274, 4.68188491779074]",2017_Jan_25_1502,59.9991339166,famFaceFilter,001,4,
72,./img/smoo15_HughLaurie(DrHouse)2_1.png,0,33,33,71,,,1.ja,1.188,None,dummy,0.723,None,None,None,None,None,,['return'],[1.0167935816571116],2017_Jan_25_1502,59.9991339166,famFaceFilter,001,4,
11,./img/smoo15_LeonardoDiCaprio3_1.png,0,34,34,10,,,1.ja,1.124,None,dummy,0.691,None,None,None,None,None,Leonardo Di Caprio,"['lshift', 'l', 'e', 'o', 'n', 'a', 'r', 'd', 'o', 'space', 'lshift', 'd', 'i', 'space', 'lshift', 'c', 'a', 'p', 'r', 'i', 'o', 'return']","[0.8332805656973505, 0.9498463643758441, 1.200000577398896, 1.2997182625113055, 1.5332639815824223, 1.6164261007688765, 1.816437905323255, 2.016404480469646, 2.2328682403312996, 2.4992726406053407, 2.665977319218655, 2.8324901738342305, 2.932601130221883, 3.199187089667248, 3.3155440632253885, 3.41570249445067, 3.69893351630526, 3.9656067268006154, 4.598704835152603, 4.715199421578291, 4.89855365346375, 5.681562537993159]",2017_Jan_25_1502,59.9991339166,famFaceFilter,001,4,
36,./img/smoo15_BastianSchweinsteiger6_2.png,0,35,35,35,,,1.ja,1.135,None,None,None,None,None,sport,1.989,None,Sebastian Schweinsteiger,"['lshift', 's', 'e', 'b', 'a', 't', 'backspace', 's', 'r', 'backspace', 't', 'i', 'a', 'n', 'space', 'lshift', 's', 'c', 'h', 'w', 'e', 'i', 'n', 's', 't', 'e', 'i', 'g', 'e', 'r', 'return']","[0.7833408876067551, 0.9833392195723718, 1.316387062339345, 1.4664874170848634, 1.6331382053431298, 1.8163365401305782, 2.3661663524653704, 3.0324278791485995, 3.2157465049058374, 3.632269864931004, 3.8155095798138063, 3.98199548924822, 4.115465537277487, 4.248580486368155, 4.531694425011665, 4.7484407884549, 5.064979898575984, 5.348270905527897, 5.447834297425288, 5.997909824116505, 6.097941228079435, 6.314515655631112, 6.564343960319093, 7.030936591905629, 7.230822010744305, 7.413818256703962, 7.696953687336645, 8.030503544414387, 8.130367824123823, 8.230459854734363, 9.413135966326081]",2017_Jan_25_1502,59.9991339166,famFaceFilter,001,4,
52,./img/smoo15_BastianSchweinsteiger3_1.png,0,36,36,51,,,1.ja,1.453,None,None,None,None,None,sport,0.94,None,Sebastian Schweinsteiger,"['lshift', 's', 'e', 'b', 'a', 's', 'r', 'backspace', 't', 'i', 'a', 'n', 'space', 'lshift', 's', 'c', 'h', 'w', 'e', 'i', 'n', 's', 't', 'e', 'i', 'g', 'e', 'r', 'return']","[0.7001235949610418, 0.8834977149526821, 1.1333131886058254, 1.28355660941088, 1.433308922285505, 2.4162054710905068, 2.6491686610897887, 3.0490052578388713, 3.215935441923648, 3.8823637720815896, 3.9989456095572677, 4.165537054268498, 4.382029042411887, 4.448772566986008, 4.581884308314329, 4.798393618355476, 4.881909874155099, 5.048255925292324, 5.215043684867851, 5.348332173729432, 5.564699700811616, 5.7648651570307266, 5.914660774655204, 6.047964981535188, 6.21455129383321, 6.414560852957948, 6.514456889479334, 6.6477800221400685, 7.497238600506535]",2017_Jan_25_1502,59.9991339166,famFaceFilter,001,4,
29,./img/smoo15_GuentherJauch3_1.png,0,37,37,28,,,1.ja,1.154,None,None,None,host,1.023,None,None,None,Günther Jauch,"['lshift', 'g', u'\xfc', 'n', 't', 'h', 'e', 'r', 'space', 'lshift', 'j', 'a', 'u', 'c', 'h', 'return']","[0.683448700394365, 0.8168443284084788, 1.2333397809306916, 1.5165156293260225, 1.7330717726508738, 1.8496317973622354, 1.999672487789212, 2.182770098937908, 2.2828781683456327, 2.732532869107672, 2.865752711921232, 3.0158052710539778, 3.1157539148298383, 3.2657564329201705, 3.3652601604990195, 4.465286111269961]",2017_Jan_25_1502,59.9991339166,famFaceFilter,001,4,
56,./img/smoo15_MariskaHargitay(Liv)6_5.png,0,38,38,55,,,1.ja,1.686,None,act,0.774,None,None,None,None,None,,['return'],[0.7002522261063859],2017_Jan_25_1502,59.9991339166,famFaceFilter,001,4,
67,./img/smoo15_GeorgeClooney4_2.png,0,39,39,66,,,1.ja,1.407,None,act,0.808,None,None,None,None,None,George Clooney,"['lshift', 'g', 'e', 'o', 'r', 'g', 'e', 'space', 'lshift', 'c', 'l', 'o', 'o', 'n', 'e', 's', 'backspace', 'y', 'return']","[0.9999345617143263, 1.1498424509081815, 1.4497117988757964, 1.5498326993219962, 1.7663442547927843, 1.9662636758803274, 2.0828628352537635, 2.2995213060967217, 2.5825919399940176, 2.8326322775646986, 3.015918504952424, 3.315609180735919, 3.432206415454857, 3.6987946203335014, 3.7820783135903184, 4.281911991278321, 4.965161810599966, 5.131604415288166, 5.61471411968887]",2017_Jan_25_1502,59.9991339166,famFaceFilter,001,4,
71,./img/smoo15_AngelaMerkel1_1.png,0,40,40,70,,,1.ja,1.136,None,None,None,None,None,polit,0.723,None,Angela Merkel,"['lshift', 'a', 'n', 'g', 'e', 'l', 'a', 'space', 'lshift', 'm', 'e', 'r', 'k', 'e', 'l', 'return']","[0.4834195739385905, 0.6338172879623016, 0.8167734369308164, 1.099740460205794, 1.2332672855736746, 1.4331138905290572, 1.5498541913075314, 1.7330849244608544, 1.8828722019134148, 1.999669600805646, 2.199478995753452, 2.3661150283187453, 2.482767757272086, 2.6325495815326576, 3.499139518600714, 4.115394004249538]",2017_Jan_25_1502,59.9991339166,famFaceFilter,001,4,
10,./img/smoo15_KatjaBurkard5_3.png,0,41,41,9,,,1.ja,1.287,None,None,None,host,1.006,None,None,None,Burkhardt,"['lshift', 'b', 'u', 'r', 'k', 'h', 'a', 'r', 'd', 't', 'return']","[0.7666547658809577, 0.916697060183651, 1.1500435774069047, 1.3165683007318876, 1.4165426065810607, 2.482843139612669, 2.582453364793764, 2.9158684959875245, 3.099245502962731, 3.2155970233288826, 4.531989859631722]",2017_Jan_25_1502,59.9991339166,famFaceFilter,001,4,
65,./img/smoo15_UrsulavonderLeyen4_1.png,0,42,42,64,,,1.ja,1.319,None,None,None,None,None,polit,0.872,None,Vonderline,"['lshift', 'v', 'o', 'n', 'd', 'e', 'r', 'l', 'i', 'n', 'e', 'return']","[0.6168421471302281, 0.7996302095198189, 1.100009911973757, 1.3165894719386415, 1.499667194984795, 1.6332167954387842, 1.7496975885005668, 1.9497315265944053, 2.1663457303584437, 2.3662609813618474, 2.499503920040297, 3.182551329759008]",2017_Jan_25_1502,59.9991339166,famFaceFilter,001,4,
48,./img/smoo15_JoshRadnor(Ted)6_2.png,0,43,43,47,,,1.ja,1.322,None,act,0.607,None,None,None,None,None,,['return'],[0.7834990301344078],2017_Jan_25_1502,59.9991339166,famFaceFilter,001,4,
15,./img/smoo15_LisaEdelstein(DrLisaCuddy)1_1.png,0,44,44,14,,,1.ja,1.422,None,dummy,0.572,None,None,None,None,None,,['return'],[0.633400279268244],2017_Jan_25_1502,59.9991339166,famFaceFilter,001,4,
2,./img/smoo15_WillSmith5_1.png,0,45,45,1,,,1.ja,1.041,None,dummy,0.758,None,None,None,None,None,Will Smith,"['lshift', 'w', 'i', 'l', 'l', 'space', 'lshift', 's', 'm', 'i', 't', 'h', 'return']","[0.48348821998297353, 0.6999567914826912, 0.8998714009321702, 1.1333545686975413, 1.266271919819701, 1.4997897313842259, 1.5996601058359374, 1.7162615106426529, 1.8165001358465815, 1.9996436179535522, 2.1328525543867727, 2.2495646268835117, 2.915662237071956]",2017_Jan_25_1502,59.9991339166,famFaceFilter,001,4,
53,./img/smoo15_GuentherJauch4_1.png,0,46,46,52,,,1.ja,1.09,None,None,None,host,1.323,None,None,None,Günther Jauch,"['lshift', 'g', u'\xfc', 'n', 't', 'h', 'e', 'r', 'space', 'lshift', 'j', 'a', 'u', 'c', 'h', 'return']","[0.9667448397594853, 1.2165862962610845, 1.6164126281764766, 1.8828847121731087, 2.1994552583346376, 2.299481209105579, 2.4493467558822886, 2.6325367504941823, 2.715892618336511, 2.94912814709096, 3.082383916807885, 3.2490898785254103, 3.365514856577647, 3.482367108150356, 3.5987365919681906, 4.348468182717625]",2017_Jan_25_1502,59.9991339166,famFaceFilter,001,4,
66,./img/smoo15_NicoleKidman3_1.png,0,47,47,65,,,1.ja,1.386,None,dummy,0.49,None,None,None,None,None,Nicole Kidmann,"['lshift', 'n', 'i', 'c', 'o', 'l', 'e', 'space', 'lshift', 'l', 'i', 'd', 'm', 'm', 'backspace', 'backspace', 'backspace', 'backspace', 'backspace', 'lshift', 'k', 'i', 'd', 'm', 'm', 'a', 'n', 'backspace', 'backspace', 'backspace', 'a', 'n', 'n', 'return']","[0.850106866499118, 0.983376108804805, 1.2166648863603768, 1.716385330149933, 1.8165059098173515, 1.9995066466399294, 2.166019501251867, 2.2993702206404123, 2.6992953515400586, 2.8324526430515107, 3.0326142499579873, 3.1825288754480425, 3.34908695946433, 3.515633174774848, 3.9488824327418115, 4.065225612932409, 4.1820515608815185, 4.315562989006139, 4.415345791629079, 4.898380113692838, 5.04845095705241, 5.214800536723487, 5.331417338773463, 5.49832218156007, 5.631492624881503, 5.7481706951330125, 5.881354290268064, 6.347799044153362, 6.497793222071778, 6.614391739894927, 6.93106878366234, 7.047641639412177, 7.247480224967148, 7.813292055889178]",2017_Jan_25_1502,59.9991339166,famFaceFilter,001,4,
7,./img/smoo15_LisaEdelstein(DrLisaCuddy)2_2.png,0,48,48,6,,,1.ja,1.143,None,act,0.577,None,None,None,None,None,,['return'],[0.8834662789122376],2017_Jan_25_1502,59.9991339166,famFaceFilter,001,4,
60,./img/smoo15_LeonardoDiCaprio2_1.png,0,49,49,59,,,1.ja,1.423,None,dummy,0.541,None,None,None,None,None,Leonardo Di Caprio,"['lshift', 'l', 'e', 'o', 'n', 'a', 'r', 'd', 'o', 'space', 'lshift', 'd', 'i', 'space', 'c', 'backspace', 'lshift', 'c', 'a', 'p', 'r', 'i', 'o', 'return']","[1.0832618804961385, 1.2333519704116043, 1.4995225250459043, 1.599692504201812, 1.8328933891607448, 1.9329167737232638, 2.166236666547775, 2.3494256988342386, 2.449444913312618, 2.9993212381559715, 3.8154133470343368, 3.9986678176101123, 4.132008592943748, 4.498637183511164, 4.798349351276556, 5.931175922814873, 6.097918773761194, 6.314579490037431, 6.480973657558934, 6.881002399080899, 7.147154990263516, 7.3973656598464, 7.5470560629692045, 8.147139272241475]",2017_Jan_25_1502,59.9991339166,famFaceFilter,001,4,
4,./img/smoo15_UrsulavonderLeyen1_1.png,0,50,50,3,,,1.ja,1.22,None,None,None,None,None,polit,0.789,None,Vonderline,"['lshift', 'v', 'o', 'n', 'd', 'e', 'r', 'l', 'i', 'n', 'e', 'return']","[0.7001668997108936, 0.8334502561556292, 1.149957930236269, 1.3830969054433808, 2.2495825903351943, 2.3660098138170724, 2.4829121064358333, 2.549300211292575, 2.7660369514596823, 2.9824269328601076, 3.0822588142000313, 3.7489338210398273]",2017_Jan_25_1502,59.9991339166,famFaceFilter,001,4,
25,./img/smoo15_JasonSegel(Marshall)6_1.png,0,51,51,24,,,1.ja,1.223,None,act,0.707,None,None,None,None,None,,['return'],[1.233260870052618],2017_Jan_25_1502,59.9991339166,famFaceFilter,001,4,
49,./img/smoo15_TomCruise5_1.png,0,52,52,48,,,1.ja,1.091,None,act,0.557,None,None,None,None,None,Tom Cruise,"['lshift', 't', 'o', 'm', 'space', 'lshift', 'c', 'r', 'u', 'i', 's', 'e', 'return']","[0.75004466804603, 0.8667798364112969, 1.1832185436687723, 1.7496943807418575, 1.9495695347541186, 2.11628511975141, 2.366120481510734, 2.8658810222877946, 3.7489241977636993, 3.948726214865019, 4.066005098411551, 4.248395077884197, 4.84837050645001]",2017_Jan_25_1502,59.9991339166,famFaceFilter,001,4,
12,./img/smoo15_MariskaHargitay(Liv)8_8.png,0,53,53,11,,,1.ja,1.253,None,act,0.474,None,None,None,None,None,,['return'],[0.6501412536781572],2017_Jan_25_1502,59.9991339166,famFaceFilter,001,4,
14,./img/smoo15_BritneySpears7_1.png,0,54,54,13,,,1.ja,1.323,None,None,None,music,0.705,None,None,None,Britney Spears,"['lshift', 'b', 'r', 'i', 'n', 'backspace', 't', 'n', 'e', 'y', 'space', 'lshift', 's', 'p', 'e', 'a', 'r', 's', 'return']","[0.650189370062435, 0.8331153660947166, 1.1000192144747416, 1.2165198956427048, 1.4331276838893245, 1.8496388544299407, 2.016190202153666, 2.1161725274032506, 2.715848030482448, 2.9317956618906464, 3.099173007602076, 3.2987103845734964, 3.465533429502102, 3.615687353823887, 3.8155910568930267, 4.049077753195888, 4.248652981721534, 4.464865894813556, 5.13180233402818]",2017_Jan_25_1502,59.9991339166,famFaceFilter,001,4,
8,./img/smoo15_AngelaMerkel4_1.png,0,55,55,7,,,1.ja,1.054,None,None,None,None,None,polit,0.74,None,Angela Merkel,"['lshift', 'a', 'n', 'g', 'e', u'\xf6', 'a', 'backspace', 'backspace', 'l', 'a', 'space', 'lshift', 'm', 'e', 'r', 'k', 'e', 'l', 'return']","[0.4170179964894487, 0.616705817366892, 0.733329997263354, 1.016448105994641, 1.1497815034817904, 1.3498491230457148, 1.4661319973638456, 1.9663137169227412, 2.1162187191330304, 2.6993280706847145, 2.78255306194842, 2.9492513250443153, 3.0657314765521733, 3.182367845933186, 3.382343402809056, 3.5488216136254778, 3.682224298710935, 3.7820475191037985, 3.898772743414156, 4.598516218909936]",2017_Jan_25_1502,59.9991339166,famFaceFilter,001,4,
63,./img/smoo15_RobertSeanLeonard(Wilson)8_1.png,0,56,56,62,,,1.ja,1.22,None,dummy,1.888,None,None,None,None,None,,['return'],[0.8839564245135989],2017_Jan_25_1502,59.9991339166,famFaceFilter,001,4,
37,./img/smoo15_Ice-T(OdafinFinTutuola)5_1.png,0,57,57,36,,,1.ja,1.189,None,None,None,music,0.906,None,None,None,Ice Cube,"['lshift', 'i', 'c', 'e', 'space', 'lshift', 'c', 'u', 'b', 'e', 'return']","[0.716712842360721, 0.8001870765147032, 1.1166649184378912, 1.2499354438441515, 1.3999552838358795, 1.5664963667295524, 1.6830926391230605, 1.9830014425278932, 2.2327665543634794, 2.3161538582426147, 3.198919562550145]",2017_Jan_25_1502,59.9991339166,famFaceFilter,001,4,
42,./img/smoo15_OmarEpps(DrEricForeman)1_5.png,0,58,58,41,,,1.ja,1.39,None,dummy,0.69,None,None,None,None,None,,['return'],[1.0669523496981128],2017_Jan_25_1502,59.9991339166,famFaceFilter,001,4,
18,./img/smoo15_HughLaurie(DrHouse)4_1.png,0,59,59,17,,,1.ja,1.391,None,act,0.757,None,None,None,None,None,,['return'],[0.8667474380454223],2017_Jan_25_1502,59.9991339166,famFaceFilter,001,4,
58,./img/smoo15_EmilyDeschanel3_1.png,0,60,60,57,,,1.ja,1.241,None,act,0.525,None,None,None,None,None,,['return'],[0.7001194248769025],2017_Jan_25_1502,59.9991339166,famFaceFilter,001,4,
17,./img/smoo15_GeorgeClooney11_1.png,0,61,61,16,,,1.ja,1.158,None,dummy,0.508,None,None,None,None,None,George Clooney,"['lshift', 'g', 'e', 'o', 'r', 'g', 'e', 'space', 'lshift', 'c', 'l', 'o', 'o', 'n', 'e', 'y', 'return']","[0.8501187352085253, 0.9333036294847261, 1.233262794710754, 1.3498776721062313, 1.6165136725940101, 1.7663413678092184, 1.8830402884959767, 2.1162799873382028, 2.416341159303556, 2.632810693132342, 2.866074770943669, 3.298916643492703, 3.4324665647254733, 3.732254756385373, 3.832330427427223, 4.0654851206491, 4.765214161230688]",2017_Jan_25_1502,59.9991339166,famFaceFilter,001,4,
23,./img/smoo15_JoachimLoew4_1.png,0,62,62,22,,,1.ja,1.203,None,None,None,None,None,sport,1.256,None,Jogi Löw,"['lshift', 'j', 'o', 'g', 'i', 'space', 'lshift', 'l', u'\xf6', 'w', 'return']","[0.7848305709740089, 0.8999307444792066, 1.1499784598963743, 1.366449918379658, 1.4499061890819576, 1.699699529199279, 1.8828952977783047, 2.0160529100649, 2.1829189389645762, 2.3493795071044588, 2.9491733764989476]",2017_Jan_25_1502,59.9991339166,famFaceFilter,001,4,
24,./img/smoo15_BastianSchweinsteiger1_1.png,0,63,63,23,,,1.ja,1.356,None,None,None,None,None,sport,0.873,None,Sebastian Schweinsteiger,"['lshift', 's', 'e', 'b', 'a', 's', 't', 'i', 'a', 'n', 'space', 'lshift', 's', 'c', 'h', 'w', 'e', 'i', 'n', 's', 't', 'e', 'i', 'g', 'e', 'r', 'return']","[0.6500488702113216, 0.8167118479577766, 1.0834190606983611, 1.1831858245277544, 1.3164371033817588, 1.5498468134610448, 1.666266338321293, 2.3493022001057398, 2.4325644013806595, 2.600581695052824, 2.799268053509877, 2.8496221740861074, 3.0325170548530878, 3.23232837445903, 3.3156367674637295, 3.4824011103992234, 3.6487705781764816, 4.348427764954977, 4.598320545603201, 5.514920089906809, 6.06439127476915, 6.214473024509061, 6.381039769479685, 6.647655240307358, 6.797410760944331, 6.880771119645942, 7.947228832879773]",2017_Jan_25_1502,59.9991339166,famFaceFilter,001,4,
41,./img/smoo15_AngelaMerkel3_1.png,0,64,64,40,,,1.ja,1.487,None,None,None,None,None,polit,0.773,None,Angela Merkel,"['lshift', 'a', 'n', 'g', 'e', u'\xf6', 'a', 'backspace', 'backspace', 'l', 'a', 'space', 'lshift', 'm', 'e', 'r', 'k', 'e', 'l', 'return']","[0.6665098072408, 0.8168382336662035, 0.9666283980986918, 1.2165943156578578, 1.3509853113500867, 1.5332277339002758, 1.666322474105982, 2.2159938231379783, 2.3993426018314494, 2.9825930947845336, 3.0824872066550597, 3.2491646193157067, 3.365358959479636, 3.482386996256537, 3.682246753025538, 3.8654139725513232, 4.01594448780088, 4.1153170180296, 4.232002466123959, 4.965153149649268]",2017_Jan_25_1502,59.9991339166,famFaceFilter,001,4,
57,./img/smoo15_UrsulavonderLeyen5_1.png,0,65,65,56,,,1.ja,1.504,None,None,None,None,None,polit,0.756,None,Vonderline,"['lshift', 'v', 'o', 'n', 'd', 'e', 'r', u'\xf6', 'backspace', 'l', 'i', 'n', 'e', 'return']","[0.6334522449687938, 0.7834541215052013, 1.0499999839630618, 1.2665551649588451, 1.666249016423535, 1.782969749870972, 1.899506999492587, 2.4994307831329934, 2.9158521364188346, 3.132423676986946, 3.3321580103693123, 3.615516380265035, 4.298669646035705, 4.765132684147829]",2017_Jan_25_1502,59.9991339166,famFaceFilter,001,4,
59,./img/smoo15_JoshRadnor(Ted)1_2.png,0,66,66,58,,,1.ja,1.434,None,dummy,1.173,None,None,None,None,None,,['return'],[0.7832417678473576],2017_Jan_25_1502,59.9991339166,famFaceFilter,001,4,
35,./img/smoo15_KatjaBurkard1_1.png,0,67,67,34,,,1.ja,1.19,None,None,None,host,0.59,None,None,None,Burkhardt,"['lshift', 'b', 'u', 'r', 'k', 'h', 'a', 'r', 'd', 't', 'return']","[0.8000468974387331, 0.8833976328678546, 1.1168022105302953, 1.299832779513963, 1.4166712377227668, 2.6161390063207364, 2.7656834564004384, 3.0325600388277962, 3.2156063258298673, 3.299059709552239, 3.982181860057608]",2017_Jan_25_1502,59.9991339166,famFaceFilter,001,4,
39,./img/smoo15_BarackObama2_1.png,0,68,68,38,,,1.ja,1.223,None,None,None,None,None,polit,0.756,None,Obama,"['lshift', 'o', 'b', 'a', 'm', 'a', 'return']","[0.8165893115547078, 0.9165963365448988, 1.1999797269600094, 1.333409998776915, 1.4832206928695086, 1.5665274819948536, 2.2162295934394933]",2017_Jan_25_1502,59.9991339166,famFaceFilter,001,4,
51,./img/smoo15_LeonardoDiCaprio1_1.png,0,69,69,50,,,1.ja,1.207,None,act,2.706,None,None,None,None,None,Leonardo Di Caprio,"['lshift', 'l', 'e', 'o', 'n', 'a', 'r', 'd', 'o', 'space', 'lshift', 'd', 'i', 'space', 'c', 'a', 'backspace', 'backspace', 'lshift', 'c', 'a', 'p', 'r', 'i', 'o', 'return']","[1.3830760550081322, 1.46616247107886, 1.7162961544418067, 1.8162627616693499, 2.0995281065479503, 2.19939270703253, 2.399453269525111, 2.5993560102688207, 3.04904150551738, 3.33238287428685, 3.5654907342286606, 3.7153113723725255, 3.815200031051063, 4.065258652852208, 4.331888237822568, 5.048301796250598, 5.564759365133796, 5.6979811326018535, 6.230991059655935, 6.2810972204460995, 6.497735482404096, 6.79751661699629, 7.28079248332142, 7.413863165333169, 7.580451723064471, 8.24697468211889]",2017_Jan_25_1502,59.9991339166,famFaceFilter,001,4,
21,./img/smoo15_NeilPatrickHarris(Barney)3_7.png,0,70,70,20,,,1.ja,1.755,None,act,1.589,None,None,None,None,None,,['return'],[1.166722000511072],2017_Jan_25_1502,59.9991339166,famFaceFilter,001,4,
3,./img/smoo15_JoshRadnor(Ted)3_1.png,0,71,71,2,,,1.ja,1.074,None,act,0.542,None,None,None,None,None,,['return'],[0.6001711018725473],2017_Jan_25_1502,59.9991339166,famFaceFilter,001,4,
32,./img/edges5_Ice-T(OdafinFinTutuola)7_1.png,0,0,0,31,,,1.ja,1.734,None,None,None,music,1.372,None,None,None,Ice Cube,"['lshift', 'i', 'c', 'e', 'space', 'lshift', 'c', 'u', 'b', 'e', 'return']","[0.8335426396188268, 0.9170508760216762, 1.2167213429202093, 1.3835864094944554, 1.5332890021018102, 1.733195592154516, 1.9332099629136792, 2.1831694649554265, 2.38302056077373, 2.4996027190245513, 3.382715502873907]",2017_Jan_25_1502,59.9991339166,famFaceFilter,001,4,
37,./img/edges5_JasonSegel(Marshall)9_1.png,0,1,1,36,,,1.ja,1.172,None,act,0.872,None,None,None,None,None,,['return'],[0.7835513166101009],2017_Jan_25_1502,59.9991339166,famFaceFilter,001,4,
67,./img/edges5_LeonardoDiCaprio2_1.png,0,2,2,66,,,1.ja,1.323,None,act,1.039,None,None,None,None,None,Leonardo Di Caprio,"['lshift', 'l', 'e', 'o', 'n', 'a', 'r', 'd', 'o', 'space', 'lshift', 'd', 'i', 'space', 'lshift', 'c', 'a', 'p', 'r', 'i', 'o', 'return']","[0.8168796137615573, 0.916875732371409, 1.1834360297434614, 1.250101284997072, 1.533268472441705, 1.649936277863162, 1.8664343607451883, 2.0496731132989225, 2.1829789240582613, 2.449215558528522, 2.582744950104825, 2.8159978007606696, 3.0159634135816304, 3.2655062277044635, 3.3658215183531865, 3.5490689318576187, 3.7822829686265322, 3.948974495426228, 4.431998231881153, 4.598717024637153, 4.781931077443005, 5.631524060921947]",2017_Jan_25_1502,59.9991339166,famFaceFilter,001,4,
69,./img/edges5_GuentherJauch2_1.png,0,3,3,68,,,1.ja,1.335,None,None,None,host,0.938,None,None,None,Günther Jauch,"['lshift', 'g', u'\xfc', 'n', 't', 'h', 'e', 'r', 'space', 'lshift', 'j', 'a', 'u', 'c', 'h', 'return']","[0.7001736360034556, 0.8499525732804614, 1.1833587227483804, 1.4498702621785924, 1.8995586444143555, 2.0328038285260845, 2.149268903565826, 2.3327536912474898, 2.449423421327083, 2.6993627144838683, 2.832515835903905, 2.982545299175399, 3.065743024486437, 3.215810018537013, 3.3156877708352113, 3.9988731142002507]",2017_Jan_25_1502,59.9991339166,famFaceFilter,001,4,
52,./img/edges5_BarackObama4_1.png,0,4,4,51,,,1.ja,1.238,None,None,None,None,None,polit,1.172,None,Obama,"['lshift', 'o', 'b', 'a', 'm', 'a', 'return']","[0.8335115243571636, 0.9499095572282386, 1.2666417744549108, 1.4000284207468212, 1.5332466596810264, 1.6329329087529914, 2.182835537223582]",2017_Jan_25_1502,59.9991339166,famFaceFilter,001,4,
41,./img/edges5_OmarEpps(DrEricForeman)3_1.png,0,5,5,40,,,1.ja,1.322,None,act,0.555,None,None,None,None,None,,['return'],[0.5835568339534802],2017_Jan_25_1502,59.9991339166,famFaceFilter,001,4,
43,./img/edges5_BarackObama1_3.png,0,6,6,42,,,1.ja,1.071,None,None,None,None,None,polit,0.805,None,Obama,"['lshift', 'o', 'b', 'a', 'm', 'a', 'return']","[0.6166612295128289, 0.7838903767515149, 1.1332843187701656, 1.2666376043671335, 1.4331100412164233, 1.5164286990511755, 2.1161202409275575]",2017_Jan_25_1502,59.9991339166,famFaceFilter,001,4,
17,./img/edges5_NeilPatrickHarris(Barney)3_7.png,0,7,7,16,,,1.ja,1.154,None,act,0.439,None,None,None,None,None,,['return'],[0.6169088685237512],2017_Jan_25_1502,59.9991339166,famFaceFilter,001,4,
64,./img/edges5_EmilyDeschanel3_1.png,0,8,8,63,,,1.ja,1.19,None,act,0.457,None,None,None,None,None,,['return'],[0.6170820875195204],2017_Jan_25_1502,59.9991339166,famFaceFilter,001,4,
62,./img/edges5_AlysonHannigan(Lily)5_4.png,0,9,9,61,,,1.ja,1.305,None,act,0.439,None,None,None,None,None,,['return'],[0.600157308508642],2017_Jan_25_1502,59.9991339166,famFaceFilter,001,4,
35,./img/edges5_WillSmith1_1.png,0,10,10,34,,,1.ja,1.09,None,act,0.857,None,None,None,None,None,Will Smith,"['lshift', 'w', 'i', 'l', 'l', 'space', 'lshift', 's', 'm', 't', 'backspace', 'i', 't', 'h', 'return']","[0.4169208013881871, 0.6502455058507621, 1.0833186578347522, 1.349636769387871, 1.4831376119072956, 1.766359331260901, 1.933031932279846, 2.082933085181139, 2.199389820048964, 2.5490484022011515, 3.1492387506295927, 3.41559984615742, 3.549079838241596, 3.6657303217616573, 4.282013035692216]",2017_Jan_25_1502,59.9991339166,famFaceFilter,001,4,
9,./img/edges5_RobertSeanLeonard(Wilson)8_1.png,0,11,11,8,,,1.ja,1.268,None,act,0.456,None,None,None,None,None,,['return'],[0.5999327653662476],2017_Jan_25_1502,59.9991339166,famFaceFilter,001,4,
25,./img/edges5_JoachimLoew8_1.png,0,12,12,24,,,1.ja,1.089,None,None,None,None,None,sport,0.623,None,Jogi Löw,"['lshift', 'j', 'o', 'g', 'i', 'space', 'lshift', 'l', u'\xf6', 'w', 'return']","[1.0667701489801402, 1.3498568216709828, 1.6997935165418312, 2.149358079270314, 2.2495550036073837, 2.4832059371801734, 2.7159817940446374, 2.8992888718676113, 3.082475017170509, 3.2657301292965712, 3.932256296109699]",2017_Jan_25_1502,59.9991339166,famFaceFilter,001,4,
54,./img/edges5_KatjaBurkard5_3.png,0,13,13,53,,,1.ja,1.388,None,None,None,host,0.771,None,None,None,Burkhardt,"['lshift', 'b', 'u', 'r', 'k', 'h', 'a', 'r', 'd', 't', 'return']","[0.7331766663737653, 0.8331115167857206, 1.0331367939288612, 1.2330866887277807, 1.36643355880733, 2.1994542960092076, 2.299328519769915, 2.532420020139398, 2.7487429593711568, 2.798882480856264, 3.7488212286953058]",2017_Jan_25_1502,59.9991339166,famFaceFilter,001,4,
63,./img/edges5_LisaEdelstein(DrLisaCuddy)2_2.png,0,14,14,62,,,1.ja,1.371,None,act,0.439,None,None,None,None,None,,['return'],[0.5669262064620852],2017_Jan_25_1502,59.9991339166,famFaceFilter,001,4,
14,./img/edges5_AngelaMerkel4_1.png,0,15,15,13,,,1.ja,1.073,None,None,None,None,None,polit,0.64,None,Angela Merkel,"['lshift', 'a', 'n', 'g', u'\xf6', 'l', 'e', 'backspace', 'backspace', 'backspace', 'e', 'l', 'a', 'space', 'lshift', 'm', 'e', 'r', 'k', 'e', 'l', 'return']","[0.6832915201921423, 0.8666220146587875, 0.9165231996375951, 1.283056198979466, 1.5499363099406764, 1.6330612191195542, 2.0495338965520205, 2.199552132660756, 2.332779032545659, 2.8659339503137744, 2.9826527591067133, 3.1657397846502136, 3.349119678608986, 3.4820649372340995, 3.56548720569117, 3.7820824836780957, 3.9487056852085516, 4.03198200062252, 4.182138170377584, 4.281961711545591, 4.914871203654911]",2017_Jan_25_1502,59.9991339166,famFaceFilter,001,4,
15,./img/edges5_LisaEdelstein(DrLisaCuddy)6_3.png,0,16,16,14,,,1.ja,1.402,None,act,0.72,None,None,None,None,None,,['return'],[0.8667933090000588],2017_Jan_25_1502,59.9991339166,famFaceFilter,001,4,
10,./img/edges5_GuentherJauch4_1.png,0,17,17,9,,,1.ja,1.124,None,None,None,host,1.273,None,None,None,Günther Jauch,"['lshift', 'g', u'\xfc', 'n', 't', 'h', 'e', 'r', 'space', 'lshift', 'j', 'a', 'u', 'c', 'h', 'return']","[0.8833649137231987, 1.0497574773689848, 1.4165349079594307, 1.7164652033497987, 1.9664000056473014, 2.099432194547262, 2.2327601388460607, 2.382485506543162, 2.499258205687511, 2.6825803599822393, 2.8324795882253966, 2.9824724830396008, 3.0823447821458103, 3.1988579735771054, 3.315667241175106, 3.9153805958158046]",2017_Jan_25_1502,59.9991339166,famFaceFilter,001,4,
66,./img/edges5_BritneySpears1_1.png,0,18,18,65,,,1.ja,1.237,None,None,None,music,0.855,None,None,None,Britney Spears,"['lshift', 'b', 'r', 'i', 't', 'n', 't', 'backspace', 'e', 's', 'backspace', 'y', 'space', 'lshift', 's', 'p', 'e', 'a', 'r', 's', 'return']","[0.9333084411227901, 1.0497330983962456, 1.3498866538284346, 1.4665814044274157, 1.6330009132507257, 1.7663686337618856, 1.8829523958920618, 2.599217114293424, 2.7491455331473844, 2.965829666063655, 3.6822364881991234, 3.8652587170072366, 4.4651241194296745, 4.648376023797027, 4.74822009462514, 4.9483974195500195, 5.09827611813671, 5.33150523137374, 5.54803025943329, 5.731405662529141, 6.99762112578901]",2017_Jan_25_1502,59.9991339166,famFaceFilter,001,4,
7,./img/edges5_AngelaMerkel3_1.png,0,19,19,6,,,1.ja,1.102,None,None,None,None,None,polit,0.738,None,Angela Merkel,"['lshift', 'a', 'n', 'g', 'e', 'l', 'a', 'space', 'lshift', 'm', 'e', 'r', 'k', 'e', 'l', 'return']","[0.8836722170526627, 1.0168968715042865, 1.1668432538099296, 1.3500085486775788, 1.550062374877598, 1.6998288018912717, 1.8331378204093198, 1.999767116682051, 2.166190474814357, 2.2495915720610355, 2.449571299021045, 2.6175517034644145, 2.6994567018264206, 2.849460503020964, 2.949269288495998, 4.915193904231273]",2017_Jan_25_1502,59.9991339166,famFaceFilter,001,4,
28,./img/edges5_Ice-T(OdafinFinTutuola)5_1.png,0,20,20,27,,,1.ja,1.153,None,None,None,music,0.723,None,None,None,Ice Cube,"['lshift', 'i', 'c', 'e', 'space', 'lshift', 'c', 'u', 'b', 'e', 'return']","[0.7333883784813224, 0.8000356702832505, 1.0998517694461043, 1.2498738548711117, 1.366351440170547, 1.5996527279894508, 2.1995527742146805, 2.466137450555834, 2.93257193961108, 3.0490896219052956, 3.649077239952021]",2017_Jan_25_1502,59.9991339166,famFaceFilter,001,4,
59,./img/edges5_BastianSchweinsteiger3_1.png,0,21,21,58,,,1.ja,1.287,None,None,None,None,None,sport,1.736,None,Sebastian Schweinsteiger,"['lshift', 's', 'e', 'b', 's', 't', 'backspace', 'backspace', 'a', 's', 't', 'i', 'a', 'n', 'space', 'lshift', 's', 'c', 'h', 'w', 'e', 'n', 'i', 'backspace', 'backspace', 'i', 'n', 's', 't', 'e', 'i', 'g', 'e', 'r', 'return']","[0.8667865727038588, 0.983369372504967, 1.2332121121107775, 1.3666269866844232, 1.6997867802456312, 1.8163099157281977, 2.466162150300079, 2.6158204758321517, 2.83275256853085, 3.482280819425796, 3.599085916939657, 4.048872777380893, 4.165244506632007, 4.298666759048501, 4.615266816595977, 4.748518095449981, 4.931827097927453, 5.198314258392202, 5.331736190033553, 5.48156260214455, 5.681491646511859, 5.8147522278668475, 5.998046153879841, 6.61452197491235, 6.714269171410706, 7.43073950717735, 7.630706723877665, 7.830295424995711, 7.96388929252862, 8.530281086314062, 8.646935419146757, 8.863542886614596, 8.946718799168593, 9.113251862665493, 9.796250514442363]",2017_Jan_25_1502,59.9991339166,famFaceFilter,001,4,
5,./img/edges5_AlysonHannigan(Lily)1_1.png,0,22,22,4,,,1.ja,1.551,None,act,0.605,None,None,None,None,None,,['return'],[0.6002503335257643],2017_Jan_25_1502,59.9991339166,famFaceFilter,001,4,
53,./img/edges5_KatjaBurkard4_1.png,0,23,23,52,,,1.ja,1.206,None,None,None,host,0.689,None,None,None,Burkhardt,"['lshift', 'b', 'u', 'r', 'k', 'h', 'a', 'r', 'd', 't', 'return']","[0.7999352674196416, 0.8832815119822044, 1.1165548922981543, 1.2830270083686628, 1.43308085060562, 2.265980013733497, 2.382727050808171, 2.7656978913146304, 2.982254355414625, 3.2489381515151763, 4.081909489224927]",2017_Jan_25_1502,59.9991339166,famFaceFilter,001,4,
60,./img/edges5_TomCruise1_1.png,0,24,24,59,,,1.ja,1.367,None,dummy,0.556,None,None,None,None,None,Tom Cruise,"['lshift', 't', 'o', 'm', 'space', 'lshift', 'c', 'u', 'r', 'i', 'backspace', 'backspace', 'backspace', 'r', 'u', 'i', 's', 'e', 'return']","[0.800159810562036, 0.9500901540704945, 1.2665586934926978, 1.5331837876001373, 1.7164979224944545, 1.866520970244892, 1.9995890860482177, 2.449851657176623, 2.632847582357499, 2.799453461990197, 3.182573784073611, 3.315817043530842, 3.449056132896658, 3.582385360299668, 4.3820656108655385, 4.548632355832524, 4.665367844972934, 4.848477645606181, 5.4482452113770705]",2017_Jan_25_1502,59.9991339166,famFaceFilter,001,4,
34,./img/edges5_KatjaBurkard1_1.png,0,25,25,33,,,1.ja,1.167,None,None,None,host,0.871,None,None,None,Burkhardt,"['lshift', 'b', 'u', 'r', 'k', 'h', 'a', 'r', 'd', 't', 'return']","[0.7169640099018579, 0.8334765597792284, 1.06669252120264, 1.2496137055968575, 1.3832560102964635, 2.9156856537119893, 3.3656588849626132, 3.6322634494099475, 3.7988237788595143, 3.9654078457278956, 4.615226719604834]",2017_Jan_25_1502,59.9991339166,famFaceFilter,001,4,
46,./img/edges5_TomCruise5_1.png,0,26,26,45,,,1.ja,2.234,None,act,1.071,None,None,None,None,None,Tom Cruise,"['lshift', 't', 'o', 'comma', 'space', 'backspace', 'comma', 'm', 'space', 'lshift', 'c', 'u', 'backspace', 'r', 'u', 'i', 's', 'e', 'return']","[0.5166667147823318, 0.6501601794552698, 1.0167313511301472, 1.2499155557416088, 1.466601934087521, 2.3161221014306648, 2.5325454435223946, 3.3156502400524914, 4.015730851042463, 4.1487303207977675, 4.315333634222043, 4.964918020901678, 5.481428838589636, 5.6314730575504655, 5.747917923708883, 5.997986489561299, 6.098042914043617, 6.281241248831066, 6.8975788154457405]",2017_Jan_25_1502,59.9991339166,famFaceFilter,001,4,
23,./img/edges5_UrsulavonderLeyen1_1.png,0,27,27,22,,,1.ja,1.185,None,None,None,None,None,polit,0.804,None,Vonderline,"['lshift', 'v', 'o', 'n', 'd', 'e', 'r', 'l', 'i', 'n', 'e', 'return']","[0.6334775862633251, 0.7665485890502168, 1.083373510518868, 1.2999578821218165, 1.5332088081231632, 1.649810533705022, 1.783073039714509, 1.8997632994505693, 2.0995784683655074, 2.316253619555937, 2.4161384289218404, 2.7661639787256718]",2017_Jan_25_1502,59.9991339166,famFaceFilter,001,4,
11,./img/edges5_RobertSeanLeonard(Wilson)1_1.png,0,28,28,10,,,1.ja,1.255,None,act,0.539,None,None,None,None,None,,['return'],[1.2000272017976386],2017_Jan_25_1502,59.9991339166,famFaceFilter,001,4,
3,./img/edges5_NicoleKidman5_1.png,0,29,29,2,,,1.ja,1.207,None,act,0.49,None,None,None,None,None,Nicole Kidmann,"['lshift', 'n', 'i', 'c', 'o', 'l', 'e', 'space', 'lshift', 'k', 'i', 'd', 'm', 'a', 'n', 'n', 'return']","[0.983375146475737, 1.149780220381217, 1.3831787033013825, 1.6831285660264257, 1.7830438491073437, 1.982917078465107, 2.0995281065479503, 2.299413525390264, 2.6492565536937036, 2.8157591434792266, 2.9824917295954947, 3.132377485253528, 3.265589950220601, 3.6822522062175267, 3.815390251173085, 3.9818444037919107, 4.515104856836842]",2017_Jan_25_1502,59.9991339166,famFaceFilter,001,4,
36,./img/edges5_AngelaMerkel1_1.png,0,30,30,35,,,1.ja,1.168,None,None,None,None,None,polit,0.639,None,Angela Merkel,"['lshift', 'a', 'n', 'g', 'e', u'\xf6', 'a', 'backspace', 'backspace', 'l', 'a', 'space', 'lshift', 'm', 'e', 'r', 'k', 'e', 'l', 'return']","[0.5835186616168357, 0.733504820138478, 0.8334213863199693, 1.1833734784377157, 1.3000120932520076, 1.5165361589824897, 1.5998763088027772, 2.1829086741308856, 2.316209352477017, 2.8826989829140075, 2.9825902078009676, 3.1659813289152225, 3.2657044672196207, 3.3492467058713373, 3.5657011632283684, 3.749006957947131, 3.8490354749264952, 3.982176086090476, 4.098780698655901, 4.748544719848724]",2017_Jan_25_1502,59.9991339166,famFaceFilter,001,4,
19,./img/edges5_HughLaurie(DrHouse)2_1.png,0,31,31,18,,,1.ja,1.549,None,act,0.621,None,None,None,None,None,,['return'],[1.216657187735109],2017_Jan_25_1502,59.9991339166,famFaceFilter,001,4,
40,./img/edges5_NicoleKidman3_1.png,0,32,32,39,,,1.ja,1.523,None,act,0.672,None,None,None,None,None,Nicole Kidmann,"['lshift', 'n', 'i', 'c', 'o', 'l', 'e', 'space', 'lshift', 'k', 'i', 'd', 'm', 'a', 'n', 'n', 'return']","[0.7169704254229146, 0.7835856396341114, 1.0336625456584443, 1.1667200758565741, 1.2834241289565398, 1.499977385297825, 1.8999028369762527, 2.06649845177526, 2.532937110918283, 2.7324571659883077, 2.8828497475988115, 3.0160541931654734, 3.482510815763817, 3.6823137951942044, 3.8990713857929222, 4.032459315189044, 4.4153133932595665]",2017_Jan_25_1502,59.9991339166,famFaceFilter,001,4,
33,./img/edges5_BarackObama2_1.png,0,33,33,32,,,1.ja,1.167,None,None,None,None,None,polit,0.889,None,Obama,"['lshift', 'o', 'b', 'a', 'm', 'a', 'return']","[0.8667897804662061, 0.9833312001755985, 1.416637556252681, 1.5498240383712982, 1.749418513456476, 1.79984577094001, 2.482728301834868]",2017_Jan_25_1502,59.9991339166,famFaceFilter,001,4,
2,./img/edges5_OmarEpps(DrEricForeman)1_5.png,0,34,34,1,,,1.ja,1.254,None,act,0.555,None,None,None,None,None,,['return'],[0.6167747841900564],2017_Jan_25_1502,59.9991339166,famFaceFilter,001,4,
13,./img/edges5_MariskaHargitay(Liv)6_5.png,0,35,35,12,,,1.ja,1.206,None,dummy,0.456,None,None,None,None,None,,['return'],[0.550273124656087],2017_Jan_25_1502,59.9991339166,famFaceFilter,001,4,
70,./img/edges5_BastianSchweinsteiger1_1.png,0,36,36,69,,,1.ja,1.073,None,None,None,None,None,sport,0.672,None,Sebastian Schweinsteiger,"['lshift', 's', 'e', 'b', 'a', 's', 't', 'i', 'a', 'n', 'space', 'lshift', 's', 'c', 'h', 'w', 'e', 'i', 'n', 's', 't', 'e', 'i', 'g', 'e', 'r', 'return']","[0.7667638296916266, 0.9167531959719781, 1.1499803845545102, 1.5498705508798594, 2.4995536403112055, 2.8160625974960567, 2.916009958167706, 3.5821502315520775, 3.6824462756485445, 3.8655400374882447, 4.04926444478042, 4.098814700904768, 4.248864373053948, 4.4154060975015454, 4.515512883805059, 4.698372799997742, 4.84850298690435, 4.965198379057256, 5.148418847380526, 5.5647051540036045, 5.781485519695707, 6.081379567407566, 6.198120509739965, 6.414608648567082, 6.481264280544565, 6.564479327756999, 6.9644095910734904]",2017_Jan_25_1502,59.9991339166,famFaceFilter,001,4,
61,./img/edges5_NeilPatrickHarris(Barney)2_2.png,0,37,37,60,,,1.ja,1.252,None,act,0.522,None,None,None,None,None,,['return'],[0.5835443236937863],2017_Jan_25_1502,59.9991339166,famFaceFilter,001,4,
65,./img/edges5_LisaEdelstein(DrLisaCuddy)1_1.png,0,38,38,64,,,1.ja,1.59,None,dummy,0.405,None,None,None,None,None,,['return'],[0.7501428254763596],2017_Jan_25_1502,59.9991339166,famFaceFilter,001,4,
12,./img/edges5_UrsulavonderLeyen4_1.png,0,39,39,11,,,1.ja,0.99,None,None,None,None,None,polit,0.723,None,Vonderline,"['lshift', 'v', 'o', 'n', 'd', 'e', 'r', 'l', 'i', 'n', 'e', 'return']","[0.7333880577025411, 0.8666887360486726, 1.1332811110114562, 1.3498654826180427, 1.516365506195143, 1.6330419725636602, 1.749718118160672, 1.8830595350482326, 2.0496288462236407, 2.265994448651327, 2.3827312208959484, 2.715448022911005]",2017_Jan_25_1502,59.9991339166,famFaceFilter,001,4,
49,./img/edges5_RobertSeanLeonard(Wilson)2_6.png,0,40,40,48,,,1.ja,1.405,None,act,0.539,None,None,None,None,None,,['return'],[0.7666335946705658],2017_Jan_25_1502,59.9991339166,famFaceFilter,001,4,
72,./img/edges5_EmilyDeschanel6_12.png,0,41,41,71,,,1.ja,1.189,None,act,0.606,None,None,None,None,None,,['return'],[0.5666153745987685],2017_Jan_25_1502,59.9991339166,famFaceFilter,001,4,
55,./img/edges5_JoachimLoew1_1.png,0,42,42,54,,,1.ja,1.138,None,None,None,None,None,sport,0.689,None,Jogi Löw,"['lshift', 'j', 'o', 'g', 'i', 'space', 'lshift', 'l', u'\xf6', 'w', 'return']","[0.7668048890081991, 0.866520007915824, 1.066680010942946, 1.2664608568375115, 1.3497666836337885, 1.6162862424644118, 1.833166048691055, 1.9496436339941283, 2.132826571538317, 2.282860204890312, 2.8991307293363207]",2017_Jan_25_1502,59.9991339166,famFaceFilter,001,4,
44,./img/edges5_EmilyDeschanel5_1.png,0,43,43,43,,,1.ja,1.421,None,dummy,0.556,None,None,None,None,None,,['return'],[0.6668600945449725],2017_Jan_25_1502,59.9991339166,famFaceFilter,001,4,
38,./img/edges5_GeorgeClooney11_1.png,0,44,44,37,,,1.ja,1.054,None,act,0.573,None,None,None,None,None,George Clooney,"['lshift', 'g', 'e', 'o', 'r', 'g', 'e', 'space', 'lshift', 'c', 'l', 'o', 'o', 'n', 'e', 'y', 'return']","[0.8167513033913565, 0.9667166114741121, 1.1999572726454062, 1.3499299585782865, 1.6163285848851956, 1.8496847253882152, 1.9663361712373444, 2.216346035096649, 2.449541466863593, 2.6327661052746407, 2.7991301198635483, 3.082461223802966, 3.1990674402477453, 3.4491459501550708, 3.5656347626136267, 3.7656420763050846, 4.298661305856513]",2017_Jan_25_1502,59.9991339166,famFaceFilter,001,4,
68,./img/edges5_MariskaHargitay(Liv)4_4.png,0,45,45,67,,,1.ja,1.182,None,act,0.573,None,None,None,None,None,,['return'],[0.5169319964697934],2017_Jan_25_1502,59.9991339166,famFaceFilter,001,4,
57,./img/edges5_BritneySpears5_1.png,0,46,46,56,,,1.ja,1.107,None,None,None,music,1.106,None,None,None,Brintey Spears,"['lshift', 'b', 'r', 'i', 'n', 't', 'e', 'space', 'backspace', 'y', 'space', 'lshift', 's', 'p', 'e', 'a', 'e', 'r', 's', 'backspace', 'backspace', 'backspace', 'r', 'd', 'backspace', 's', 'return']","[0.6833540714978881, 0.8001280537464481, 1.0666334984380228, 1.1832005802207277, 1.3995100468600867, 1.6327571235524374, 1.7497691215321538, 2.0996509637225245, 2.7158435396195273, 2.8159176067820226, 3.3822840592656576, 3.5156796872834093, 3.6155410800056416, 3.98214240462039, 4.1321731509924575, 4.815090646461613, 5.031675980393629, 5.215020268227818, 5.414545776486193, 6.41450792492833, 6.581062159635621, 6.697530121658929, 7.114079464536189, 7.347406093649624, 7.963861705800809, 8.080349235158792, 10.162883916647843]",2017_Jan_25_1502,59.9991339166,famFaceFilter,001,4,
47,./img/edges5_UrsulavonderLeyen5_1.png,0,47,47,46,,,1.ja,2.866,None,None,None,None,None,polit,0.706,None,Vonderline,"['lshift', 'v', 'o', 'n', 'd', 'e', 'r', 'l', 'i', 'n', 'e', 'return']","[0.7000138895964483, 0.8165620455984026, 1.0998382968573424, 1.2997801722631266, 1.4499058683068142, 1.5830471210174437, 1.6664940892223967, 1.765971833949152, 2.016219071989326, 2.2327909333325806, 2.3494333974558685, 3.2489914003162994]",2017_Jan_25_1502,59.9991339166,famFaceFilter,001,4,
20,./img/edges5_JoshRadnor(Ted)1_2.png,0,48,48,19,,,1.ja,1.255,None,act,0.488,None,None,None,None,None,,['return'],[0.6835555187717546],2017_Jan_25_1502,59.9991339166,famFaceFilter,001,4,
18,./img/edges5_JoshRadnor(Ted)6_2.png,0,49,49,17,,,1.ja,1.223,None,act,0.457,None,None,None,None,None,,['return'],[0.6335180040259729],2017_Jan_25_1502,59.9991339166,famFaceFilter,001,4,
27,./img/edges5_OmarEpps(DrEricForeman)2_2.png,0,50,50,26,,,1.ja,1.072,None,dummy,0.489,None,None,None,None,None,,['return'],[0.6835041946287674],2017_Jan_25_1502,59.9991339166,famFaceFilter,001,4,
22,./img/edges5_JasonSegel(Marshall)6_1.png,0,51,51,21,,,1.ja,1.122,None,act,0.473,None,None,None,None,None,,['return'],[0.6168177681647649],2017_Jan_25_1502,59.9991339166,famFaceFilter,001,4,
42,./img/edges5_JoachimLoew4_1.png,0,52,52,41,,,1.ja,1.056,None,None,None,None,None,sport,1.188,None,Jogi Löw,"['lshift', 'j', 'o', 'g', 'i', 'space', 'lshift', 'l', u'\xf6', 'w', 'return']","[0.6834493419446517, 0.8000311794203299, 0.9997263781406218, 1.2997702282118553, 1.3831373232096666, 1.6329932146290957, 1.8327307557701715, 1.949423902489798, 2.1495466955129814, 2.282801182125695, 2.9323945505311713]",2017_Jan_25_1502,59.9991339166,famFaceFilter,001,4,
26,./img/edges5_NicoleKidman7_1.png,0,53,53,25,,,1.ja,1.39,None,act,0.524,None,None,None,None,None,Nicole Kidmann,"['lshift', 'n', 'i', 'c', 'o', 'l', 'space', 'backspace', 'e', 'space', 'lshift', 'k', 'i', 'd', 'm', 'a', 'n', 'n', 'return']","[0.7168212646211032, 0.8169511467895063, 1.033469117781351, 1.4497980876003567, 1.5666596416740504, 1.7831875567171664, 2.0660862547192664, 2.43281396504608, 2.582902451082191, 3.332409819464374, 3.565867004381289, 3.6824097071912547, 3.832400677350961, 3.999052107163152, 4.132032971916487, 4.3321852763219795, 4.515485617852391, 4.665310746859177, 5.248452496776736]",2017_Jan_25_1502,59.9991339166,famFaceFilter,001,4,
24,./img/edges5_JasonSegel(Marshall)7_1.png,0,54,54,23,,,1.ja,1.349,None,act,0.739,None,None,None,None,None,,['return'],[0.6335824799898546],2017_Jan_25_1502,59.9991339166,famFaceFilter,001,4,
8,./img/edges5_LeonardoDiCaprio3_1.png,0,55,55,7,,,1.ja,1.072,None,dummy,1.022,None,None,None,None,None,Leonardo Di Caprio,"['lshift', 'l', 'e', 'o', 'n', 'a', 'r', 'd', 'o', 'space', 'lshift', 'd', 'i', 'space', 'lshift', 'c', 'a', 'p', 'r', 'i', 'o', 'return']","[0.8000837866711663, 0.9001299463234318, 1.1832612068683375, 1.2998818582309468, 1.6837989876948996, 1.7996385496953735, 2.032968707346299, 2.2328326342030778, 2.3660107761461404, 2.6825903040335106, 3.0825343607139075, 3.282366530755098, 3.4155247845919803, 3.71547625119274, 3.8652859829599038, 3.9820307746012986, 4.248695644921099, 4.431921245661215, 4.898377547480777, 5.015064599458128, 5.181617871836352, 5.931261890760652]",2017_Jan_25_1502,59.9991339166,famFaceFilter,001,4,
29,./img/edges5_TomCruise4_1.png,0,56,56,28,,,1.ja,1.334,None,dummy,0.406,None,None,None,None,None,Tom Cruise,"['lshift', 't', 'o', 'm', 'space', 'lshift', 'c', 'r', 'u', 'i', 's', 'e', 'return']","[1.1499518354939937, 1.349820253213693, 1.7163538941058505, 1.96627490303581, 2.1661234326493286, 2.2994350173721614, 2.4992248449925683, 3.065743024486437, 3.215629421694757, 3.4322638343437575, 3.532273104767228, 3.732180015595077, 4.215191883340594]",2017_Jan_25_1502,59.9991339166,famFaceFilter,001,4,
30,./img/edges5_MariskaHargitay(Liv)8_8.png,0,57,57,29,,,1.ja,1.233,None,dummy,0.506,None,None,None,None,None,,['return'],[0.5666888322812156],2017_Jan_25_1502,59.9991339166,famFaceFilter,001,4,
39,./img/edges5_AlysonHannigan(Lily)8_3.png,0,58,58,38,,,1.ja,1.006,None,act,0.673,None,None,None,None,None,,['return'],[0.5832902691654454],2017_Jan_25_1502,59.9991339166,famFaceFilter,001,4,
4,./img/edges5_LeonardoDiCaprio1_1.png,0,59,59,3,,,1.ja,1.156,None,act,0.607,None,None,None,None,None,Leonardo Di Caprio,"['lshift', 'l', 'e', 'o', 'n', 'a', 'r', 'd', 'o', 'space', 'lshift', 'd', 'i', 'space', 'lshift', 'c', 'a', 'p', 'r', 'i', 'o', 'return']","[0.9332959308594582, 1.0500179474111064, 1.2999681469518691, 1.3830378826751257, 1.6663041898791562, 1.7662217183897155, 1.9829526845896908, 2.1661917579185683, 2.24945299686442, 2.5161268489137, 2.6160658694097947, 2.766028932062909, 2.8825620115967467, 3.115711251633911, 3.265805190858373, 3.3820531006022065, 3.6489607982948655, 3.7821825657629233, 4.28204415095388, 4.431994061797013, 4.61518662261733, 5.881201600928762]",2017_Jan_25_1502,59.9991339166,famFaceFilter,001,4,
31,./img/edges5_GeorgeClooney4_2.png,0,60,60,30,,,1.ja,1.65,None,dummy,0.789,None,None,None,None,None,George Clooney,"['lshift', 'g', 'e', 'o', 'r', 'g', 'e', 'space', 'lshift', 'c', 'l', 'o', 'o', 'n', 'e', 's', 'backspace', 'y', 'return']","[0.9667833328712732, 1.0833404705990688, 1.3499482428087504, 1.4498407507962838, 1.633161621986801, 1.8161399044947757, 1.916406116430153, 2.1163621059713478, 2.416263531533332, 2.5992020378253073, 2.7660417631013843, 3.049272464180831, 3.1993789136686246, 3.4491706499029533, 3.5323879425486666, 4.015424510042067, 4.832005802196363, 4.931900876392319, 5.481465086268145]",2017_Jan_25_1502,59.9991339166,famFaceFilter,001,4,
51,./img/edges5_Ice-T(OdafinFinTutuola)6_1.png,0,61,61,50,,,1.ja,1.147,None,None,None,music,1.105,None,None,None,Ice Cube,"['lshift', 'i', 'c', 'e', 'space', 'lshift', 'c', 'u', 'b', 'e', 'return']","[0.5834262781536381, 0.7335789193748496, 1.0334155482014467, 1.1667037162842462, 1.2998067966618692, 1.499945307703456, 1.6831856641365448, 1.9663701734825736, 2.1664105270938308, 2.2662456161961018, 3.2990978818816075]",2017_Jan_25_1502,59.9991339166,famFaceFilter,001,4,
50,./img/edges5_WillSmith5_1.png,0,62,62,49,,,1.ja,1.172,None,dummy,0.54,None,None,None,None,None,Will Smith,"['lshift', 'w', 'i', 'l', 'l', 'space', 'lshift', 's', 'm', 'i', 't', 'h', 'return']","[1.0499448105038027, 1.2499675214385206, 1.3664900153671624, 1.616329867989407, 1.7331654392182827, 1.9662492409624974, 2.0162649429439625, 2.1328458180905727, 2.2494504306559975, 2.4327806043474993, 2.5327026237209793, 2.6493425216394826, 3.282299488586432]",2017_Jan_25_1502,59.9991339166,famFaceFilter,001,4,
48,./img/edges5_GeorgeClooney3_1.png,0,63,63,47,,,1.ja,1.04,None,dummy,0.523,None,None,None,None,None,George Clooney,"['lshift', 'g', 'e', 'o', 'r', 'g', 'e', 'space', 'lshift', 'c', 'l', 'o', 'o', 'n', 'e', 'y', 'return']","[0.9832333635167743, 1.0833209032680315, 1.3164589161424374, 1.433241238566552, 1.6327622559656447, 1.799547128557606, 1.899670274433447, 2.132847101194784, 2.365988963385462, 2.515802865233127, 2.7326018359271984, 3.01576677794219, 3.1491226297475805, 3.3991453246417223, 3.515605908822181, 3.998515128274448, 5.431494292915886]",2017_Jan_25_1502,59.9991339166,famFaceFilter,001,4,
56,./img/edges5_NeilPatrickHarris(Barney)1_1.png,0,64,64,55,,,1.ja,1.066,None,dummy,0.923,None,None,None,None,None,,['return'],[0.8667111903632758],2017_Jan_25_1502,59.9991339166,famFaceFilter,001,4,
21,./img/edges5_JoshRadnor(Ted)3_1.png,0,65,65,20,,,1.ja,0.89,None,act,0.94,None,None,None,None,None,,['return'],[0.8167365477020212],2017_Jan_25_1502,59.9991339166,famFaceFilter,001,4,
16,./img/edges5_BritneySpears7_1.png,0,66,66,15,,,1.ja,1.057,None,None,None,music,0.806,None,None,None,Britney Spears,"['lshift', 'b', 'r', 'i', 't', 'n', 'e', 'y', 'space', 'lshift', 's', 'p', 'e', 'a', 'r', 's', 'return']","[0.7333880577025411, 0.8833745369993267, 1.1664695498620858, 1.2998844244357315, 1.6164132697304012, 1.899530095357477, 2.0663733491674066, 2.266209047738812, 2.4827469068368373, 2.7993658901650633, 2.9326412272093876, 3.199151162763883, 3.415735213591688, 3.6322923192456074, 3.8319278536473576, 4.032502619935258, 4.615086540528864]",2017_Jan_25_1502,59.9991339166,famFaceFilter,001,4,
71,./img/edges5_HughLaurie(DrHouse)4_1.png,0,67,67,70,,,1.ja,1.233,None,act,0.59,None,None,None,None,None,,['return'],[0.6170435944077326],2017_Jan_25_1502,59.9991339166,famFaceFilter,001,4,
6,./img/edges5_GuentherJauch3_1.png,0,68,68,5,,,1.ja,1.055,None,None,None,host,1.089,None,None,None,Günther Jauch,"['lshift', 'g', u'\xfc', 'n', 't', 'h', 'e', 'r', 'space', 'lshift', 'j', 'a', 'u', 'c', 'h', 'return']","[0.6500684375423589, 0.7833158670837292, 1.1332214466929145, 1.3997493456954544, 1.682980046774901, 1.7995429584698286, 1.9329302463120257, 2.0994440632566693, 2.1992685667501064, 2.4327655278793827, 3.0824060503473447, 3.2323553196365538, 3.348796336482337, 3.48220864484756, 3.598944775538257, 4.348609965672949]",2017_Jan_25_1502,59.9991339166,famFaceFilter,001,4,
58,./img/edges5_HughLaurie(DrHouse)5_3.png,0,69,69,57,,,1.ja,1.232,None,act,0.49,None,None,None,None,None,,['return'],[0.567055479157716],2017_Jan_25_1502,59.9991339166,famFaceFilter,001,4,
45,./img/edges5_WillSmith4_1.png,0,70,70,44,,,1.ja,0.99,None,act,0.523,None,None,None,None,None,Will Smith,"['lshift', 'w', 'i', 'l', 'l', 'space', 'lshift', 's', 'm', 'i', 't', 'h', 'return']","[0.40022313172812574, 0.6000860962558363, 0.7999557970797468, 1.0165125819548848, 1.1333228118855914, 1.382894175061665, 1.4329304067032353, 1.5497720726707485, 1.6330259337701136, 1.7996164161559136, 1.9161902342348185, 2.0328368684458837, 2.6991840422961104]",2017_Jan_25_1502,59.9991339166,famFaceFilter,001,4,
1,./img/edges5_BastianSchweinsteiger6_2.png,0,71,71,0,,,1.ja,1.089,None,None,None,None,None,sport,0.839,None,Sebastian Schweinsteiger,"['lshift', 's', 'e', 'b', 'a', 's', 't', 'i', 'a', 'n', 'space', 'lshift', 's', 'c', 'h', 'w', 'e', 'i', 'n', 's', 't', 'e', 'i', 'g', 'e', 'r', 'return']","[0.51677802402628, 0.7167904701309453, 0.9666957610425015, 1.0833215448183182, 1.2498658354707004, 1.4497012132706004, 1.5830102317886485, 2.299244476478634, 2.399290956909681, 2.5327414376079105, 2.7490768870993634, 2.782379201402364, 2.9324179671712045, 3.132294404287677, 3.199093423099839, 3.3656091646953428, 3.532495723255124, 3.615562571994815, 3.8322001924025244, 4.015339183642936, 4.565299231002427, 4.715061808707105, 4.864972264109383, 5.098211000626179, 5.181402310419799, 5.281662748388044, 6.264418476563151]",2017_Jan_25_1502,59.9991339166,famFaceFilter,001,4,
40,./img/gray_BritneySpears1_1.png,0,0,0,39,,,1.ja,1.809,None,act,1.371,None,None,None,None,None,Britney Spears,"['lshift', 'b', 'backspace', 'backspace', 'lshift', 'b', 'r', 'i', 't', 'n', 'e', 'y', 'space', 'lshift', 's', 'p', 'e', 'a', 'r', 's', 'return']","[0.7332870132922835, 0.8832776626732084, 2.4328418725490337, 2.6325405998068163, 3.1156663430047047, 3.232503197334154, 4.4316995895023865, 4.515143029169849, 4.765088417072548, 4.998463804127823, 5.081521671141672, 5.548223687314021, 6.114569289362407, 6.314332492580434, 6.431228690456919, 6.79750442751174, 6.93100911934016, 7.130799588510854, 7.330700083817646, 7.547227678085619, 8.030327759210195]",2017_Jan_25_1502,59.9991339166,famFaceFilter,001,4,
19,./img/gray_JasonSegel(Marshall)9_1.png,0,1,1,18,,,1.ja,1.15,None,dummy,0.455,None,None,None,None,None,,['return'],[1.1500727680140699],2017_Jan_25_1502,59.9991339166,famFaceFilter,001,4,
64,./img/gray_LisaEdelstein(DrLisaCuddy)2_2.png,0,2,2,63,,,1.ja,0.989,None,act,0.456,None,None,None,None,None,,['return'],[0.5500139377145388],2017_Jan_25_1502,59.9991339166,famFaceFilter,001,4,
2,./img/gray_BastianSchweinsteiger1_1.png,0,3,3,1,,,1.ja,1.339,None,None,None,None,None,sport,0.922,None,Sebastian Schweinsteiger,"['lshift', 's', 'e', 'b', 's', 't', 'backspace', 'backspace', 'e', 'backspace', 'a', 's', 't', 'i', 'a', 'n', 'space', 'lshift', 's', 'c', 'h', 'w', 'e', 'i', 'n', 's', 't', 'e', 'i', 'g', 'e', 'r', 'return']","[0.4838417150458554, 0.7004267282027286, 1.0001992018442252, 1.1335723755473737, 1.3501516147371149, 1.533419237122871, 2.2998369496017403, 2.4162545498038526, 2.5998041342245415, 3.099493141970015, 3.2326350362345693, 3.532585219734756, 3.96580240010735, 4.2323338276473805, 4.51561681520252, 4.615559043457324, 4.982004150198918, 5.115263769224839, 5.265316328361223, 5.498631409544032, 5.581575721880654, 5.748408710860531, 5.9483268488475005, 6.0481677119132655, 6.264898998888384, 6.698011285538087, 6.86446864591926, 7.047850143753749, 7.164467908132792, 7.347668167578377, 7.431037508005829, 7.531047419983224, 8.16407591996176]",2017_Jan_25_1502,59.9991339166,famFaceFilter,001,4,
61,./img/gray_AlysonHannigan(Lily)8_3.png,0,4,4,60,,,1.ja,1.233,None,act,0.622,None,None,None,None,None,,['return'],[0.7833806638227543],2017_Jan_25_1502,59.9991339166,famFaceFilter,001,4,
35,./img/gray_JoachimLoew4_1.png,0,5,5,34,,,1.ja,1.105,None,None,None,None,None,sport,0.689,None,Jogi Löw,"['lshift', 'j', 'o', 'g', 'i', 'space', 'lshift', 'l', u'\xf6', 'w', 'return']","[0.716793998668436, 0.8167946081412083, 1.016695424226782, 1.1998956836723664, 1.2497564508848882, 1.5164809855268686, 1.7161396157935087, 1.8330601926390955, 2.016106158866023, 2.1493362665096356, 2.766050103273301]",2017_Jan_25_1502,59.9991339166,famFaceFilter,001,4,
34,./img/gray_RobertSeanLeonard(Wilson)2_6.png,0,6,6,33,,,1.ja,1.137,None,dummy,0.522,None,None,None,None,None,,['return'],[0.6836552800850768],2017_Jan_25_1502,59.9991339166,famFaceFilter,001,4,
47,./img/gray_HughLaurie(DrHouse)5_3.png,0,7,7,46,,,1.ja,1.072,None,act,0.706,None,None,None,None,None,,['return'],[0.6335196079089656],2017_Jan_25_1502,59.9991339166,famFaceFilter,001,4,
5,./img/gray_OmarEpps(DrEricForeman)2_2.png,0,8,8,4,,,1.ja,0.972,None,act,0.456,None,None,None,None,None,,['return'],[0.5501579660995048],2017_Jan_25_1502,59.9991339166,famFaceFilter,001,4,
16,./img/gray_JoshRadnor(Ted)1_2.png,0,9,9,15,,,1.ja,0.956,None,act,0.472,None,None,None,None,None,,['return'],[0.6000042983978346],2017_Jan_25_1502,59.9991339166,famFaceFilter,001,4,
48,./img/gray_LeonardoDiCaprio2_1.png,0,10,10,47,,,1.ja,1.039,None,dummy,0.523,None,None,None,None,None,Leonardo Di Caprio,"['lshift', 'l', 'e', 'o', 'n', 'a', 'r', 'd', 'o', 'space', 'lshift', 'd', 'i', 'space', 'lshift', 'c', 'a', 'p', 'r', 'i', 'o', 'return']","[0.8332738293975126, 0.9500850216572871, 1.200091356979101, 1.2999594860011712, 1.5164328691353148, 1.6499025963894383, 1.8664635513523535, 2.0330376741694636, 2.1492964902936365, 2.4661377713309776, 2.5660334870808583, 2.749196215740085, 2.8660433348995866, 3.1159919305609947, 3.249123559995496, 3.365591842793947, 3.632489275656553, 3.7653540195278765, 4.365419265352102, 4.4986830544658005, 4.665215155633632, 5.431498142224882]",2017_Jan_25_1502,59.9991339166,famFaceFilter,001,4,
13,./img/gray_NeilPatrickHarris(Barney)2_2.png,0,11,11,12,,,1.ja,1.182,None,dummy,0.473,None,None,None,None,None,,['return'],[0.7834348749529454],2017_Jan_25_1502,59.9991339166,famFaceFilter,001,4,
67,./img/gray_AngelaMerkel4_1.png,0,12,12,66,,,1.ja,1.139,None,None,None,None,None,polit,0.673,None,Angela Merkel,"['lshift', 'a', 'n', 'g', 'e', 'l', 'a', 'space', 'lshift', 'm', 'e', 'r', 'k', 'e', 'l', 'return']","[0.4501252790360013, 0.6169014906772645, 0.7165117158583598, 0.9500256781138887, 1.0832820893811004, 1.233198960300797, 1.3330285962110793, 1.5330564395626425, 1.8662345173506765, 2.032821791977767, 2.266140401694429, 2.4661076183983823, 2.582697475270834, 2.7159125064426917, 2.815800844346086, 3.3823905568715418]",2017_Jan_25_1502,59.9991339166,famFaceFilter,001,4,
27,./img/gray_LeonardoDiCaprio1_1.png,0,13,13,26,,,1.ja,1.105,None,dummy,0.756,None,None,None,None,None,Leonardo Di Caprio,"['lshift', 'l', 'e', 'o', 'n', 'a', 'r', 'd', 'o', 'space', 'lshift', 'd', 'i', 'space', 'c', 'backspace', 'lshift', 'c', 'a', 'p', 'r', 'i', 'o', 'return']","[0.5667533082414593, 0.9666479654333671, 1.1997535799418984, 1.333262121079315, 1.5831738275082898, 1.6996594322081364, 1.899617987961392, 2.116335160793824, 2.19951845119067, 2.449414760376385, 2.54939484019269, 2.699236649546947, 2.815971176358289, 3.2490728774027957, 3.5822689186425123, 4.282146157700481, 4.798501078290428, 4.881703615243168, 5.081772838686447, 5.398134238948842, 5.798033707775176, 5.881344025438011, 6.0812733905804635, 6.664311850650847]",2017_Jan_25_1502,59.9991339166,famFaceFilter,001,4,
55,./img/gray_Ice-T(OdafinFinTutuola)6_1.png,0,14,14,54,,,1.ja,1.083,None,None,None,music,0.839,None,None,None,Ice Cube,"['lshift', 'i', 'c', 'e', 'space', 'lshift', 'c', 'u', 'b', 'e', 'return']","[0.5833890681496996, 0.6835949742126104, 0.9834643221802253, 1.100003175681195, 1.2167187767154246, 1.4498914333926223, 1.6331058069736173, 1.883027136682358, 2.0828801571551594, 2.216197515848762, 2.8491576905544207]",2017_Jan_25_1502,59.9991339166,famFaceFilter,001,4,
46,./img/gray_GuentherJauch3_1.png,0,15,15,45,,,1.ja,1.139,None,None,None,host,0.655,None,None,None,Günther Jauch,"['lshift', 'g', u'\xfc', 'n', 't', 'h', 'e', 'r', 'space', 'lshift', 'j', 'a', 'u', 'c', 'h', 'return']","[0.6502730925785727, 0.8002178710048611, 1.1501741332067468, 1.4166032332286704, 1.616495067588403, 1.6998140461982985, 1.8498383770529472, 2.032972235880152, 2.083068131843902, 2.332941345161089, 2.3995456529883086, 3.0826937863457715, 3.182390941801714, 3.299253137429332, 3.432307780643896, 4.065528425398952]",2017_Jan_25_1502,59.9991339166,famFaceFilter,001,4,
28,./img/gray_GeorgeClooney4_2.png,0,16,16,27,,,1.ja,1.064,None,dummy,0.573,None,None,None,None,None,George Clooney,"['lshift', 'g', 'e', 'o', 'r', 'g', 'e', 'space', 'lshift', 'c', 'o', 'backspace', 'l', 'o', 'o', 'n', 'e', 'y', 'return']","[0.5336088156909682, 0.7161976762363338, 0.9835647250401962, 1.0500769701829995, 1.2999533912588959, 1.4499648910750693, 1.5329008632397745, 1.7830493022956944, 2.1330145462234213, 2.3496306746455957, 2.5662179332321102, 2.9660423404966423, 3.2158135470708658, 3.3825900794909103, 3.9155826846435957, 4.165520053145883, 4.3153961855241505, 4.5153069456646335, 5.065094415578642]",2017_Jan_25_1502,59.9991339166,famFaceFilter,001,4,
49,./img/gray_NeilPatrickHarris(Barney)1_1.png,0,17,17,48,,,1.ja,1.047,None,dummy,0.489,None,None,None,None,None,,['return'],[0.6336828828534635],2017_Jan_25_1502,59.9991339166,famFaceFilter,001,4,
11,./img/gray_EmilyDeschanel6_12.png,0,18,18,10,,,1.ja,1.006,None,dummy,0.473,None,None,None,None,None,,['return'],[0.8667961959799868],2017_Jan_25_1502,59.9991339166,famFaceFilter,001,4,
10,./img/gray_HughLaurie(DrHouse)2_1.png,0,19,19,9,,,1.ja,1.056,None,act,0.406,None,None,None,None,None,,['return'],[0.6003411131132452],2017_Jan_25_1502,59.9991339166,famFaceFilter,001,4,
45,./img/gray_NicoleKidman7_1.png,0,20,20,44,,,1.ja,1.006,None,act,0.506,None,None,None,None,None,Nicole Kidmann,"['lshift', 'n', 'i', 'o', 'backspace', 'c', 'o', 'l', 'e', 'space', 'lshift', 'k', 'i', 'd', 'm', 'a', 'n', 'n', 'return']","[0.7499660779467376, 1.1000577075865294, 1.3499636400483723, 1.5831664496618032, 2.1821744180560927, 2.365332014302112, 2.4652505051417393, 2.649207795751863, 2.7659590029106766, 2.898996003452339, 3.248850900465186, 3.582281108127063, 3.7655490512879624, 3.9153032888170856, 4.448543853755837, 4.581922480650974, 4.765225067611027, 4.881696237393044, 5.381526386547193]",2017_Jan_25_1502,59.9991339166,famFaceFilter,001,4,
63,./img/gray_JoshRadnor(Ted)3_1.png,0,21,21,62,,,1.ja,1.033,None,dummy,0.672,None,None,None,None,None,,['return'],[0.5666362250340171],2017_Jan_25_1502,59.9991339166,famFaceFilter,001,4,
72,./img/gray_WillSmith4_1.png,0,22,22,71,,,1.ja,0.873,None,act,0.489,None,None,None,None,None,Will Smith,"['lshift', 'w', 'i', 'l', 'l', 'space', 'lshift', 's', 'm', 'i', 't', 'h', 'return']","[0.716866494025453, 0.9001402111534844, 1.016547546529182, 1.2498462681433011, 1.3659248082003614, 1.5991208815175924, 1.6995596708984522, 1.7995275612265687, 1.8661710037195007, 2.049556671641767, 2.198925336517277, 2.3154577745008282, 2.8818768342389376]",2017_Jan_25_1502,59.9991339166,famFaceFilter,001,4,
17,./img/gray_JasonSegel(Marshall)6_1.png,0,23,23,16,,,1.ja,1.027,None,dummy,0.839,None,None,None,None,None,,['return'],[0.5166439396925853],2017_Jan_25_1502,59.9991339166,famFaceFilter,001,4,
29,./img/gray_UrsulavonderLeyen4_1.png,0,24,24,28,,,1.ja,1.006,None,None,None,None,None,polit,0.823,None,Vonderline,"['lshift', 'v', 'o', 'n', 'd', 'e', 'r', 'l', 'i', 'n', 'e', 'return']","[0.7334637608219055, 0.8336167388588365, 1.1167002037909697, 1.316457633038226, 1.499897191319178, 1.5997249025713245, 1.699534329600283, 1.7829235581375542, 1.9664061003895767, 2.1494876727410883, 2.266092285306513, 2.8325232137503917]",2017_Jan_25_1502,59.9991339166,famFaceFilter,001,4,
25,./img/gray_MariskaHargitay(Liv)8_8.png,0,25,25,24,,,1.ja,1.422,None,act,1.689,None,None,None,None,None,,['return'],[0.600165007130272],2017_Jan_25_1502,59.9991339166,famFaceFilter,001,4,
50,./img/gray_BastianSchweinsteiger3_1.png,0,26,26,49,,,1.ja,1.04,None,None,None,None,None,sport,0.957,None,Sebastian Schweinsteiger,"['lshift', 's', 'e', 'b', 'a', 's', 't', 'i', 'a', 'n', 'space', 'lshift', 's', 'c', 'h', 'w', 'e', 'i', 'n', 's', 't', 'e', 'i', 'g', 'e', 'r', 'return']","[0.9833603907827637, 1.1499024360055046, 1.6497935325787694, 2.582535162655404, 2.749377774911409, 2.9657007141431677, 3.0657908200992097, 3.748958841562853, 3.8487528713449137, 3.9989494588662637, 4.182191739957489, 4.215272398098023, 4.365311484645645, 4.5651147848511755, 4.63200779100589, 4.798308291959984, 4.96507071024098, 5.015099884807569, 5.431427571522363, 5.96461039679707, 6.097946360492642, 6.247743902771617, 7.013809403288178, 7.2641746868648625, 7.430742394160916, 7.497278376718896, 8.046981482570118]",2017_Jan_25_1502,59.9991339166,famFaceFilter,001,4,
21,./img/gray_HughLaurie(DrHouse)4_1.png,0,27,27,20,,,1.ja,1.233,None,act,0.489,None,None,None,None,None,,['return'],[0.5665377468249062],2017_Jan_25_1502,59.9991339166,famFaceFilter,001,4,
68,./img/gray_Ice-T(OdafinFinTutuola)7_1.png,0,28,28,67,,,1.ja,0.973,None,None,None,music,1.055,None,None,None,Ice Cube,"['lshift', 'i', 'c', 'e', 'space', 'lshift', 'c', 'u', 'b', 'e', 'return']","[0.7001960903180589, 0.783522446774441, 1.033234309805266, 1.1999312897969503, 1.316539751675009, 1.5327975733925996, 1.6831048286076111, 1.7995557895083039, 2.032817942665133, 2.1329064447418205, 2.6659680167140323]",2017_Jan_25_1502,59.9991339166,famFaceFilter,001,4,
52,./img/gray_EmilyDeschanel5_1.png,0,29,29,51,,,1.ja,1.022,None,dummy,0.473,None,None,None,None,None,,['return'],[0.5335350372297398],2017_Jan_25_1502,59.9991339166,famFaceFilter,001,4,
39,./img/gray_UrsulavonderLeyen1_1.png,0,30,30,38,,,1.ja,1.039,None,None,None,None,None,polit,0.789,None,Vonderline,"['lshift', 'v', 'o', 'n', 'e', 'backspace', 'd', 'e', 'r', 'l', 'i', 'n', 'e', 'return']","[1.0165853980870452, 1.1998754747874045, 1.4997505967221514, 1.733019806950324, 2.033046976670448, 2.449446517191973, 2.549381367603928, 2.6493617681953765, 2.7493251676605723, 3.398921743828396, 3.5989056408761826, 3.8321520760146086, 3.932019563482754, 4.598383738459233]",2017_Jan_25_1502,59.9991339166,famFaceFilter,001,4,
56,./img/gray_GuentherJauch2_1.png,0,31,31,55,,,1.ja,1.399,None,None,None,host,0.639,None,None,None,Günther Jauch,"['lshift', 'g', u'\xfc', 'n', 't', 'h', 'e', 'r', 'space', 'lshift', 'j', 'a', 'u', 'c', 'h', 'return']","[1.216605222038197, 1.3332213825378858, 1.8497113497905957, 2.1995963997396757, 2.3495068551419536, 2.482845064267167, 2.6494467738120875, 2.799251373162406, 2.8993434037729457, 3.09915472337525, 3.165805864489812, 3.348905400293006, 3.4322824393457267, 3.54882065129641, 3.648805542750779, 4.265272702836228]",2017_Jan_25_1502,59.9991339166,famFaceFilter,001,4,
20,./img/gray_WillSmith1_1.png,0,32,32,19,,,1.ja,1.216,None,act,1.156,None,None,None,None,None,Will Smith,"['lshift', 'w', 'i', 'l', 'l', 'lshift', 's', 'm', 'i', 't', 'h', 'backspace', 'backspace', 'backspace', 'backspace', 'backspace', 'backspace', u'\xf6', 'backspace', 'l', 'space', 'lshift', 's', 'm', 'i', 't', 'h', 'return']","[0.7661171454383293, 0.9326838904089527, 1.0326402328064432, 1.2492464171737083, 1.3826818214038212, 1.7329129885692964, 1.8995095656973717, 1.9829433820887061, 2.18282976325645, 2.3163402290520025, 2.415914848108514, 4.132060879419441, 4.298628586715495, 4.431647944580618, 4.54867822678716, 4.681846103903808, 4.814931862383673, 5.664738161845889, 6.047806518228754, 6.264627622462285, 6.631088767997426, 6.814250534331222, 6.914247615270142, 7.080879798526439, 7.347361505799199, 7.547365932507091, 7.663696923213138, 8.330315473493101]",2017_Jan_25_1502,59.9991339166,famFaceFilter,001,4,
24,./img/gray_JoachimLoew1_1.png,0,33,33,23,,,1.ja,1.049,None,None,None,None,None,sport,1.139,None,Jogi Löw,"['lshift', 'j', 'o', 'g', 'i', 'space', 'lshift', 'l', u'\xf6', 'w', 'return']","[1.133121364604449, 1.3832563310716068, 1.5830958789592842, 1.7664773767974111, 1.849734766430629, 2.116297630011104, 2.2994972479027638, 2.416295609120425, 2.599493302357587, 2.6993466756866837, 4.715172476397129]",2017_Jan_25_1502,59.9991339166,famFaceFilter,001,4,
26,./img/gray_BarackObama1_3.png,0,34,34,25,,,1.ja,1.349,None,None,None,None,None,polit,0.687,None,Obama,"['lshift', 'o', 'b', 'a', 'm', 'a', 'return']","[0.9167166275183263, 1.0166729699158168, 1.333188663396868, 1.4495719405786076, 1.5831321266414307, 1.6664530299058242, 2.199529999124934]",2017_Jan_25_1502,59.9991339166,famFaceFilter,001,4,
7,./img/gray_OmarEpps(DrEricForeman)1_5.png,0,35,35,6,,,1.ja,1.172,None,act,0.605,None,None,None,None,None,,['return'],[0.5336437802689034],2017_Jan_25_1502,59.9991339166,famFaceFilter,001,4,
38,./img/gray_MariskaHargitay(Liv)4_4.png,0,36,36,37,,,1.ja,0.973,None,act,0.706,None,None,None,None,None,,['return'],[1.0999428698087286],2017_Jan_25_1502,59.9991339166,famFaceFilter,001,4,
8,./img/gray_BastianSchweinsteiger6_2.png,0,37,37,7,,,1.ja,1.105,None,None,None,None,None,sport,0.872,None,Sebastian Schweinsteiger,"['lshift', 's', 'e', 'b', 's', 't', 'backspace', 'backspace', 'a', 's', 't', 'i', 'a', 'n', 'space', 'lshift', 's', 'c', 'h', 'w', 'e', 'i', 'n', 's', 't', 'e', 'i', 'g', 'e', 'r', 'return']","[0.9666822884537396, 1.149813901847665, 1.3833634702277777, 1.5331610125067527, 1.7163673666946124, 1.849789939889888, 2.599494585461798, 2.7492664656674606, 2.8827076438647055, 3.5654830356033926, 3.6322316925943596, 3.917112464998354, 4.015727964055259, 4.165425424249406, 4.448585554626334, 4.548601240567223, 4.681828140452126, 4.881811395945988, 4.948357001783734, 5.131744273585355, 5.298350473993196, 5.764810304346611, 5.998076948366361, 6.464420978616545, 6.664427650754078, 7.114289893535897, 7.197301889591472, 7.447513842282206, 7.514045654752408, 7.613822683411854, 8.313823741969827]",2017_Jan_25_1502,59.9991339166,famFaceFilter,001,4,
3,./img/gray_KatjaBurkard1_1.png,0,38,38,2,,,1.ja,1.25,None,None,None,host,0.739,None,None,None,Burkhardt,"['lshift', 'b', 'u', 'r', 'k', 'h', 'a', 'r', 'd', 't', 'return']","[0.6332860830407299, 0.7500931052090891, 0.9499855811191082, 1.1167377345700515, 1.2329789080176852, 2.0497148141694197, 2.149495050587575, 2.4160518194221368, 2.5826285084440315, 2.6826836498257762, 3.365678131518507]",2017_Jan_25_1502,59.9991339166,famFaceFilter,001,4,
36,./img/gray_TomCruise5_1.png,0,39,39,35,,,1.ja,1.222,None,act,0.439,None,None,None,None,None,Tom Cruise,"['lshift', 't', 'o', 'm', 'space', 'lshift', 'c', 'u', 'r', 'i', 'backspace', 'backspace', 'backspace', 'r', 'i', 'u', 'backspace', 'backspace', 'u', 'i', 's', 'e', 'return']","[0.8002095308293065, 0.9331214287594776, 1.233280116608512, 1.499906814595306, 1.7330736973017338, 1.8663195229673875, 2.0162979828637617, 2.449440101670916, 2.6325922447285848, 2.782706072062865, 3.1991864481133234, 3.348710047757777, 3.4657165925491427, 3.932151723158313, 4.098676767258439, 4.482024519467814, 5.014890097358148, 5.1650430593545025, 5.61488862178885, 5.781133949287323, 5.864647638878523, 6.047757439515408, 6.547651102297095]",2017_Jan_25_1502,59.9991339166,famFaceFilter,001,4,
6,./img/gray_NicoleKidman3_1.png,0,40,40,5,,,1.ja,1.169,None,dummy,0.656,None,None,None,None,None,Nicole Kidmann,"['lshift', 'lshift', 'n', 'i', 'c', 'o', 'l', 'e', 'space', 'lshift', 'l', 'backspace', 'lshift', 'k', 'i', 'd', 'm', 'a', 'n', 'n', 'return']","[0.8667522496834863, 1.249797830980242, 1.3664348419115413, 1.6164065334378392, 2.1328948968111945, 2.249535115501203, 2.465976741823397, 2.5824440622964175, 2.7326666326662234, 3.065828030106786, 3.1824243025002943, 3.615814060314733, 3.782303177511494, 3.915466884540365, 4.098799303661508, 4.2319463303429075, 4.648529354686616, 4.781858582089626, 4.9317048823068035, 5.04834510100045, 5.614631359505438]",2017_Jan_25_1502,59.9991339166,famFaceFilter,001,4,
62,./img/gray_LisaEdelstein(DrLisaCuddy)1_1.png,0,41,41,61,,,1.ja,1.067,None,act,1.406,None,None,None,None,None,,['return'],[0.6000126385697513],2017_Jan_25_1502,59.9991339166,famFaceFilter,001,4,
9,./img/gray_RobertSeanLeonard(Wilson)8_1.png,0,42,42,8,,,1.ja,1.256,None,act,0.49,None,None,None,None,None,,['return'],[0.666825771520962],2017_Jan_25_1502,59.9991339166,famFaceFilter,001,4,
22,./img/gray_GuentherJauch4_1.png,0,43,43,21,,,1.ja,1.072,None,None,None,host,0.839,None,None,None,Günther Jauch,"['lshift', 'g', u'\xfc', 'n', 't', 'h', 'e', 'r', 'space', 'lshift', 'j', 'a', 'u', 'c', 'h', 'return']","[0.8500949977897108, 0.9666415499123104, 1.3331524157147214, 1.6496918466145871, 1.8347596634557704, 1.933006911760458, 2.0992413328749535, 2.2662093685175932, 2.3329381374023797, 2.5494118413153046, 2.649287668959005, 2.8490444566559745, 2.8993661788626923, 3.0823322718861164, 3.1990619870593946, 3.782065482555481]",2017_Jan_25_1502,59.9991339166,famFaceFilter,001,4,
43,./img/gray_LisaEdelstein(DrLisaCuddy)6_3.png,0,44,44,42,,,1.ja,1.238,None,act,0.522,None,None,None,None,None,,['return'],[1.016922533577599],2017_Jan_25_1502,59.9991339166,famFaceFilter,001,4,
69,./img/gray_OmarEpps(DrEricForeman)3_1.png,0,45,45,68,,,1.ja,1.022,None,act,0.723,None,None,None,None,None,,['return'],[0.6003237912118493],2017_Jan_25_1502,59.9991339166,famFaceFilter,001,4,
18,./img/gray_JasonSegel(Marshall)7_1.png,0,46,46,17,,,1.ja,1.105,None,dummy,0.439,None,None,None,None,None,,['return'],[0.6167443104750419],2017_Jan_25_1502,59.9991339166,famFaceFilter,001,4,
14,./img/gray_JoshRadnor(Ted)6_2.png,0,47,47,13,,,1.ja,0.989,None,dummy,0.473,None,None,None,None,None,,['return'],[0.6335638749842474],2017_Jan_25_1502,59.9991339166,famFaceFilter,001,4,
66,./img/gray_NeilPatrickHarris(Barney)3_7.png,0,48,48,65,,,1.ja,1.104,None,act,0.539,None,None,None,None,None,,['return'],[0.6669669129260001],2017_Jan_25_1502,59.9991339166,famFaceFilter,001,4,
60,./img/gray_EmilyDeschanel3_1.png,0,49,49,59,,,1.ja,1.272,None,dummy,0.523,None,None,None,None,None,,['return'],[0.6333759002991428],2017_Jan_25_1502,59.9991339166,famFaceFilter,001,4,
12,./img/gray_BarackObama2_1.png,0,50,50,11,,,1.ja,1.239,None,None,None,None,None,polit,0.689,None,Barack Obama,"['lshift', 'o', 'n', 'backspace', 'b', 'backspace', 'backspace', 'lshift', 'b', 'a', 'r', 'a', 'c', 'k', 'space', 'lshift', 'o', 'n', 'a', 'backspace', 'backspace', 'b', 'a', 'm', 'a', 'return']","[0.7334515713337169, 0.85011456511711, 1.1166132735124847, 1.4998907757981215, 2.182764004191995, 2.6158288160040684, 2.76612067397582, 3.182483004489768, 3.348837716574053, 3.9154575820357422, 4.181972970778588, 4.398624705325346, 4.58177171596617, 4.731959000986535, 5.265002930285846, 5.414808491965232, 5.531548792743706, 5.781200670677208, 5.964770784754364, 6.74771647642774, 6.880866390092706, 7.147478332386527, 7.3139584678574465, 7.413906790858164, 7.530478363503789, 8.096969918595278]",2017_Jan_25_1502,59.9991339166,famFaceFilter,001,4,
15,./img/gray_GeorgeClooney11_1.png,0,51,51,14,,,1.ja,1.466,None,dummy,0.505,None,None,None,None,None,George Clooney,"['lshift', 'g', 'e', 'o', 'r', 'g', 'e', 'space', 'lshift', 'c', 'l', 'l', 'o', 'n', 'e', 'y', 'backspace', 'backspace', 'backspace', 'backspace', 'backspace', 'o', 'o', 'n', 'e', 'y', 'return']","[0.6167138367673033, 1.1333160755893914, 1.4165900814150518, 1.5163850735261803, 1.6662929627236736, 1.8330213787521643, 1.9329254346739617, 2.132887839736213, 2.399131531277817, 2.582732439845131, 2.8158268271945417, 2.94921443581552, 3.1322308906565013, 3.3657345880819776, 3.448982033660286, 3.648945721826749, 4.231976162500359, 4.398598401701747, 4.5319260252254026, 4.665162227607652, 4.7984548865570105, 5.414722844794596, 5.581474035916472, 6.331237704256637, 6.497589529360994, 7.014241488450352, 7.6970836015825626]",2017_Jan_25_1502,59.9991339166,famFaceFilter,001,4,
37,./img/gray_TomCruise1_1.png,0,52,52,36,,,1.ja,1.116,None,act,0.439,None,None,None,None,None,Tom Cruise,"['lshift', 't', 'o', 'm', 'space', 'lshift', 'c', 'r', 'u', 'i', 's', 'e', 'return']","[0.9168160680528672, 1.1165914607518062, 1.466600009433023, 1.7165797203560942, 1.933017497365654, 2.133041491404583, 2.2496602181090566, 2.832813515957241, 3.9654867566059693, 4.232196535554976, 4.415353811025852, 4.698605683315691, 5.148499041362811]",2017_Jan_25_1502,59.9991339166,famFaceFilter,001,4,
65,./img/gray_KatjaBurkard5_3.png,0,53,53,64,,,1.ja,1.167,None,None,None,host,0.754,None,None,None,Burkhardt,"['lshift', 'b', 'u', 'r', 'k', 'h', 'a', 'r', 'd', 't', 'return']","[0.6835199126471707, 0.9168904880643822, 1.1831784466812678, 1.3665583406400401, 1.483367929016822, 2.166292802336102, 2.316300132064498, 2.632694893025473, 2.8160712584467547, 2.982685157476226, 3.782314725445758]",2017_Jan_25_1502,59.9991339166,famFaceFilter,001,4,
59,./img/gray_AlysonHannigan(Lily)5_4.png,0,54,54,58,,,1.ja,1.137,None,dummy,0.472,None,None,None,None,None,,['return'],[0.700143162295717],2017_Jan_25_1502,59.9991339166,famFaceFilter,001,4,
1,./img/gray_JoachimLoew8_1.png,0,55,55,0,,,1.ja,1.055,None,None,None,None,None,sport,0.789,None,Jogi Löw,"['lshift', 'j', 'o', 'g', 'i', 'space', 'lshift', 'l', u'\xf6', 'w', 'return']","[0.8165854622420738, 0.9166893615620211, 1.1165141537567251, 1.2996903550047136, 1.3999183946070843, 1.6163641910134174, 1.8162258724369167, 1.9496689752922975, 2.132890726719779, 2.2660987008239317, 2.91594740686196]",2017_Jan_25_1502,59.9991339166,famFaceFilter,001,4,
33,./img/gray_KatjaBurkard4_1.png,0,56,56,32,,,1.ja,1.255,None,None,None,host,0.655,None,None,None,Burkhardt,"['lshift', 'b', 'u', 'r', 'k', 'h', 'a', 'r', 'd', 't', 'return']","[0.6335224948925315, 0.7168944015284069, 0.9667146868196141, 1.1167021284418297, 1.266418835191871, 2.0496355825162027, 2.449525748841552, 2.9326351324671123, 3.1159220014087623, 3.2990805599838495, 4.148719414417428]",2017_Jan_25_1502,59.9991339166,famFaceFilter,001,4,
32,./img/gray_MariskaHargitay(Liv)6_5.png,0,57,57,31,,,1.ja,1.149,None,act,0.455,None,None,None,None,None,,['return'],[0.550204478608066],2017_Jan_25_1502,59.9991339166,famFaceFilter,001,4,
23,./img/gray_TomCruise4_1.png,0,58,58,22,,,1.ja,1.005,None,act,0.456,None,None,None,None,None,Tom Cruise,"['lshift', 't', 'o', 'm', 'space', 'lshift', 'c', 'u', 'backspace', 'r', 'u', 'i', 's', 'e', 'return']","[0.5669111299939686, 0.750045630375098, 1.083034450373816, 1.2999290122897946, 1.4998644721745222, 1.6495462143502664, 2.166251422240748, 2.4327421112393495, 3.015955073409714, 3.249241284760501, 3.3657095675589517, 3.5654025208496023, 3.6656437122655916, 3.8487875151477056, 4.331941486623691]",2017_Jan_25_1502,59.9991339166,famFaceFilter,001,4,
30,./img/gray_BarackObama4_1.png,0,59,59,29,,,1.ja,1.133,None,None,None,None,None,polit,0.672,None,Barack Obama,"['lshift', 'b', 'a', 'r', 'a', 'c', 'k', 'space', 'lshift', 'o', 'b', 'a', 'm', 'a', 'return']","[0.533398065916117, 0.7168571915244684, 1.3999495098723855, 1.6665178266412113, 1.899677973055077, 2.06620269638006, 2.216120208850043, 2.499441047963046, 2.616024810093222, 2.7659076787676895, 2.9824112148417043, 3.1490944014658453, 3.282396362916188, 3.382313570651604, 3.9650505013560178]",2017_Jan_25_1502,59.9991339166,famFaceFilter,001,4,
44,./img/gray_BritneySpears5_1.png,0,60,60,43,,,1.ja,1.489,None,None,None,music,0.605,None,None,None,Britney Spears,"['lshift', 'b', 'r', 'i', 't', 'n', 'e', 'y', 'space', 'lshift', 's', 'p', 'e', 'r', 'backspace', 'a', 'r', 's', 'return']","[1.1164718113359413, 1.1994828450660862, 1.483070248963486, 1.5828132753777027, 1.7996962893594173, 2.0327467304123275, 2.116258174573886, 2.349584482915816, 2.4826843555347295, 2.6493919211316097, 2.799426516812673, 2.932568090302084, 3.115802031217754, 3.382366498677584, 3.99856613164593, 4.0988204748719, 4.3320306623281795, 4.531994992048567, 5.098469866792584]",2017_Jan_25_1502,59.9991339166,famFaceFilter,001,4,
51,./img/gray_AlysonHannigan(Lily)1_1.png,0,61,61,50,,,1.ja,1.049,None,act,0.422,None,None,None,None,None,,['return'],[0.5500415244423493],2017_Jan_25_1502,59.9991339166,famFaceFilter,001,4,
71,./img/gray_BritneySpears7_1.png,0,62,62,70,,,1.ja,1.239,None,None,None,music,0.838,None,None,None,Britney Spears,"['lshift', 'b', 'r', 'i', 't', 'n', 'e', 'y', 'space', 'lshift', 's', 'p', 'e', 'a', 'r', 's', 'return']","[1.2667556499072816, 1.3665387733090029, 1.6497239242053183, 1.733020769279392, 1.9663188493359485, 2.21623697128598, 2.266226690415351, 2.4661316765887022, 2.64933995543106, 3.048859946346056, 3.2158154717290017, 3.7822066239568812, 3.932151723158313, 4.448711298784474, 4.731828765965474, 4.965132299214019, 5.848140189340484]",2017_Jan_25_1502,59.9991339166,famFaceFilter,001,4,
57,./img/gray_UrsulavonderLeyen5_1.png,0,63,63,56,,,1.ja,1.133,None,None,None,None,None,polit,0.789,None,Vonderline,"['lshift', 'v', 'b', 'backspace', 'o', 'n', 'd', 'e', 'r', 'l', 'i', 'n', 'e', 'return']","[0.5169194862064614, 0.7171314549341332, 1.4833310397843888, 2.0160464945438434, 2.232959340690286, 2.432583327157772, 2.5494070296736027, 2.6493569565536745, 2.7494047200889327, 2.9492747416879865, 3.1659264762347448, 3.249030534978374, 3.8155435820590355]",2017_Jan_25_1502,59.9991339166,famFaceFilter,001,4,
53,./img/gray_Ice-T(OdafinFinTutuola)5_1.png,0,64,64,52,,,1.ja,1.256,None,None,None,music,0.539,None,None,None,Ice Cube,"['lshift', 'i', 'c', 'e', 'space', 'lshift', 'c', 'u', 'b', 'e', 'return']","[0.5670420065689541, 0.650361305957631, 0.9169148670334835, 1.0669507458187582, 1.1833827809423383, 1.41656794787923, 1.516565349593293, 1.833026831944153, 2.016257565097476, 2.149653513890371, 2.6827022548313835]",2017_Jan_25_1502,59.9991339166,famFaceFilter,001,4,
54,./img/gray_LeonardoDiCaprio3_1.png,0,65,65,53,,,1.ja,1.838,None,act,0.689,None,None,None,None,None,Leonardo Di Caprio,"['lshift', 'l', 'e', 'o', 'n', 'a', 'r', 'd', 'o', 'space', 'lshift', 'd', 'i', 'space', 'lshift', 'c', 'a', 'p', 'r', 'i', 'o', 'return']","[0.8333514571713749, 0.9833943930279929, 1.2165898247949372, 1.3164970884790819, 1.5164421716399374, 1.63310837318204, 1.832949524945434, 2.0494790438715427, 2.149602189743746, 2.4661281480548496, 2.5992729293029697, 2.715992058871052, 2.81594487273469, 3.082470205532445, 3.1823556564486353, 3.3990654514382186, 3.682201202846045, 3.848799383853475, 4.215380178808118, 4.29840725133181, 4.481796127016423, 5.164834234234149]",2017_Jan_25_1502,59.9991339166,famFaceFilter,001,4,
41,./img/gray_RobertSeanLeonard(Wilson)1_1.png,0,66,66,40,,,1.ja,1.099,None,act,0.489,None,None,None,None,None,,['return'],[0.5335873237054329],2017_Jan_25_1502,59.9991339166,famFaceFilter,001,4,
42,./img/gray_NicoleKidman5_1.png,0,67,67,41,,,1.ja,2.639,None,dummy,0.656,None,None,None,None,None,Nicole Kidmann,"['lshift', 'n', 'i', 'c', 'o', 'l', 'e', 'space', 'lshift', 'k', 'i', 'd', 'm', 'a', 'n', 'n', 'pound', 'return']","[0.9000497523447848, 1.000138254421472, 1.2163502051844262, 1.3498334050273115, 1.4664941533774254, 1.649713017824979, 1.7824616408142901, 1.932934416399803, 2.2494183530652663, 2.349505251262599, 2.515951063709508, 2.649428810360405, 2.7824879444378894, 3.082429466987378, 3.2656762389415235, 3.432416844454565, 3.9155226995462726, 5.065051431607571]",2017_Jan_25_1502,59.9991339166,famFaceFilter,001,4,
70,./img/gray_WillSmith5_1.png,0,68,68,69,,,1.ja,1.066,None,dummy,0.573,None,None,None,None,None,Will Smith,"['lshift', 'w', 'i', 'l', 'l', 'space', 'lshift', 's', 'm', 'i', 't', 'h', 'return']","[0.4002029228468018, 0.6000745483252103, 0.7501110686607717, 0.9334149387286743, 1.0832541818745085, 1.3164460851076, 1.4498561480395438, 1.5497236355076893, 1.7330695272175944, 1.96625854346712, 2.1162408526761283, 2.199496317654848, 2.865875569095806]",2017_Jan_25_1502,59.9991339166,famFaceFilter,001,4,
58,./img/gray_GeorgeClooney3_1.png,0,69,69,57,,,1.ja,1.105,None,dummy,0.573,None,None,None,None,None,George Clooney,"['lshift', 'g', 'e', 'o', 'r', 'g', 'e', 'space', 'lshift', 'c', 'l', 'o', 'o', 'n', 'e', 's', 'backspace', 'y', 'return']","[0.7668379289316363, 1.066415370813047, 1.316255544210435, 1.4497916720793, 1.5997791137015156, 1.8162354957166826, 1.932861921042786, 2.116283195096912, 2.3160925900447182, 2.5159792919912434, 2.6825970403297106, 2.949200963226758, 3.0657160793089133, 3.2820925881205767, 3.382368744107225, 3.8652798882176285, 4.581802189681184, 4.715265180639108, 5.048383273333457]",2017_Jan_25_1502,59.9991339166,famFaceFilter,001,4,
4,./img/gray_AngelaMerkel1_1.png,0,70,70,3,,,1.ja,1.049,None,None,None,None,None,polit,0.655,None,Angela Merkel,"['lshift', 'a', 'n', 'g', 'e', u'\xf6', 'a', 'n', 'backspace', 'backspace', 'backspace', u'\xf6', 'a', 'backspace', 'backspace', 'l', 'a', 'space', 'lshift', 'm', 'e', 'k', 'r', 'e', 'backspace', 'backspace', 'backspace', 'r', 'k', 'e', 'l', 'return']","[0.40021350845199777, 0.5831584302650299, 0.6501540847129945, 0.9001071712336852, 1.0165764163612039, 1.2166886237791914, 1.2999116903920367, 1.4664951157064934, 1.849562830539071, 1.9830206890837871, 2.116249192848045, 2.6493425216394826, 2.7509053098365257, 3.0325160925276577, 3.199279793909227, 3.465560374679626, 3.56561198752388, 3.9488304670412617, 4.132070181924064, 4.232091962607228, 4.46520976660031, 4.581917348237766, 4.681763985270663, 4.898480837327952, 5.398319005878875, 5.531436841949471, 5.7980343493291, 5.998008623100759, 6.414526209158794, 6.5144411714609305, 6.6311330350763455, 7.38074433485599]",2017_Jan_25_1502,59.9991339166,famFaceFilter,001,4,
31,./img/gray_AngelaMerkel3_1.png,0,71,71,30,,,1.ja,1.864,None,None,None,None,None,polit,0.738,None,Angela Merkel,"['lshift', 'a', 'n', 'g', 'e', 'l', 'a', 'space', 'lshift', 'm', 'e', 'r', 'k', 'e', 'l', 'return']","[0.5835834583558608, 0.7666663138115837, 0.9334396384729189, 1.150066031721508, 1.2999440887579112, 1.449894961922837, 1.5664957251792657, 2.166512213061651, 2.482499267825915, 2.616178461757954, 2.799354021455656, 2.966796805456397, 3.0658023680298356, 3.1992862094266457, 3.2992486465664115, 4.0822318690225075]",2017_Jan_25_1502,59.9991339166,famFaceFilter,001,4,
