num,pic,trials.thisRepN,trials.thisTrialN,trials.thisN,trials.thisIndex,key_resp_2.keys,key_resp_2.rt,ratingBekannt.response,ratingBekannt.rt,key_resp_5.keys,key_resp_5.rt,ratingK1.response,ratingK1.rt,ratingK2.response,ratingK2.rt,ratingK3.response,ratingK3.rt,key_resp_6.keys,key_resp_6.rt,inputText,key_resp_4.keys,key_resp_4.rt,date,frameRate,expName,session,participant,
,,,,,,space,18.5574222576,,,,,,,,,,,,,,,,2017_Jan_26_1056,60.0366871062,famFaceFilter,001,5,
15,./img/smoo15_LisaEdelstein(DrLisaCuddy)1_1.png,0,0,0,14,,,None,None,1,5.89832494023,None,None,None,None,None,None,1,0.933224077055,,['return'],[0.2503684913363031],2017_Jan_26_1056,60.0366871062,famFaceFilter,001,5,
32,./img/smoo15_TomCruise1_1.png,0,1,1,31,,,None,None,1,4.71521578115,None,None,None,None,None,None,1,0.167042134879,Tom Cruise,"['lshift', 't', 'o', 'm', 'space', 'lshift', 'c', 'r', 'u', 'i', 's', 'e', 'return']","[0.4503305756234113, 0.6835455747204833, 1.0666787278414631, 1.2666228486768887, 1.4497637645754367, 1.6164899351751956, 1.8163769578959545, 2.0497074363238426, 2.266193008946175, 2.416137145819448, 2.66610370492981, 2.866061939905194, 3.5823568112436988]",2017_Jan_26_1056,60.0366871062,famFaceFilter,001,5,
64,./img/smoo15_JoachimLoew8_1.png,0,2,2,63,,,None,None,1,1.49976374854,None,None,None,None,None,None,5,0.283518116301,Joachim Löw,"['lshift', 'j', 'o', 'a', 'c', 'h', 'i', 'm', 'space', 'lshift', 'l', u'\xf6', 'w', 'return']","[0.8001569235793795, 1.416447336132478, 1.633174132244676, 1.716448202227184, 1.8498258667923437, 1.9498232685073162, 2.0663476870931845, 2.182855425330672, 2.316390590872288, 2.432928482046009, 2.6161242506268536, 2.7995073523443352, 3.0659605105593073, 3.432420372991146]",2017_Jan_26_1056,60.0366871062,famFaceFilter,001,5,
28,./img/smoo15_HughLaurie(DrHouse)5_3.png,0,3,3,27,,,None,None,1,1.13324101402,None,None,None,None,None,None,1,0.133643267026,,['return'],[0.40018912948198704],2017_Jan_26_1056,60.0366871062,famFaceFilter,001,5,
53,./img/smoo15_GuentherJauch4_1.png,0,4,4,52,,,None,None,1,1.36644125743,None,None,None,None,None,None,3,0.100372709539,Günther Jauch,"['lshift', 'g', u'\xfc', 'n', 't', 'h', 'e', 'r', 'space', 'lshift', 'j', 'a', 'u', 'c', 'h', 'return']","[0.4172053296279046, 1.0334020756126847, 1.4332617682266573, 1.6833049927809043, 1.8164103185918066, 1.916536672226357, 1.9999031256729722, 2.083136457114051, 2.166483664005682, 2.366314230165699, 2.5659257063734913, 2.6827866188968983, 2.8160359730945856, 2.8992898341948603, 2.9826707225574864, 3.3656287320272895]",2017_Jan_26_1056,60.0366871062,famFaceFilter,001,5,
9,./img/smoo15_EmilyDeschanel6_12.png,0,5,5,8,,,None,None,1,1.58272313734,None,None,None,None,None,None,1,0.150294424177,,['return'],[0.4502827800106388],2017_Jan_26_1056,60.0366871062,famFaceFilter,001,5,
59,./img/smoo15_JoshRadnor(Ted)1_2.png,0,6,6,58,,,None,None,1,1.4831190069,None,None,None,None,None,None,1,0.133292338171,,['return'],[0.38374006115918746],2017_Jan_26_1056,60.0366871062,famFaceFilter,001,5,
71,./img/smoo15_AngelaMerkel1_1.png,0,7,7,70,,,None,None,1,1.43339456946,None,None,None,None,None,None,4,0.283649634427,Angela Merkel,"['lshift', 'a', 'n', 'g', 'e', 'l', 'a', 'space', 'lshift', 'm', 'e', 'r', 'k', 'e', 'l', 'return']","[0.6170067051789374, 0.9165799769743899, 1.1167114309464523, 1.2999845065232876, 1.3999097336563864, 1.5666147330457534, 1.6997864594713974, 1.7997938052394602, 1.899343724548089, 1.9996599775267896, 2.2326068079555625, 2.282632133214065, 2.4328219844419436, 2.532777043735223, 3.4990471351338783, 4.231839191183099]",2017_Jan_26_1056,60.0366871062,famFaceFilter,001,5,
66,./img/smoo15_NicoleKidman3_1.png,0,8,8,65,,,None,None,1,7.79741300637,None,None,None,None,None,None,1,0.200124396902,Nicole Kidman,"['lshift', 'n', 'i', 'c', 'o', 'l', 'e', 'space', 'lshift', 'k', 'i', 'd', 'm', 'a', 'n', 'return']","[0.533611061123338, 0.7335635221324992, 0.8499907456152869, 0.9668086741658044, 1.1333767022379106, 1.3164768795950295, 1.3998712405464175, 1.533156842423523, 1.6830753172234836, 2.0161231599895473, 2.166277725865257, 2.2828586010127765, 2.4162045087623483, 2.5160367108792343, 2.5993383675904624, 2.8491378024473306]",2017_Jan_26_1056,60.0366871062,famFaceFilter,001,5,
10,./img/smoo15_KatjaBurkard5_3.png,0,9,9,9,,,None,None,1,1.34977759002,None,None,None,None,None,None,3,0.150116714318,Katja Burkhard,"['lshift', 'k', 'a', 't', 'j', 'a', 'space', 'lshift', 'b', 'u', 'r', 'k', 'h', 'a', 'r', 'd', 'return']","[0.317024764863163, 0.48366111820541846, 0.6169736652591382, 0.7668055305621237, 1.2497285433792058, 1.3834042087728449, 1.4997672770714416, 1.6164398941309628, 1.8163737501372452, 1.9995582915607883, 2.1496990640725926, 2.666039870521672, 2.8493183992895865, 2.982645060484174, 3.2137705252480373, 3.3825223957728667, 4.065587448166298]",2017_Jan_26_1056,60.0366871062,famFaceFilter,001,5,
52,./img/smoo15_BastianSchweinsteiger3_1.png,0,10,10,51,,,None,None,1,1.34989082392,None,None,None,None,None,None,5,0.15036018324,Bastian Schweinsteiger,"['lshift', 'b', 'a', 's', 't', 'i', 'a', 'n', 'space', 'lshift', 's', 'c', 'h', 'w', 'e', 'i', 'n', 's', 't', 'e', 'i', 'g', 'e', 'r', 'return']","[0.30032420822044514, 0.7667708867620604, 0.9169450199697167, 0.9668000132160159, 1.0831781579827293, 1.2833657477394809, 1.3999815874622072, 1.483478596707755, 1.6166288311469543, 1.6997511741201379, 1.866467400665897, 2.03307809193484, 2.133123930813781, 2.2496108186169295, 2.3162080693746248, 2.382904119115665, 2.466127506502744, 2.5995054918439564, 2.699077223915083, 2.832647995583102, 2.9492144358146106, 3.0989683525685905, 3.199151162763883, 3.3159222580316055, 3.832205004039679]",2017_Jan_26_1056,60.0366871062,famFaceFilter,001,5,
69,./img/smoo15_BritneySpears5_1.png,0,11,11,68,,,None,None,1,1.3835450294,None,None,None,None,None,None,2,0.150315916163,Britney Spears,"['lshift', 'b', 'r', 'i', 't', 'n', 'e', 'y', 'space', 'lshift', 's', 'p', 'e', 'a', 'r', 's', 'return']","[0.26705268840669305, 0.9501318549409916, 1.1499864792949666, 1.2832752889307812, 1.3998577679576556, 1.7497460256663544, 1.8496722151276117, 2.2662289358486305, 2.4328899889369495, 2.5325794457703523, 2.699468570535828, 2.8326621097239695, 2.9492808364293523, 3.1325183058797847, 3.332296585565018, 3.5154913918177044, 4.08210740796676]",2017_Jan_26_1056,60.0366871062,famFaceFilter,001,5,
46,./img/smoo15_NeilPatrickHarris(Barney)1_1.png,0,12,12,45,,,None,None,1,1.14995664713,None,None,None,None,None,None,1,0.200197854587,Neil Patrick Harris,"['lshift', 'n', 'e', 'i', 'l', 'space', 'lshift', 'p', 'a', 't', 'r', 'i', 'c', 'k', 'space', 'lshift', 'h', 'a', 'r', 'r', 'i', 's', 'return']","[0.3336698272723879, 0.6000986065173493, 0.7666971083017415, 0.8501184144306535, 0.9998646325630034, 1.1332339569544274, 1.2333949543872222, 1.516505043719917, 1.6664026680855386, 1.9162450869162058, 2.0828747039640803, 2.2161477955796727, 2.3162513741244766, 2.4328287207363246, 2.5494160114021724, 2.6323705885697564, 2.7828693470064536, 2.8824606464086173, 3.0992480691693345, 3.2491957345782794, 3.3655972959877545, 3.5156071919245733, 4.19875789148864]",2017_Jan_26_1056,60.0366871062,famFaceFilter,001,5,
6,./img/smoo15_AlysonHannigan(Lily)1_1.png,0,13,13,5,,,None,None,1,1.29993061617,None,None,None,None,None,None,1,0.133244863336,,['return'],[0.2171027454887735],2017_Jan_26_1056,60.0366871062,famFaceFilter,001,5,
61,./img/smoo15_OmarEpps(DrEricForeman)3_1.png,0,14,14,60,,,None,None,1,0.999960865338,None,None,None,None,None,None,1,0.133765161874,,['return'],[0.40029851406961825],2017_Jan_26_1056,60.0366871062,famFaceFilter,001,5,
27,./img/smoo15_JasonSegel(Marshall)9_1.png,0,15,15,26,,,None,None,1,1.53316389949,None,None,None,None,None,None,1,0.367204062562,Jason Segal,"['lshift', 'j', 'a', 's', 'o', 'n', 'space', 'lshift', 's', 'e', 'g', 'a', 'l', 'return']","[0.41697757872589136, 0.9334806977904009, 1.0332137801487988, 1.1166382940364201, 1.1833827809414288, 1.333074146391482, 1.499865113726628, 1.524993736849865, 1.7323599708861366, 1.9158816478002336, 2.116246947415675, 2.2322594076358655, 2.349469003583181, 3.1326142178795635]",2017_Jan_26_1056,60.0366871062,famFaceFilter,001,5,
14,./img/smoo15_BritneySpears7_1.png,0,16,16,13,,,None,None,1,5.41456502304,None,None,None,None,None,None,2,0.150296990384,Britney Spears,"['lshift', 'b', 'r', 'i', 't', 'h', 'backspace', 'n', 'e', 'y', 'space', 'lshift', 's', 'p', 'e', 'a', 'r', 's', 'return']","[0.25030465692907455, 0.483684855624233, 0.6835057985063031, 0.8333678167446124, 0.9502033879716691, 1.033267028951741, 1.3996078835180015, 1.6164540082718304, 1.7330676025630964, 2.099698759335297, 2.2162013651586676, 2.3161557829007506, 2.449568412041117, 2.5827683667475867, 2.6825941533461446, 2.849289208681512, 3.0321276328886597, 3.215678179635688, 3.7487355815237606]",2017_Jan_26_1056,60.0366871062,famFaceFilter,001,5,
34,./img/smoo15_EmilyDeschanel5_1.png,0,17,17,33,,,None,None,1,1.54975731698,None,None,None,None,None,None,1,0.100268778142,,['return'],[0.43356618457255536],2017_Jan_26_1056,60.0366871062,famFaceFilter,001,5,
20,./img/smoo15_NicoleKidman5_1.png,0,18,18,19,,,None,None,1,1.59911927764,None,None,None,None,None,None,1,0.117679211892,Nicole Kidman,"['lshift', 'n', 'i', 'c', 'o', 'l', 'e', 'space', 'lshift', 'k', 'i', 'd', 'm', 'a', 'n', 'return']","[0.2663123375868963, 0.4003148736410367, 0.5170327201058171, 0.6003388676799659, 0.7836305482605894, 0.9333289707810764, 1.05018956252934, 1.1501657930330111, 1.333116168036213, 1.4666798826347076, 1.6829437990963925, 1.8331182530801016, 1.9830604652979673, 2.099236842012033, 2.1494546328221986, 2.699441946134357]",2017_Jan_26_1056,60.0366871062,famFaceFilter,001,5,
35,./img/smoo15_KatjaBurkard1_1.png,0,19,19,34,,,None,None,1,1.23323873651,None,None,None,None,None,None,3,0.150171887776,Katja Burkhard,"['lshift', 'k', 'a', 't', 'j', 'a', 'space', 'lshift', 'b', 'u', 'r', 'k', 'h', 'a', 'r', 'd', 'return']","[0.28368331589899753, 0.41694646346149966, 0.5670349494985203, 0.7168972885128824, 1.0332891624893819, 1.1334466313874145, 1.2333744247280265, 1.3499286754740751, 1.533154596991153, 1.733193667498199, 1.8663621861651336, 2.382729617015684, 2.5660899436425098, 2.6993656014656153, 2.9327737076655467, 3.099231709597916, 3.3491591340462037]",2017_Jan_26_1056,60.0366871062,famFaceFilter,001,5,
21,./img/smoo15_NeilPatrickHarris(Barney)3_7.png,0,20,20,20,,,None,None,1,1.16664725972,None,None,None,None,None,None,1,0.100042631119,Neil Patrick Harris,"['lshift', 'n', 'e', 'i', 'l', 'space', 'lshift', 'p', 'a', 't', 'r', 'i', 'c', 'k', 'space', 'lshift', 'h', 'a', 'r', 'r', 'i', 's', 'return']","[0.2835075306957151, 0.43359312974916975, 0.6166987602973677, 0.700146049275645, 0.8500738265774999, 0.9678945006489812, 1.0667268442284694, 1.199810678052927, 1.3332650080619715, 1.583032044551146, 1.732661821025431, 1.8163461634076157, 1.966208181645925, 2.0495585962971745, 2.1828599161935927, 2.282860525668184, 2.4325230212853057, 2.5494176152806176, 2.8158573009077372, 2.9323602275071607, 3.049082885610005, 3.165714764128097, 3.3990718669574562]",2017_Jan_26_1056,60.0366871062,famFaceFilter,001,5,
38,./img/smoo15_AlysonHannigan(Lily)5_4.png,0,21,21,37,,,None,None,1,1.0498995811,None,None,None,None,None,None,1,0.133442782077,,['return'],[0.23356464484731987],2017_Jan_26_1056,60.0366871062,famFaceFilter,001,5,
2,./img/smoo15_WillSmith5_1.png,0,22,22,1,,,None,None,1,3.78214824274,None,None,None,None,None,None,1,0.0836198664219,Will Smith,"['lshift', 'w', 'i', 'l', 'l', 'space', 'lshift', 's', 'm', 'i', 't', 'h', 'return']","[0.2670401781460896, 0.5002413838783468, 0.6169303605101959, 0.7999801760479386, 0.9333600860445586, 1.0500108903415821, 1.1332217674680578, 1.2165346513365876, 1.299939597894081, 1.4498340145009934, 1.549496846932925, 1.632902114265562, 2.166199135765055]",2017_Jan_26_1056,60.0366871062,famFaceFilter,001,5,
37,./img/smoo15_Ice-T(OdafinFinTutuola)5_1.png,0,23,23,36,,,None,None,1,1.63310580697,None,None,None,None,None,None,1,0.100366614797,,['return'],[0.1838270555881536],2017_Jan_26_1056,60.0366871062,famFaceFilter,001,5,
7,./img/smoo15_LisaEdelstein(DrLisaCuddy)2_2.png,0,24,24,6,,,None,None,1,0.899877174901,None,None,None,None,None,None,1,0.116877913648,,['return'],[0.18359802158283856],2017_Jan_26_1056,60.0366871062,famFaceFilter,001,5,
57,./img/smoo15_UrsulavonderLeyen5_1.png,0,25,25,56,,,None,None,1,1.88301847573,None,None,None,None,None,None,4,0.500139697912,Ursula Von der Leyen,"['lshift', 'u', 'r', 'u', 'l', 's', 'backspace', 'a', 'backspace', 'backspace', 'backspace', 's', 'u', 'l', 'a', 'space', 'lshift', 'v', 'o', 'n', 'space', 'd', 'e', 'r', 'space', 'lshift', 'l', 'w', 'backspace', 'e', 'y', 'e', 'n', 'return']","[0.25038870021944604, 0.36699876597504044, 0.566898940509418, 0.8335840197141806, 1.066771432081623, 1.1510245101671899, 1.5331809006174808, 1.6495006641671353, 2.0829452746665993, 2.232898072489661, 2.3661673147944384, 2.898997928108656, 3.0326623663449936, 3.215515546245115, 3.2824014953293954, 3.4490978337680644, 3.6154220721418824, 4.015549612647192, 4.115329207514151, 4.231981294914476, 4.365043315976436, 4.481937589195695, 4.615064727769095, 4.7152930881457, 5.031829952836233, 5.164944260372977, 5.381696077007291, 5.5813149310606605, 6.198034541792367, 6.830631277384782, 7.080914763102555, 7.297280365531151, 7.397385868730453, 8.746955916728439]",2017_Jan_26_1056,60.0366871062,famFaceFilter,001,5,
1,./img/smoo15_Ice-T(OdafinFinTutuola)6_1.png,0,26,26,0,,,None,None,1,1.10016388442,None,None,None,None,None,None,1,0.11664438878,,['return'],[0.13474160377063527],2017_Jan_26_1056,60.0366871062,famFaceFilter,001,5,
63,./img/smoo15_RobertSeanLeonard(Wilson)8_1.png,0,27,27,62,,,None,None,1,1.05008114027,None,None,None,None,None,None,1,0.133018395536,,['return'],[0.18351654449907073],2017_Jan_26_1056,60.0366871062,famFaceFilter,001,5,
12,./img/smoo15_MariskaHargitay(Liv)8_8.png,0,28,28,11,,,None,None,1,1.98343801855,None,None,None,None,None,None,1,0.133641021594,,['return'],[0.23354924760405993],2017_Jan_26_1056,60.0366871062,famFaceFilter,001,5,
30,./img/smoo15_KatjaBurkard4_1.png,0,29,29,29,,,None,None,1,0.949942917926,None,None,None,None,None,None,3,0.483237373217,Katja Burkhard,"['lshift', 'k', 'a', 't', 'j', 'a', 'space', 'lshift', 'b', 'u', 'r', 'k', 'h', 'a', 'r', 'd', 'return']","[0.26701547840002604, 0.41664268866679777, 0.5836626900072588, 0.6834185474554033, 1.0834575538074205, 1.1664583227075127, 1.366534603220316, 1.583072462317432, 2.066424352537979, 2.3163264356880973, 2.4160476493379974, 2.6993877350041657, 3.0493263545322407, 3.149184539498492, 3.3654138121619326, 3.54903268417911, 3.6823230976942796]",2017_Jan_26_1056,60.0366871062,famFaceFilter,001,5,
36,./img/smoo15_BastianSchweinsteiger6_2.png,0,30,30,35,,,None,None,1,1.23334940421,None,None,None,None,None,None,5,0.316772634992,Bastian Schweinsteiger,"['lshift', 'b', 'a', 's', 't', 'i', 'a', 'n', 'space', 'lshift', 's', 'c', 'h', 'w', 'e', 'i', 'n', 's', 't', 'e', 'i', 'g', 'e', 'r', 'return']","[0.31698210166632634, 0.8335737548850375, 1.049974642663983, 1.1333154340372857, 1.2832727227241776, 1.4664283943147893, 1.6164504797370682, 1.7163404215189075, 1.8498361316223964, 1.932832088883515, 2.08306235787677, 2.282876564464459, 2.3495482352354884, 2.4660742577007113, 2.5661662883121608, 2.632906605129392, 2.715727418739334, 2.8326489579112604, 2.949226304524018, 3.0825693252900237, 3.1657295198210704, 3.3324675591302366, 3.4656495503850238, 3.5490548177176606, 3.898778196604326]",2017_Jan_26_1056,60.0366871062,famFaceFilter,001,5,
39,./img/smoo15_BarackObama2_1.png,0,31,31,38,,,None,None,1,1.3499283547,None,None,None,None,None,None,4,0.183349741022,Barack Obama,"['lshift', 'b', 'a', 'r', 'a', 'c', 'k', 'space', 'lshift', 'o', 'b', 'a', 'm', 'a', 'return']","[0.3335023822419316, 0.9001751757286911, 1.0666912381020666, 1.2333872557646828, 1.4332973743530601, 1.5831690158693164, 1.6830570329957482, 1.816344559528261, 1.9496494079594413, 2.716074177506016, 2.899107954248393, 2.982699913165561, 3.5489197710558074, 3.615642765973462, 4.2653535383669805]",2017_Jan_26_1056,60.0366871062,famFaceFilter,001,5,
47,./img/smoo15_BarackObama4_1.png,0,32,32,46,,,None,None,1,1.46654226977,None,None,None,None,None,None,4,0.350268377172,Barack obama,"['lshift', 'b', 'a', 'r', 'a', 'c', 'k', 'space', 'o', 'b', 'a', 'm', 'a', 'return']","[0.6835568018768754, 0.8335724717799167, 1.00003528535035, 1.199834415470832, 1.3666699706582222, 1.516410735599493, 1.5999237836413158, 1.7498724113784192, 2.2328223693721156, 2.649452227002257, 3.3824636937788455, 3.499050342893497, 3.632346530374889, 4.681628938606991]",2017_Jan_26_1056,60.0366871062,famFaceFilter,001,5,
4,./img/smoo15_UrsulavonderLeyen1_1.png,0,33,33,3,,,None,None,1,1.64967612859,None,None,None,None,None,None,4,0.23338372723,Ursula von der Leyen,"['lshift', 'u', 'r', 's', 'u', 'l', 'a', 'space', 'v', 'o', 'n', 'space', 'd', 'e', 'r', 'space', 'lshift', 'l', 'e', 'y', 'e', 'n', 'return']","[0.3168364693992771, 0.5834310897944306, 0.8167429632185303, 1.0999884199891312, 1.1999617635101458, 1.3831815902849485, 1.4665685733907594, 1.6662320152972825, 1.9662963950240737, 2.033002388818204, 2.166198173437806, 2.3327184058971397, 2.3827187106344354, 2.48272958493817, 2.5660084665596514, 2.7993527383514447, 3.1991854857878934, 3.4657368014341046, 3.6655622351790953, 4.265266608093043, 4.4653521911077405, 4.548466514683241, 5.5646833412401975]",2017_Jan_26_1056,60.0366871062,famFaceFilter,001,5,
23,./img/smoo15_JoachimLoew4_1.png,0,34,34,22,,,None,None,1,1.2831437708,None,None,None,None,None,None,5,0.183726973502,Joachim Löw,"['lshift', 'j', 'o', 'a', 'c', 'h', 'i', 'm', 'space', 'lshift', 'l', u'\xf6', 'w', 'return']","[0.48335926806612406, 0.6501800675614504, 0.8998155859244434, 1.00012029096888, 1.1667191135293251, 1.2665862802214178, 1.3999071674488732, 1.5166343164146383, 1.5999144811394217, 1.7663702376403307, 2.349609182659151, 2.582649358881099, 2.8990075513856937, 3.015787307602295]",2017_Jan_26_1056,60.0366871062,famFaceFilter,001,5,
68,./img/smoo15_AlysonHannigan(Lily)8_3.png,0,35,35,67,,,None,None,1,1.0833857,None,None,None,None,None,None,1,0.117013601861,,['return'],[0.18343474664015957],2017_Jan_26_1056,60.0366871062,famFaceFilter,001,5,
3,./img/smoo15_JoshRadnor(Ted)3_1.png,0,36,36,2,,,None,None,1,0.800193171258,None,None,None,None,None,None,1,0.100376238075,,['return'],[0.31708924082249723],2017_Jan_26_1056,60.0366871062,famFaceFilter,001,5,
45,./img/smoo15_RobertSeanLeonard(Wilson)2_6.png,0,37,37,44,,,None,None,1,1.13322369212,None,None,None,None,None,None,1,0.133642304698,,['return'],[0.3504159340955084],2017_Jan_26_1056,60.0366871062,famFaceFilter,001,5,
67,./img/smoo15_GeorgeClooney4_2.png,0,38,38,66,,,None,None,1,1.26654650401,None,None,None,None,None,None,1,0.0836561141014,George Clooney,"['lshift', 'g', 'e', 'o', 'r', 'g', 'e', 'space', 'lshift', 'c', 'l', 'o', 'o', 'n', 'e', 'y', 'return']","[0.2836319917523724, 0.43363226441215375, 0.6002455218877003, 0.8166024633665074, 0.9834928712361943, 1.1166710131801665, 1.2165879001395297, 1.3499075042636832, 1.4997534837066269, 1.7331888558592254, 1.849738615743263, 1.9663554177932383, 2.099599960351952, 2.2330084194054507, 2.3325339597449783, 2.5661367769271237, 3.3825339437053117]",2017_Jan_26_1056,60.0366871062,famFaceFilter,001,5,
60,./img/smoo15_LeonardoDiCaprio2_1.png,0,39,39,59,,,None,None,1,1.61641070352,None,None,None,None,None,None,1,0.0837212316119,Leonardo DiCaprio,"['lshift', 'l', 'e', 'o', 'n', 'a', 'r', 'd', 'o', 'space', 'lshift', 'd', 'i', 'lshift', 'c', 'a', 'p', 'r', 'i', 'o', 'return']","[0.25044900609191245, 0.3666677252276713, 0.5166994339269877, 0.5668241997209407, 0.7348645892579952, 0.8834967526254331, 1.1000294793075227, 1.2665157095198083, 1.3666340437557665, 1.5331398412999988, 1.6163613040316704, 1.9330899927217615, 2.133023527951991, 2.2829019057626283, 2.482434150318113, 2.66620635322397, 2.8826816610162496, 3.0325523402052568, 3.1990241355015314, 3.3491411705954306, 3.832349994755532]",2017_Jan_26_1056,60.0366871062,famFaceFilter,001,5,
62,./img/smoo15_RobertSeanLeonard(Wilson)1_1.png,0,40,40,61,,,None,None,1,1.19991974187,None,None,None,None,None,None,1,0.100279684523,,['return'],[0.1669978678028201],2017_Jan_26_1056,60.0366871062,famFaceFilter,001,5,
56,./img/smoo15_MariskaHargitay(Liv)6_5.png,0,41,41,55,,,None,None,1,0.783405684342,None,None,None,None,None,None,1,0.133245825663,,['return'],[0.10053598448212142],2017_Jan_26_1056,60.0366871062,famFaceFilter,001,5,
25,./img/smoo15_JasonSegel(Marshall)6_1.png,0,42,42,24,,,None,None,1,1.26664722765,None,None,None,None,None,None,1,0.100152336484,Jason Segal,"['lshift', 'j', 'a', 's', 'o', 'n', 'space', 'lshift', 's', 'e', 'g', 'a', 'l', 'return']","[0.23371508875425206, 0.3665349239972784, 0.4836162095771215, 0.5667501004836595, 0.6668549621308557, 0.8167076778681803, 0.9333231968148539, 1.033346260603139, 1.1833401177445921, 1.3498234609733117, 1.4999225326155283, 1.5830605936089341, 1.899704918232601, 2.132913181035292]",2017_Jan_26_1056,60.0366871062,famFaceFilter,001,5,
43,./img/smoo15_JoachimLoew1_1.png,0,43,43,42,,,None,None,1,1.19998133084,None,None,None,None,None,None,5,0.16669313068,Joachim Löw,"['lshift', 'j', 'o', 'a', 'c', 'h', 'i', 'm', 'space', 'lshift', 'l', u'\xf6', 'w', 'return']","[0.3668056588721811, 1.1665167039245716, 1.3660483069288603, 1.4665079467422402, 1.5993184794833724, 1.682971385826022, 1.8494922598374615, 1.9495320039741273, 2.0493298830679123, 2.1660592774651377, 2.3325169586205448, 2.5326237128465436, 2.7658836205719126, 2.8825552753041848]",2017_Jan_26_1056,60.0366871062,famFaceFilter,001,5,
19,./img/smoo15_NicoleKidman7_1.png,0,44,44,18,,,None,None,1,1.33332435161,None,None,None,None,None,None,1,0.116770774491,Nicole Kidman,"['lshift', 'n', 'i', 'c', 'o', 'l', 'e', 'space', 'lshift', 'k', 'i', 'd', 'm', 'a', 'n', 'return']","[0.20046826868565404, 0.46708951348227856, 0.6169659666375082, 0.7336180540387431, 0.8834505608929248, 1.0501462577803977, 1.1500740511210097, 1.3000695121418175, 1.466681807290115, 1.849789939889888, 1.9997847593585902, 2.082963879669478, 2.2330751407971547, 2.3495203277307155, 2.432813965044261, 3.0993093373699594]",2017_Jan_26_1056,60.0366871062,famFaceFilter,001,5,
54,./img/smoo15_LisaEdelstein(DrLisaCuddy)6_3.png,0,45,45,53,,,None,None,1,5.99757108475,None,None,None,None,None,None,1,0.200284143309,,['return'],[0.3838064617739292],2017_Jan_26_1056,60.0366871062,famFaceFilter,001,5,
8,./img/smoo15_AngelaMerkel4_1.png,0,46,46,7,,,None,None,1,1.19996048041,None,None,None,None,None,None,4,0.183554075282,Angela Merkel,"['lshift', 'a', 'n', 'g', 'e', 'l', 'a', 'space', 'lshift', 'm', 'e', 'r', 'k', 'e', 'l', 'return']","[0.28365155908250017, 0.5834070316004727, 1.3164204230324685, 1.5163366363631212, 1.5830945958559823, 2.1162549668142674, 2.2329859650908475, 2.382525282755523, 2.532667659146682, 2.7826226703245993, 2.9325751473725177, 3.099199311229313, 3.2322699932410615, 3.3157217730822595, 3.4323655203097587, 3.8988221429044643]",2017_Jan_26_1056,60.0366871062,famFaceFilter,001,5,
17,./img/smoo15_GeorgeClooney11_1.png,0,47,47,16,,,None,None,1,1.13311687374,None,None,None,None,None,None,1,0.100214246236,George Clooney,"['lshift', 'g', 'e', 'o', 'r', 'g', 'e', 'space', 'lshift', 'c', 'l', 'o', 'o', 'n', 'e', 'y', 'return']","[0.2504615163534254, 0.3170950147896292, 0.4836226250954496, 0.7666409725161429, 0.9334091647606328, 1.3334221882632846, 1.4332370684805937, 1.5831940363914327, 1.7497139480747137, 2.0162370354410086, 2.2496996735462744, 2.3828171888417273, 2.5829274716024884, 2.749415305695038, 2.849286321697946, 3.099294260901843, 3.648899850871203]",2017_Jan_26_1056,60.0366871062,famFaceFilter,001,5,
26,./img/smoo15_TomCruise4_1.png,0,48,48,25,,,None,None,1,1.3499017303,None,None,None,None,None,None,1,0.100111918718,Tom Cruise,"['lshift', 't', 'o', 'm', 'space', 'lshift', 'c', 'r', 'u', 'i', 's', 'e', 'return']","[0.7333473191638404, 1.3662860018839638, 1.5995661184924757, 1.7331384940407588, 1.8164568310994582, 1.9163698687480064, 2.066178638184283, 2.3493839979655604, 2.4328113988367477, 2.5993386883665153, 2.682784694241491, 2.849131066153859, 2.999291085220648]",2017_Jan_26_1056,60.0366871062,famFaceFilter,001,5,
51,./img/smoo15_LeonardoDiCaprio1_1.png,0,49,49,50,,,None,None,1,1.01639100788,None,None,None,None,None,None,1,0.117081606356,Leonardo DICaprio,"['lshift', 'l', 'e', 'o', 'n', 'a', 'r', 'd', 'o', 'space', 'lshift', 'd', 'o', 'lshift', 'backspace', 'i', 'lshift', 'backspace', 'i', 'lshift', 'c', 'a', 'p', 'r', 'i', 'o', 'return']","[0.23356175786466338, 1.016513223506081, 1.1834424452617895, 1.2499883718728597, 1.3829361967073055, 1.5330711952528873, 1.7495840338278867, 1.8997876784196706, 1.9831005622882003, 2.116298592338353, 2.1995072240333684, 2.4162292085075023, 2.5994371665728977, 2.9325074636535646, 3.1824987225099903, 3.4488415338091727, 3.582271484849116, 4.232016901040879, 4.765156421564825, 4.88185598380187, 4.998129555619016, 5.148279951408767, 5.564971077238624, 5.6647904483197635, 5.814503305756261, 5.947992279565369, 6.947582969492942]",2017_Jan_26_1056,60.0366871062,famFaceFilter,001,5,
65,./img/smoo15_UrsulavonderLeyen4_1.png,0,50,50,64,,,None,None,1,1.56636196162,None,None,None,None,None,None,4,0.21718358102,Ursula Von der Leyen,"['lshift', 'u', 'r', 'u', 'backspace', 's', 'u', 'l', 'a', 'space', 'lshift', 'v', 'o', 'n', 'space', 'd', 'e', 'r', 'lshift', 'l', 'e', 'backspace', 'backspace', 'space', 'lshift', 'l', 'e', 'y', 'e', 'n', 'return']","[0.2836659939994206, 0.816913616007696, 1.0667640542351364, 1.3166642127307568, 2.2328971101615025, 2.3663716490545994, 2.7660802562104436, 2.949230153834833, 3.049092829664005, 3.182499043286043, 3.7156488286382228, 4.2321801759844675, 4.348905079518772, 4.4821069588806495, 4.665183398819863, 4.9152250194947555, 5.015350410802057, 5.131570092265065, 7.030848057749608, 7.281012856377856, 7.347524459965825, 8.030752466525882, 8.163806788965303, 8.513699858312975, 9.413349282312083, 9.663337012632837, 10.046275775547656, 11.012486523402004, 11.2959234833952, 11.44581437146644, 15.510956903434817]",2017_Jan_26_1056,60.0366871062,famFaceFilter,001,5,
58,./img/smoo15_EmilyDeschanel3_1.png,0,51,51,57,,,None,None,1,1.40008070722,None,None,None,None,None,None,1,0.117076473941,,['return'],[0.41680596360947675],2017_Jan_26_1056,60.0366871062,famFaceFilter,001,5,
70,./img/smoo15_JasonSegel(Marshall)7_1.png,0,52,52,69,,,None,None,1,1.2497801883,None,None,None,None,None,None,1,0.150284159347,Jason Segal,"['lshift', 'j', 'a', 'o', 's', 'backspace', 'backspace', 's', 'o', 'n', 'space', 'lshift', 's', 'e', 'g', 'a', 'l', 'return']","[0.3168605275923255, 0.4844255272191731, 0.8666935476885556, 1.0332214787704288, 1.100000288697629, 1.5664367024101011, 1.682979084447652, 1.8496099845988283, 1.9497472446146276, 2.132876612579821, 2.332754012024452, 2.882574842635222, 3.0991364391493335, 3.2654597151959024, 3.915546436965087, 4.048779110815303, 4.215248339904065, 4.448466867535899]",2017_Jan_26_1056,60.0366871062,famFaceFilter,001,5,
29,./img/smoo15_GuentherJauch3_1.png,0,53,53,28,,,None,None,1,1.19968653777,None,None,None,None,None,None,3,0.150358258585,Günther Jauch,"['lshift', 'g', 'p', 'backspace', u'\xfc', 'n', 't', 'h', 'e', 'r', 'space', 'lshift', 'j', 'a', 'u', 'c', 'h', 'return']","[1.3830070881849679, 1.54977560120642, 1.9662694498465498, 2.482798230984372, 2.6825248657469274, 2.949125260109213, 3.0657212117239396, 3.2490565178295583, 3.3657342673041057, 3.4489919777151954, 4.132078842871124, 4.382001776456491, 4.848543083894583, 4.998470540420385, 5.08158967563395, 5.165086364104354, 5.298455688495778, 5.564983587500137]",2017_Jan_26_1056,60.0366871062,famFaceFilter,001,5,
40,./img/smoo15_NeilPatrickHarris(Barney)2_2.png,0,54,54,39,,,None,None,1,1.41623337859,None,None,None,None,None,None,1,0.0835300491653,Neil Patrick Harris,"['lshift', 'n', 'e', 'i', 'l', 'space', 'lshift', 'p', 'a', 't', 'r', 'i', 'c', 'k', 'space', 'lshift', 'h', 'a', 'r', 'r', 'i', 's', 'return']","[0.4000040417768105, 0.5836681431983379, 0.6834111696098262, 0.8168735190183725, 1.0168192437322432, 1.4498635258860304, 1.6830711471366158, 2.0330630154667233, 2.799388344478757, 3.0492676525400384, 3.2159720103763902, 3.2998375911529365, 3.432467527051813, 3.5488950713106533, 3.749055074338685, 4.081990003981446, 4.681656525336621, 4.798424733619868, 5.098151336304909, 5.2318193030760085, 5.381664961742899, 5.49813773540609, 6.014695386376843]",2017_Jan_26_1056,60.0366871062,famFaceFilter,001,5,
33,./img/smoo15_Ice-T(OdafinFinTutuola)7_1.png,0,55,55,32,,,None,None,1,1.11666235223,None,None,None,None,None,None,1,0.133731159627,,['return'],[0.6000459992674223],2017_Jan_26_1056,60.0366871062,famFaceFilter,001,5,
11,./img/smoo15_LeonardoDiCaprio3_1.png,0,56,56,10,,,None,None,1,0.95003530139,None,None,None,None,None,None,1,0.100085935868,Leonardo DiCaprio,"['lshift', 'l', 'e', 'o', 'n', 'a', 'r', 'd', 'o', 'space', 'lshift', 'd', 'i', 'lshift', 'c', 'a', 'p', 'r', 'i', 'o', 'return']","[0.4167703574821644, 0.6502060504117253, 0.7665739303483861, 0.8666723764781636, 1.1333420584387568, 1.2998369496008308, 1.5329823403235423, 1.6830952053305737, 1.7830409621228682, 1.966241542341777, 2.532659639749909, 2.86588711703007, 3.515679045730394, 3.7321004631685355, 4.1488515740957155, 4.398535529621768, 5.431590846466861, 5.564909809038909, 5.764703165192259, 5.914710494922474, 6.464245193413262]",2017_Jan_26_1056,60.0366871062,famFaceFilter,001,5,
18,./img/smoo15_HughLaurie(DrHouse)4_1.png,0,57,57,17,,,None,None,1,1.2502757871,None,None,None,None,None,None,1,0.116911274344,,['return'],[0.10050839775340137],2017_Jan_26_1056,60.0366871062,famFaceFilter,001,5,
13,./img/smoo15_GeorgeClooney3_1.png,0,58,58,12,,,None,None,1,0.883424898819,None,None,None,None,None,None,1,0.083688191693,George Clooney,"['lshift', 'g', 'e', 'p', 'r', 'backspace', 'backspace', 'o', 'r', 'g', 'e', 'space', 'lshift', 'c', 'l', 'o', 'o', 'n', 'e', 'y', 'return']","[0.9332997801720921, 1.0667063145701832, 1.249918121947303, 1.4832344862343234, 1.5498490588915956, 2.232907695767608, 2.3497256243181255, 2.9659810722960174, 3.2157859603439647, 3.349048466354361, 3.4489640702104225, 3.6158567235115697, 3.93211836246428, 4.515404140767714, 4.648556299862321, 4.781979835383936, 4.981851460861435, 5.1816640635697695, 5.348098007308181, 5.581602667059087, 5.7479044511192114]",2017_Jan_26_1056,60.0366871062,famFaceFilter,001,5,
16,./img/smoo15_WillSmith4_1.png,0,59,59,15,,,None,None,1,1.16640314925,None,None,None,None,None,None,1,0.100288666249,Will Smith,"['lshift', 'w', 'i', 'l', 'l', 'space', 'lshift', 's', 'm', 'i', 't', 'h', 'return']","[0.2502757870952337, 0.5003170869949827, 0.6165248997494928, 0.800244816180566, 0.9330476503000682, 1.0334040002680922, 1.1831633702131512, 1.300020754201796, 1.432801454782748, 1.716475147404708, 1.7998483371457041, 1.9161995367348936, 2.182749890053856]",2017_Jan_26_1056,60.0366871062,famFaceFilter,001,5,
44,./img/smoo15_GuentherJauch2_1.png,0,60,60,43,,,None,None,1,1.21634154423,None,None,None,None,None,None,3,0.100216491667,Günther Jauch,"['lshift', 'g', 'p', 'backspace', u'\xfc', 'n', 't', 'h', 'e', 'r', 'space', 'lshift', 'j', 'a', 'u', 'c', 'h', 'return']","[0.31689805837595486, 0.8335028634064656, 1.166759210519558, 1.516419075774138, 1.7328520411456338, 1.9329706640801305, 2.1163123857040773, 2.2158985526912147, 2.2995087958361182, 2.3828396431563306, 2.432755263051149, 2.665681243045583, 2.949288214275839, 3.0326001358171197, 3.132370428181275, 3.2325724849324615, 3.299110071369796, 3.815604529484517]",2017_Jan_26_1056,60.0366871062,famFaceFilter,001,5,
42,./img/smoo15_OmarEpps(DrEricForeman)1_5.png,0,61,61,41,,,None,None,1,1.18338919646,None,None,None,None,None,None,1,0.0835448048574,,['return'],[0.20023249838595802],2017_Jan_26_1056,60.0366871062,famFaceFilter,001,5,
31,./img/smoo15_BritneySpears1_1.png,0,62,62,30,,,None,None,1,1.29977471907,None,None,None,None,None,None,2,0.183602833221,Britney Spears,"['lshift', 'n', 'backspace', 'lshift', 'b', 'r', 'i', 't', 'n', 'e', 'y', 'space', 'lshift', 's', 'p', 'e', 'a', 'r', 's', 'return']","[0.35026901872424787, 0.6668485466125276, 1.3496935467264848, 1.683097450762034, 1.8495730953691236, 2.099518483269094, 2.282745367113421, 2.4495430707429477, 2.849211580908559, 2.965978826864557, 3.398949972108312, 3.548810065691214, 3.6822477153536965, 3.798735886260147, 3.9656025567119286, 4.232091641830266, 4.415299279120518, 4.598512048824887, 4.798398109218397, 4.948220672019488]",2017_Jan_26_1056,60.0366871062,famFaceFilter,001,5,
24,./img/smoo15_BastianSchweinsteiger1_1.png,0,63,63,23,,,None,None,1,1.35025971622,None,None,None,None,None,None,5,0.16695712926,Bastian Schweinsteiger,"['lshift', 'b', 'a', 's', 't', 'i', 'a', 'n', 'space', 'lshift', 's', 'c', 'h', 'w', 'e', 'i', 'n', 's', 't', 'e', 'i', 'g', 'e', 'r', 'return']","[0.30027288407382, 0.4668915947413552, 0.6167921060896333, 0.7334021718461372, 0.8167384723565192, 1.0334023963887375, 1.1832371486743796, 1.283268873412453, 1.4331668185541275, 1.549677443775181, 1.649649183416841, 1.8663124658978631, 1.9496089901949745, 2.032800941541609, 2.116085597129313, 2.216271294309081, 2.3160127168412146, 2.4162478135112906, 2.5660536959640012, 2.666098893291746, 2.782563647556344, 2.915933292723821, 3.0658880152022903, 3.1324483767293714, 3.7323224401043262]",2017_Jan_26_1056,60.0366871062,famFaceFilter,001,5,
72,./img/smoo15_HughLaurie(DrHouse)2_1.png,0,64,64,71,,,None,None,1,1.16690901287,None,None,None,None,None,None,1,0.100290270128,,['return'],[0.4001785438767911],2017_Jan_26_1056,60.0366871062,famFaceFilter,001,5,
55,./img/smoo15_MariskaHargitay(Liv)4_4.png,0,65,65,54,,,None,None,1,1.08341168285,None,None,None,None,None,None,1,0.11677558613,,['return'],[0.4670038663125524],2017_Jan_26_1056,60.0366871062,famFaceFilter,001,5,
5,./img/smoo15_BarackObama1_3.png,0,66,66,4,,,None,None,1,1.38311326501,None,None,None,None,None,None,4,0.166866670452,Barack Obama,"['lshift', 'b', 'a', 'r', 'a', 'c', 'k', 'space', 'lshift', 'o', 'b', 'a', 'm', 'a', 'return']","[0.5835225109312887, 0.7333781136512698, 0.8502018161689193, 1.249919084274552, 1.4165592869276225, 1.5498692677747385, 1.6664825412890423, 1.7997553121294914, 1.9161591189695173, 2.599469244165448, 3.182374582229386, 3.7489752011342716, 3.881695275066704, 3.9654132989207937, 4.981868141208906]",2017_Jan_26_1056,60.0366871062,famFaceFilter,001,5,
22,./img/smoo15_WillSmith1_1.png,0,67,67,21,,,None,None,1,2.91589255418,None,None,None,None,None,None,1,0.116927633915,Will Smith,"['lshift', 'w', 'i', 'l', 'l', 'space', 'lshift', 's', 'm', 'i', 't', 'h', 'return']","[0.3836621126101818, 0.5501605323079275, 0.6667048390008858, 0.8334640495195345, 0.9666700989682795, 1.066728448107824, 1.1998600775441446, 1.3498157623507723, 1.4498821308879997, 1.5831645250054862, 1.7994014962905567, 1.8324510391694275, 2.449432403051105]",2017_Jan_26_1056,60.0366871062,famFaceFilter,001,5,
49,./img/smoo15_TomCruise5_1.png,0,68,68,48,,,None,None,1,1.65008575944,None,None,None,None,None,None,1,0.10028160918,Tom Cruise,"['lshift', 't', 'o', 'm', 'space', 'lshift', 'c', 'r', 'u', 'i', 's', 'e', 'return']","[0.2835142669900961, 0.4837034606271118, 0.7181091799329806, 0.8501049418418916, 0.9835313643470727, 1.1333503986124924, 1.4331988961457682, 1.699778760848858, 1.8663381279711757, 2.049668622437821, 2.182987585009869, 2.3659443755313987, 2.5161098477892665]",2017_Jan_26_1056,60.0366871062,famFaceFilter,001,5,
41,./img/smoo15_AngelaMerkel3_1.png,0,69,69,40,,,None,None,1,0.983337936468,None,None,None,None,None,None,4,0.217040514961,Angela Merkel,"['lshift', 'a', 'n', 'g', 'e', 'l', 'a', 'space', 'lshift', 'm', 'e', 'r', 'k', 'e', 'l', 'return']","[0.2670501221991799, 0.4503857490799419, 0.5834628466100185, 0.8002967818792968, 0.8834874501226295, 1.016738408200581, 1.1834122923255563, 1.3165307699482582, 1.4166215174554964, 1.5332556414050487, 1.7165996084604558, 1.816165245789307, 1.9665347315312829, 2.3160935523719672, 2.4496232647225042, 3.0491127177701856]",2017_Jan_26_1056,60.0366871062,famFaceFilter,001,5,
50,./img/smoo15_OmarEpps(DrEricForeman)2_2.png,0,70,70,49,,,None,None,1,1.14990596454,None,None,None,None,None,None,1,0.167049191949,,['return'],[0.3837333248648065],2017_Jan_26_1056,60.0366871062,famFaceFilter,001,5,
48,./img/smoo15_JoshRadnor(Ted)6_2.png,0,71,71,47,,,None,None,1,1.39984557847,None,None,None,None,None,None,1,0.116924105379,,['return'],[0.2504878199779341],2017_Jan_26_1056,60.0366871062,famFaceFilter,001,5,
58,./img/edges5_HughLaurie(DrHouse)5_3.png,0,0,0,57,,,None,None,1,1.93284684458,None,None,None,None,None,None,1,0.600126834798,,['return'],[0.2838202872162583],2017_Jan_26_1056,60.0366871062,famFaceFilter,001,5,
52,./img/edges5_BarackObama4_1.png,0,1,1,51,,,None,None,1,1.08339917259,None,None,None,None,None,None,4,0.300318113479,Barack Obama,"['lshift', 'b', 'a', 'r', 'a', 'c', 'k', 'space', 'lshift', 'o', 'b', 'a', 'm', 'a', 'return']","[0.26694522847446933, 0.43377083960876917, 0.5335744926687767, 0.7335150849694401, 0.9000587340706261, 1.0331807402289996, 1.1499245695431455, 1.283278817466453, 1.3498741435687407, 1.4164717151024888, 1.6165893757097365, 1.733049318335361, 1.833000849093878, 1.9328840545822459, 2.332813997121775]",2017_Jan_26_1056,60.0366871062,famFaceFilter,001,5,
57,./img/edges5_BritneySpears5_1.png,0,2,2,56,,,None,None,1,1.88310348135,None,None,None,None,None,None,2,0.116983769701,Britney Spears,"['lshift', 'b', 'r', 'i', 't', 'n', 'e', 'y', 'space', 'lshift', 's', 'p', 'e', 'a', 'r', 's', 'return']","[0.33361593691734015, 0.9501283264062295, 1.1666260885131123, 1.3165326946045752, 1.4166205551282474, 1.699794799645133, 1.799742481092835, 2.149580056206105, 2.3661098959046285, 2.4827898908106363, 2.649244364207334, 2.799430686899541, 2.899418465337476, 3.0324759955356058, 3.8988211805772153, 4.382025513874396, 6.664486673525062]",2017_Jan_26_1056,60.0366871062,famFaceFilter,001,5,
33,./img/edges5_BarackObama2_1.png,0,3,3,32,,,None,None,1,1.18315984168,None,None,None,None,None,None,4,0.183738842211,Barack Obama,"['lshift', 'b', 'r', 'i', 't', 'n', 'e', 'backspace', 'backspace', 'backspace', 'backspace', 'backspace', 'a', 'r', 'a', 'c', 'k', 'space', 'lshift', 'o', 'b', 'a', 'm', 'a', 'return']","[0.31685379129885405, 0.6335811968856433, 0.8333338144975642, 0.9331118054842591, 1.0498309350523414, 1.4831472351843331, 1.5830936335287333, 2.5826346031890353, 2.749205518243798, 2.8992875887634, 3.0492288386531072, 3.415746119974756, 3.865524961018309, 4.082068273305595, 4.248649773965553, 4.398775470009241, 4.515080157090779, 4.631981166604419, 4.7651670071709304, 5.248209669405696, 5.46469203426841, 5.598193839114174, 5.697961244495673, 5.781220238009155, 6.730953689259877]",2017_Jan_26_1056,60.0366871062,famFaceFilter,001,5,
50,./img/edges5_WillSmith5_1.png,0,4,4,49,,,None,None,1,1.04972155046,None,None,None,None,None,None,1,0.13387486724,Will Smith,"['lshift', 'w', 'i', 'l', 'l', 'space', 'lshift', 's', 'm', 'i', 't', 'h', 'return']","[0.21693369657987205, 0.6001184946235298, 0.7335933542926796, 0.9164064372025678, 1.0332894832645252, 1.1333510401636886, 1.1580629753698304, 1.3162532987789746, 1.3663260988732873, 1.5165916532178016, 1.6165364476819377, 1.6830907144667435, 1.96631692468236]",2017_Jan_26_1056,60.0366871062,famFaceFilter,001,5,
44,./img/edges5_EmilyDeschanel5_1.png,0,5,5,43,,,None,None,1,1.18322046833,None,None,None,None,None,None,1,0.100043914224,,['return'],[0.3169788939067075],2017_Jan_26_1056,60.0366871062,famFaceFilter,001,5,
71,./img/edges5_HughLaurie(DrHouse)4_1.png,0,6,6,70,,,None,None,1,0.650169481956,None,None,None,None,None,None,1,0.09986652514,,['return'],[0.16708030721383693],2017_Jan_26_1056,60.0366871062,famFaceFilter,001,5,
14,./img/edges5_AngelaMerkel4_1.png,0,7,7,13,,,None,None,1,0.866849444785,None,None,None,None,None,None,4,0.400181430859,Angela Merkel,"['lshift', 'a', 'n', 'g', 'e', 'l', 'a', 'space', 'lshift', 'm', 'e', 'r', 'k', 'e', 'l', 'return']","[0.28370961952441576, 0.4335684300040157, 0.5501230015252077, 0.8662778220977998, 0.9834213382064263, 1.116591781527859, 1.766414825492575, 1.9495233430234293, 2.0662662100094167, 2.232962869225048, 2.48284442271688, 2.666053663886487, 2.799288583167254, 2.8993052314381202, 2.999243610383928, 3.53250406342886]",2017_Jan_26_1056,60.0366871062,famFaceFilter,001,5,
2,./img/edges5_OmarEpps(DrEricForeman)1_5.png,0,8,8,1,,,None,None,1,1.13321952204,None,None,None,None,None,None,1,0.10007246328,,['return'],[0.15010163784972974],2017_Jan_26_1056,60.0366871062,famFaceFilter,001,5,
46,./img/edges5_TomCruise5_1.png,0,9,9,45,,,None,None,1,0.933088388842,None,None,None,None,None,None,1,0.0837683856735,Tom Cruise,"['lshift', 't', 'o', 'm', 'space', 'lshift', 'c', 'r', 'u', 'i', 's', 'e', 'return']","[0.23363361167139374, 0.5669512269842016, 0.8166608445844759, 0.9501507807208327, 1.0334934967495428, 1.149700988728, 1.2998959723699954, 1.533170956563481, 1.616284959362929, 1.7830618125572073, 1.8497475974691042, 2.0328683044845093, 2.1830013783746836]",2017_Jan_26_1056,60.0366871062,famFaceFilter,001,5,
66,./img/edges5_BritneySpears1_1.png,0,10,10,65,,,None,None,1,1.73302493937,None,None,None,None,None,None,2,0.0503534790232,Britney Spears,"['lshift', 'b', 'r', 'i', 't', 'n', 'e', 'y', 'space', 'lshift', 's', 'p', 'e', 'a', 'r', 's', 'return']","[0.31701032994715206, 1.2333670468824494, 1.4664944741534782, 1.699736739204127, 1.882698020587668, 2.066307910879914, 2.1495425254242946, 2.365927374406965, 2.5161723990922837, 2.632012602643954, 2.8324131876115644, 3.0326129668528665, 3.1656024925569, 3.3325782268211697, 3.515841037568862, 3.6822239779357915, 3.882100415052264]",2017_Jan_26_1056,60.0366871062,famFaceFilter,001,5,
5,./img/edges5_AlysonHannigan(Lily)1_1.png,0,11,11,4,,,None,None,1,0.967054709296,None,None,None,None,None,None,1,0.133244221784,,['return'],[0.26698372158443817],2017_Jan_26_1056,60.0366871062,famFaceFilter,001,5,
63,./img/edges5_LisaEdelstein(DrLisaCuddy)2_2.png,0,12,12,62,,,None,None,1,1.28289324481,None,None,None,None,None,None,1,0.150512231025,,['return'],[0.20043426643860585],2017_Jan_26_1056,60.0366871062,famFaceFilter,001,5,
38,./img/edges5_GeorgeClooney11_1.png,0,13,13,37,,,None,None,1,0.916895620478,None,None,None,None,None,None,1,0.100272306677,George Clooney,"['lshift', 'g', 'e', 'o', 'r', 'g', 'e', 'space', 'lshift', 'c', 'l', 'o', 'o', 'n', 'e', 'y', 'return']","[0.2666542847164237, 0.7500908597794478, 0.9330941628086293, 1.0666129687779176, 1.2164672883945968, 1.3664861660581664, 1.4829252582494519, 1.6164572160314492, 1.7994098364652018, 1.9995820289786934, 2.1491566319946287, 2.28274312168287, 2.565955217757619, 2.7992462407473795, 2.932383002597817, 3.2490513854154415, 3.398864004162533]",2017_Jan_26_1056,60.0366871062,famFaceFilter,001,5,
30,./img/edges5_MariskaHargitay(Liv)8_8.png,0,14,14,29,,,None,None,1,1.21683810536,None,None,None,None,None,None,1,0.133649361768,,['return'],[0.3669952374402783],2017_Jan_26_1056,60.0366871062,famFaceFilter,001,5,
10,./img/edges5_GuentherJauch4_1.png,0,15,15,9,,,None,None,1,0.783688608702,None,None,None,None,None,None,3,0.316863735353,Günther Jauch,"['lshift', 'g', u'\xfc', 'n', 't', 'h', 'e', 'r', 'space', 'lshift', 'j', 'a', 'u', 'c', 'h', 'return']","[0.28364642666838336, 0.8668885794468224, 1.2166154868682497, 1.4330587170688887, 1.5499234789040202, 1.6497983442186523, 1.716482846026338, 1.8163333323709594, 1.916290316319646, 2.0995078976629884, 2.349516157642938, 2.4828947845362563, 2.616081266653964, 2.6826464398200187, 2.799464047595393, 3.2658892341505634]",2017_Jan_26_1056,60.0366871062,famFaceFilter,001,5,
51,./img/edges5_Ice-T(OdafinFinTutuola)6_1.png,0,16,16,50,,,None,None,1,1.08330261904,None,None,None,None,None,None,1,0.133277903255,,['return'],[0.11720221810173825],2017_Jan_26_1056,60.0366871062,famFaceFilter,001,5,
20,./img/edges5_JoshRadnor(Ted)1_2.png,0,17,17,19,,,None,None,1,0.750110106334,None,None,None,None,None,None,1,0.100349292898,,['return'],[0.20043811574942083],2017_Jan_26_1056,60.0366871062,famFaceFilter,001,5,
23,./img/edges5_UrsulavonderLeyen1_1.png,0,18,18,22,,,None,None,1,1.18320025944,None,None,None,None,None,None,4,0.250367208233,Ursula Von der Leyen,"['lshift', 'u', 'r', 's', 'u', 'l', 'a', 'space', 'lshift', 'v', 'o', 'n', 'space', 'd', 'e', 'r', 'space', 'lshift', 'l', 'e', 'y', 'e', 'n', 'return']","[0.300396062026266, 0.500345956827914, 0.7002092421316775, 0.8833469502715161, 1.0501661458865783, 1.233385972661381, 1.3498253856287192, 1.4997996754391352, 1.716396878080559, 2.116194660941801, 2.2163004849171557, 2.382783507370732, 2.5660229014756624, 2.666195446842721, 2.7823945986465333, 2.8826197512644285, 3.5989973827890935, 4.165397516745543, 4.398548360658424, 4.8985344069060375, 5.148431357642039, 5.331526723361094, 5.464980411818942, 5.747675417112987]",2017_Jan_26_1056,60.0366871062,famFaceFilter,001,5,
28,./img/edges5_Ice-T(OdafinFinTutuola)5_1.png,0,19,19,27,,,None,None,1,1.1000894644,None,None,None,None,None,None,1,0.100302138838,,['return'],[0.1328878397380322],2017_Jan_26_1056,60.0366871062,famFaceFilter,001,5,
48,./img/edges5_GeorgeClooney3_1.png,0,20,20,47,,,None,None,1,0.800718602212,None,None,None,None,None,None,1,0.117058189713,George Clooney,"['lshift', 'g', 'e', 'o', 'r', 'g', 'e', 'space', 'lshift', 'c', 'l', 'o', 'o', 'n', 'e', 'y', 'pound', 'return']","[0.2335178115645249, 0.4169647476892351, 0.5833877850454883, 0.7167285603800337, 0.8502338937614695, 0.983139376174222, 1.066686426463093, 1.1999986527416695, 1.3833243355693412, 1.5999208966586593, 1.766443374550363, 1.8829507920117976, 2.033090602196353, 2.18260906942578, 2.2660887567726604, 2.5162365542764746, 2.665962242749629, 3.1824627956075346]",2017_Jan_26_1056,60.0366871062,famFaceFilter,001,5,
7,./img/edges5_AngelaMerkel3_1.png,0,21,21,6,,,None,None,1,1.18333947619,None,None,None,None,None,None,4,0.216736740166,Angela Merkel,"['lshift', 'a', 'n', 'g', 'e', 'l', 'a', 'space', 'lshift', 'm', 'e', 'r', 'k', 'e', 'l', 'return']","[0.28362910476880643, 0.4835783580192583, 0.6169146424908831, 0.8001944543620993, 0.8832799081046687, 1.066607194811695, 1.199841151765213, 1.3499325247857996, 1.4832338446822178, 1.7330913399810015, 1.882908128814961, 2.0495390289661373, 2.182823989291137, 2.299404222886551, 2.399398737618867, 2.63266570241467]",2017_Jan_26_1056,60.0366871062,famFaceFilter,001,5,
45,./img/edges5_WillSmith4_1.png,0,22,22,44,,,None,None,1,1.266376172,None,None,None,None,None,None,1,0.0836099223689,Will Smith,"['lshift', 'w', 'i', 'l', 'l', 'space', 'lshift', 'm', 'backspace', 'lshift', 's', 'm', 'i', 't', 'h', 'return']","[0.2500743398195482, 0.5668258035993858, 0.6834977791077108, 0.8667897804643871, 0.9833405026747641, 1.0834838574328387, 1.21655486022064, 1.4165002641593674, 1.8996815015907487, 2.382836114620659, 2.5494172945054743, 2.665989829478349, 2.782667899728949, 2.915944840656266, 3.0159188257293863, 3.282501256639989]",2017_Jan_26_1056,60.0366871062,famFaceFilter,001,5,
53,./img/edges5_KatjaBurkard4_1.png,0,23,23,52,,,None,None,1,1.38319698753,None,None,None,None,None,None,3,0.100311120564,Katja Burkhard,"['lshift', 'k', 'a', 't', 'j', 'a', 'space', 'lshift', 'b', 'u', 'r', 'k', 'h', 'a', 'r', 'd', 'return']","[0.23362045985777513, 0.3670706197808613, 0.5003340881194163, 0.633613274477284, 1.0333860368164096, 1.1666533544657796, 1.2833522751516284, 1.3831937797704086, 1.5165140254457583, 1.716441786708856, 1.7997456888515444, 2.3162298821371223, 2.516255800831459, 2.632454311084075, 2.816127073455391, 2.9825776975412737, 3.082470205530626]",2017_Jan_26_1056,60.0366871062,famFaceFilter,001,5,
31,./img/edges5_GeorgeClooney4_2.png,0,24,24,30,,,None,None,1,1.24988861056,None,None,None,None,None,None,1,0.0836612465164,George Clooney,"['lshift', 'g', 'e', 'o', 'r', 'g', 'e', 'space', 'lshift', 'v', 'backspace', 'lshift', 'c', 'l', 'o', 'o', 'n', 'e', 'y', 'return']","[0.20039545255167468, 0.3171309416920849, 0.5000639947957097, 0.583422749620695, 0.7169412348139304, 0.8500013312195733, 0.9166710773351952, 1.066682577152278, 1.233228150909781, 1.416652632719888, 1.7663506703092935, 1.8662874453757468, 2.0330562791723423, 2.1828156491174013, 2.6342323720000422, 2.766029252838962, 2.932403532256103, 3.0825138310556213, 3.3324483125743427, 3.4990939684184923]",2017_Jan_26_1056,60.0366871062,famFaceFilter,001,5,
12,./img/edges5_UrsulavonderLeyen4_1.png,0,25,25,11,,,None,None,1,1.01673552122,None,None,None,None,None,None,4,0.25028252339,Ursula von der Leyen,"['lshift', 'u', 'r', 's', 'u', 'l', 'a', 'space', 'v', 'o', 'n', 'space', 'd', 'e', 'r', 'lshift', 'l', 'e', 'y', 'backspace', 'backspace', 'backspace', 'backspace', 'space', 'lshift', 'backspace', 'r', 'backspace', 'r', 'space', 'lshift', 'l', 'e', 'y', 'e', 'n', 'return']","[0.4502696281988392, 0.616540617769715, 0.8497540129874324, 1.0000128310366563, 1.1165959516156363, 1.2998010226983752, 1.4164489400118327, 1.7330169199676675, 1.9663429075326349, 2.082835248525953, 2.2995450435146267, 2.466099919774024, 2.666039549746529, 2.7828401563974694, 2.865847020039837, 3.81546242575223, 4.0317805533450155, 4.115498256423052, 4.43208419982966, 4.831855999840627, 4.981780569383773, 5.131792069200856, 5.28170541158579, 5.481596925170379, 5.614787256599811, 5.981368693104741, 6.947574950095259, 7.5973678411237415, 7.897307439017823, 8.73023643430679, 9.080099992269425, 9.263451337170409, 9.413199479958166, 9.846406395502527, 10.06311939824991, 10.146040935498604, 10.429488481096996]",2017_Jan_26_1056,60.0366871062,famFaceFilter,001,5,
49,./img/edges5_RobertSeanLeonard(Wilson)2_6.png,0,26,26,48,,,None,None,1,1.21673577784,None,None,None,None,None,None,1,0.133675023842,,['return'],[0.13392009664403304],2017_Jan_26_1056,60.0366871062,famFaceFilter,001,5,
39,./img/edges5_AlysonHannigan(Lily)8_3.png,0,27,27,38,,,None,None,1,2.74914553315,None,None,None,None,None,None,1,0.117073586957,,['return'],[0.81674071778707],2017_Jan_26_1056,60.0366871062,famFaceFilter,001,5,
36,./img/edges5_AngelaMerkel1_1.png,0,28,28,35,,,None,None,1,1.18316561564,None,None,None,None,None,None,4,0.100322026945,Angela Merkel,"['lshift', 'a', 'n', 'g', 'e', 'l', 'a', 'space', 'lshift', 'm', 'e', 'r', 'k', 'e', 'l', 'return']","[0.26686695914941083, 0.38357646544045565, 0.533485958514575, 0.7001877501443232, 0.800248665491381, 0.9844439718344802, 1.083349452323091, 1.2166154868682497, 1.3665105450263582, 1.4996399290312183, 1.7163240619465796, 1.8831188785925406, 2.066419861675058, 2.166174436019901, 2.2661481003169683, 2.516058523641732]",2017_Jan_26_1056,60.0366871062,famFaceFilter,001,5,
26,./img/edges5_NicoleKidman7_1.png,0,29,29,25,,,None,None,1,1.56642772069,None,None,None,None,None,None,1,0.0837517053251,Nicole Kidman,"['lshift', 'n', 'i', 'c', 'o', 'l', 'e', 'space', 'lshift', 'k', 'i', 'd', 'm', 'a', 'n', 'return']","[0.3334940420691055, 1.0332952572325667, 1.233160787966881, 1.3499915475549642, 1.4499122838251424, 1.59957766642583, 1.6830929598991133, 1.8164722283445371, 1.982967440282664, 2.2495620606778175, 2.3992976932049714, 2.4494439509844597, 2.6159760521532007, 2.7491201918501247, 2.815825223317006, 3.065879354252502]",2017_Jan_26_1056,60.0366871062,famFaceFilter,001,5,
6,./img/edges5_GuentherJauch3_1.png,0,30,30,5,,,None,None,1,0.850069977267,None,None,None,None,None,None,3,0.117048887213,Günther Jauch,"['lshift', 'g', u'\xfc', 'n', 't', 'h', 'e', 'r', 'space', 'lshift', 'j', 'a', 'u', 'c', 'h', 'return']","[0.28296766482526436, 0.6833980177971171, 1.0667059937941303, 1.3831139065659954, 1.5332870774454932, 1.6998348966344565, 1.7832834687169452, 1.8830457416834179, 1.9997998358267068, 2.366192976867751, 2.5661287575285314, 2.666053663886487, 2.8160693337904377, 2.966094626971426, 3.0659245836568516, 3.365585427278347]",2017_Jan_26_1056,60.0366871062,famFaceFilter,001,5,
60,./img/edges5_TomCruise1_1.png,0,31,31,59,,,None,None,1,1.08349476381,None,None,None,None,None,None,1,0.116815362344,Tom Cruise,"['lshift', 't', 'o', 'm', 'space', 'lshift', 'c', 'r', 'u', 'i', 's', 'e', 'return']","[0.2336772371954794, 0.46683674205814896, 0.7167660911627536, 0.8002428915251585, 0.9166909654422852, 1.000037210006667, 1.182974753972303, 1.399818954071634, 1.5165448199340972, 1.66635423092157, 1.7498544479267366, 1.9496683337392824, 2.14953097749094]",2017_Jan_26_1056,60.0366871062,famFaceFilter,001,5,
64,./img/edges5_EmilyDeschanel3_1.png,0,32,32,63,,,None,None,1,1.06664985801,None,None,None,None,None,None,1,0.100335178757,,['return'],[0.16669441378417105],2017_Jan_26_1056,60.0366871062,famFaceFilter,001,5,
21,./img/edges5_JoshRadnor(Ted)3_1.png,0,33,33,20,,,None,None,1,0.766752923311,None,None,None,None,None,None,1,0.116589536097,,['return'],[0.33380134539766004],2017_Jan_26_1056,60.0366871062,famFaceFilter,001,5,
35,./img/edges5_WillSmith1_1.png,0,34,34,34,,,None,None,1,1.03306141159,None,None,None,None,None,None,1,0.699884296127,Will Smith,"['lshift', 'w', 'i', 'l', 'l', 'space', 'lshift', 's', 'm', 'i', 't', 'h', 'return']","[0.3169865925283375, 0.5668309360144121, 0.7167285603800337, 0.883464675032883, 1.0166181172307915, 1.1001170511326563, 1.15005640844538, 1.2496438585367287, 1.3165913965967775, 1.4496787589559972, 1.5831048606851255, 1.6497531148143025, 1.9996038417402815]",2017_Jan_26_1056,60.0366871062,famFaceFilter,001,5,
43,./img/edges5_BarackObama1_3.png,0,35,35,42,,,None,None,1,1.08336260414,None,None,None,None,None,None,4,0.167050154278,Barack Obama,"['lshift', 'b', 'a', 'r', 'a', 'c', 'k', 'space', 'lshift', 'o', 'b', 'a', 'm', 'a', 'return']","[0.2835084930229641, 0.616973986035191, 0.7002637740370119, 0.916822162792414, 1.1000387818085073, 1.2333718585205133, 1.3332156085707538, 1.44977178397221, 1.5498237175934264, 1.666562414492546, 1.866366356251092, 1.9496439547692717, 2.099669889501456, 2.1830344182935733, 2.332796033669183]",2017_Jan_26_1056,60.0366871062,famFaceFilter,001,5,
70,./img/edges5_BastianSchweinsteiger1_1.png,0,36,36,69,,,None,None,1,1.38340324644,None,None,None,None,None,None,5,0.133246787991,Bastian Schweinsteiger,"['lshift', 'b', 'a', 's', 't', 'i', 'a', 'n', 'space', 'lshift', 's', 'c', 'h', 'w', 'e', 'i', 'n', 's', 't', 'e', 'i', 'g', 'e', 'r', 'return']","[0.28373367771837366, 0.8503756767167943, 1.0002210146076322, 1.0667451284562048, 1.1665167039245716, 1.3500727038617697, 1.4500174983268153, 1.5498288500084527, 1.6663888747216333, 1.7664395252386385, 2.1164958695289897, 2.3330074250006874, 2.399610770500658, 2.49949333443692, 2.5996264243658516, 2.682746842682718, 2.782460357710079, 2.8826537535114767, 3.0325642089137546, 3.132707884447882, 3.28256092096035, 3.382528811291195, 3.532327636674381, 3.599077897544703, 4.265522266499829]",2017_Jan_26_1056,60.0366871062,famFaceFilter,001,5,
24,./img/edges5_JasonSegel(Marshall)7_1.png,0,37,37,23,,,None,None,1,1.41653939882,None,None,None,None,None,None,1,0.100214246237,Jason Segal,"['lshift', 'j', 'a', 's', 'o', 'n', 'space', 'lshift', 's', 'e', 'g', 'a', 'l', 'return']","[0.2502549366618041, 0.3671748719543757, 0.4834869368824002, 0.5667077580619662, 0.6168100695413159, 0.7836491532643777, 0.916533785242791, 0.966618454046511, 1.116791304149956, 1.2666927778263926, 1.399860013389116, 1.5165512354524253, 1.8164950034342837, 2.049709040203197]",2017_Jan_26_1056,60.0366871062,famFaceFilter,001,5,
32,./img/edges5_Ice-T(OdafinFinTutuola)7_1.png,0,38,38,31,,,None,None,1,1.05000928646,None,None,None,None,None,None,1,0.133511748899,,['return'],[0.15042530075152172],2017_Jan_26_1056,60.0366871062,famFaceFilter,001,5,
59,./img/edges5_BastianSchweinsteiger3_1.png,0,39,39,58,,,None,None,1,0.916667869576,None,None,None,None,None,None,5,0.250194630788,Bastian Schweinsteiger,"['lshift', 'b', 'a', 's', 't', 'i', 'a', 'n', 'space', 'lshift', 's', 'c', 'h', 'w', 'e', 'i', 'n', 's', 't', 'e', 'i', 'g', 'e', 'r', 'return']","[0.20040347195026698, 0.45041846822459775, 0.5335376034381625, 0.6169605134464291, 0.7668231732377535, 0.9832734605079168, 1.0833472068916308, 1.1835014680309541, 1.299959806777224, 1.3832678790076898, 1.566609600630727, 1.7495994310720562, 1.8162775173614136, 1.933118862554693, 2.0162912465702902, 2.0997972375416794, 2.199497600756331, 2.3162491286921068, 2.4327587915859112, 2.516141925380907, 2.6494403582937593, 2.7660645381902214, 2.8990832545023295, 2.965822608992312, 3.399100095238282]",2017_Jan_26_1056,60.0366871062,famFaceFilter,001,5,
72,./img/edges5_EmilyDeschanel6_12.png,0,40,40,71,,,None,None,1,0.95021686056,None,None,None,None,None,None,1,0.100450978864,,['return'],[0.11704952876425523],2017_Jan_26_1056,60.0366871062,famFaceFilter,001,5,
34,./img/edges5_KatjaBurkard1_1.png,0,41,41,33,,,None,None,1,0.933260003959,None,None,None,None,None,None,4,0.19989343824,Katja Burkhard,"['lctrl', 'lshift', 'k', 'a', 't', 'j', 'a', 'space', 'lshift', 'b', 'u', 'r', 'k', 'h', 'a', 'r', 'd', 'return']","[3.5821845545751785, 4.065396586495808, 4.331887596269553, 4.448662861623234, 5.13166664581604, 5.4482548346550175, 5.581290872866703, 5.7315897879061595, 5.86456904878105, 6.097860713322916, 6.647711376093866, 6.814097844995558, 7.280886470666701, 7.463939493963153, 7.563919253003405, 7.813811712876486, 7.980545261321822, 8.147062286022447]",2017_Jan_26_1056,60.0366871062,famFaceFilter,001,5,
13,./img/edges5_MariskaHargitay(Liv)6_5.png,0,42,42,12,,,None,None,1,1.29985170529,None,None,None,None,None,None,1,0.133757142476,,['return'],[0.5003757889890039],2017_Jan_26_1056,60.0366871062,famFaceFilter,001,5,
68,./img/edges5_MariskaHargitay(Liv)4_4.png,0,43,43,67,,,None,None,1,1.05029862634,None,None,None,None,None,None,1,0.149957609463,,['return'],[0.3838228213462571],2017_Jan_26_1056,60.0366871062,famFaceFilter,001,5,
62,./img/edges5_AlysonHannigan(Lily)5_4.png,0,44,44,61,,,None,None,1,0.650204767308,None,None,None,None,None,None,1,0.133535165542,,['return'],[0.41690829112758365],2017_Jan_26_1056,60.0366871062,famFaceFilter,001,5,
54,./img/edges5_KatjaBurkard5_3.png,0,45,45,53,,,None,None,1,1.09982899436,None,None,None,None,None,None,3,0.316531732276,Katja Burkhard,"['lshift', 'k', 'a', 't', 'h', 'backspace', 'j', 'a', 'space', 'lshift', 'b', 'u', 'r', 'k', 'h', 'a', 'r', 'd', 'return']","[1.1165417404854452, 1.3001015897334582, 1.4165179068340876, 1.5332036757072274, 1.6997540611027944, 2.082886251896525, 2.299581932745241, 2.3990474879874455, 2.5161188295141983, 2.699369771552483, 3.0326437613412054, 3.2657978130137053, 3.449017319012455, 4.198783553561952, 4.415357018785471, 4.5319356485015305, 4.765136533457735, 4.931877138973505, 6.081138664692844]",2017_Jan_26_1056,60.0366871062,famFaceFilter,001,5,
9,./img/edges5_RobertSeanLeonard(Wilson)8_1.png,0,46,46,8,,,None,None,1,1.26661162152,None,None,None,None,None,None,1,0.150091052245,,['return'],[0.4670195843318652],2017_Jan_26_1056,60.0366871062,famFaceFilter,001,5,
17,./img/edges5_NeilPatrickHarris(Barney)3_7.png,0,47,47,16,,,None,None,1,1.24990817789,None,None,None,None,None,None,1,0.117082889459,Neil Patrick Harris,"['lshift', 'n', 'e', 'i', 'l', 'space', 'lshift', 'p', 'a', 't', 'r', 'i', 'c', 'k', 'space', 'lshift', 'h', 'a', 'r', 'r', 'i', 's', 'return']","[0.28374554642778094, 0.5334622210975795, 0.6834288122854559, 0.7669383317916072, 0.933292402326515, 1.0501238034657945, 1.1666902436963937, 1.2998369496008308, 1.4332851848676, 1.6830852612765739, 1.8496032483053568, 2.016287718035528, 2.1162584953490295, 2.2163575830300033, 2.3327921843592776, 2.4823680704785147, 2.616087040621096, 2.7328363231254116, 2.949192943828166, 3.0992018774377357, 3.21593223416221, 3.315630672721454, 3.7654768767079076]",2017_Jan_26_1056,60.0366871062,famFaceFilter,001,5,
8,./img/edges5_LeonardoDiCaprio3_1.png,0,48,48,7,,,None,None,1,4.81525199675,None,None,None,None,None,None,1,0.10029957263,Leonardo DiCaprio,"['l', 'lshift', 'e', 'o', 'n', 'a', 'r', 'backspace', 'backspace', 'backspace', 'backspace', 'backspace', 'backspace', 'lshift', 'l', 'e', 'o', 'n', 'a', 'r', 'd', 'o', 'space', 'lshift', 'd', 'i', 'lshift', 'c', 'a', 'p', 'r', 'i', 'o', 'return']","[0.2169683403790259, 0.3169634966625381, 0.5499930872783807, 0.6333162359769631, 0.7501566188420838, 0.9333418018177326, 1.1499043606600026, 1.48327714943116, 2.3661034803863004, 2.5493428744921403, 2.6827516543216916, 2.832600199971239, 2.9825616587449986, 3.932231275587583, 4.165206975849287, 4.5151994857315, 4.731926602620661, 5.014950082455471, 5.131700648063088, 5.381302164179033, 5.548169476182011, 5.648228146097608, 5.831467219427395, 6.047909487300785, 6.297836911749073, 6.597464073898664, 6.764162016217597, 6.964218087848167, 7.147431819880694, 7.4805938588733625, 7.63076702975286, 7.780537626854311, 7.997026728011406, 8.230342771523283]",2017_Jan_26_1056,60.0366871062,famFaceFilter,001,5,
16,./img/edges5_BritneySpears7_1.png,0,49,49,15,,,None,None,1,1.18312455633,None,None,None,None,None,None,2,0.0671181908492,Britney Spears,"['lshift', 'b', 'r', 'i', 't', 'n', 'e', 'y', 'space', 'lshift', 's', 'p', 'e', 'a', 'r', 's', 'return']","[0.3168993414783472, 1.4500575953161388, 1.716540906467344, 1.8330521732405032, 2.0329911616609024, 2.2161558149773555, 2.299452339274467, 2.6157422065080027, 2.882616222728757, 2.9992272508125097, 3.1325811779597643, 3.282356265924136, 3.3990439594526833, 3.5155423951882767, 3.7323679902838194, 3.898842993339713, 4.0988490239269595]",2017_Jan_26_1056,60.0366871062,famFaceFilter,001,5,
25,./img/edges5_JoachimLoew8_1.png,0,50,50,24,,,None,None,1,1.46660385874,None,None,None,None,None,None,5,0.300221239151,Joachim Löw,"['lshift', 'j', 'o', 'a', 'c', 'h', 'i', 'm', 'space', 'lshift', 'l', u'\xf6', 'w', 'return']","[0.43365632260520215, 1.1681032616170341, 1.3834067749794485, 1.4831170822481, 1.6000392629721318, 1.6995038558870874, 1.8330547394480163, 1.9829122668243144, 2.1162944222523947, 2.249523567566939, 2.3995315388483505, 2.5829326040175147, 2.7660167425783584, 2.915820058823556]",2017_Jan_26_1056,60.0366871062,famFaceFilter,001,5,
40,./img/edges5_NicoleKidman3_1.png,0,51,51,39,,,None,None,1,1.61644021491,None,None,None,None,None,None,1,0.0833770390527,Nicole Kidman,"['lshift', 'n', 'i', 'c', 'l', 'backspace', 'o', 'l', 'e', 'space', 'lshift', 'k', 'i', 'd', 'm', 'a', 'n', 'return']","[0.2669747398585969, 0.36682554697927117, 0.7001585595362485, 0.8499628381096045, 0.9665639221402671, 1.9996432971784088, 2.399139871452462, 2.5494089543317386, 2.649380052421293, 2.7989450321592813, 2.9824955789063097, 3.248894205215038, 3.4156614351322787, 3.515588907696838, 3.6322477313924537, 3.7489036681045036, 3.8321209607493074, 4.081869392235603]",2017_Jan_26_1056,60.0366871062,famFaceFilter,001,5,
55,./img/edges5_JoachimLoew1_1.png,0,52,52,54,,,None,None,1,0.916542766968,None,None,None,None,None,None,5,0.233577796661,Joachim Löw,"['lshift', 'j', 'o', 'a', 'c', 'h', 'i', 'm', 'space', 'lshift', 'l', u'\xf6', 'w', 'return']","[0.2836669563275791, 0.46687780137654045, 0.6501768598027411, 0.7000450048617495, 0.8335731133329318, 0.9833626362133145, 1.1498459794429436, 1.2332021680604157, 1.3666831224718408, 1.4829743369646167, 1.6661219891575456, 2.06634608321383, 2.2327954241955013, 2.582860108659588]",2017_Jan_26_1056,60.0366871062,famFaceFilter,001,5,
29,./img/edges5_TomCruise4_1.png,0,53,53,28,,,None,None,1,1.00015942563,None,None,None,None,None,None,1,0.117081927132,Tom Cruise,"['lshift', 't', 'o', 'm', 'space', 'lshift', 'c', 'r', 'u', 'i', 's', 'e', 'return']","[0.23359223157694942, 0.5835067929110664, 0.8997815836764858, 0.9832927070629012, 1.0666960497401305, 1.1999495740255952, 1.3497281905247291, 1.733040015833467, 2.166215495337383, 2.3328367722115217, 2.4827513977006674, 2.649456397089125, 3.0158755209795345]",2017_Jan_26_1056,60.0366871062,famFaceFilter,001,5,
4,./img/edges5_LeonardoDiCaprio1_1.png,0,54,54,3,,,None,None,1,0.949997770607,None,None,None,None,None,None,1,0.100423392135,Leonardo DiCaprio,"['lshift', 'l', 'e', 'o', 'n', 'a', 'r', 'd', 'o', 'space', 'lshift', 'd', 'i', 'lshift', 'c', 'a', 'p', 'r', 'i', 'o', 'return']","[0.2503421877117944, 0.3835662006113125, 0.5501425688571544, 0.6335937071471562, 0.7833270942419404, 0.9000969064054516, 1.1498090902123295, 1.2998995009047576, 1.4000280999707684, 1.5996841640308048, 1.699767212916413, 1.9493674459281465, 2.0993051672830916, 2.332858264198876, 2.7166300821736513, 2.866063543785458, 3.1488769153938847, 3.265736224037937, 3.4489987140095764, 3.5989826270970298, 4.282107343811731]",2017_Jan_26_1056,60.0366871062,famFaceFilter,001,5,
27,./img/edges5_OmarEpps(DrEricForeman)2_2.png,0,55,55,26,,,None,None,1,1.19974556054,None,None,None,None,None,None,1,0.133679835481,,['return'],[0.46690987896818115],2017_Jan_26_1056,60.0366871062,famFaceFilter,001,5,
37,./img/edges5_JasonSegel(Marshall)9_1.png,0,56,56,36,,,None,None,1,1.06661072335,None,None,None,None,None,None,1,0.100313686771,Jason Segal,"['lshift', 'j', 'a', 's', 'o', 'n', 'space', 'lshift', 's', 'e', 'g', 'a', 'l', 'return']","[0.23360281718305487, 0.3836682073533666, 0.4835058626613318, 0.5667818572992473, 0.6500860802179886, 0.7835538828167046, 0.9165863924936275, 0.983241382916276, 1.1331868028937606, 1.316250411796318, 1.4498988112363804, 1.5997585840441388, 1.866241253644148, 2.0994620267074424]",2017_Jan_26_1056,60.0366871062,famFaceFilter,001,5,
1,./img/edges5_BastianSchweinsteiger6_2.png,0,57,57,0,,,None,None,1,1.9826848367,None,None,None,None,None,None,5,0.133355851803,Bastian Schweinsteiger,"['lshift', 'b', 'a', 't', 'i', 'a', 'n', 'backspace', 'backspace', 'backspace', 'backspace', 's', 't', 'a', 'i', 'backspace', 'backspace', 'i', 'a', 'n', 'space', 'lshift', 's', 'c', 'h', 'w', 'e', 'i', 'n', 's', 't', 'e', 'i', 'g', 'e', 'r', 'return']","[0.23361853520236764, 0.41675367713469313, 0.5501983838667002, 0.7834502721943863, 0.9331624880787786, 1.050036873191857, 1.1665795760045512, 1.5830201758426483, 1.7330352041944934, 1.8661216042255546, 2.016298303640724, 2.499440406410031, 2.5993248950017005, 2.715910261012141, 2.8660151066214894, 3.315869971556822, 3.432242983908509, 3.682243224490776, 3.7988144763603486, 3.9154219759093394, 4.082210377036972, 4.1986440160371785, 4.448646822826959, 4.648510108130722, 4.731891958821507, 4.848302181179861, 4.948371436700654, 5.015026427124212, 5.11480698431842, 5.214957716922072, 5.364834811629407, 5.464872951885809, 5.581287023555888, 5.731407907960602, 5.864534084205843, 5.947965655163898, 6.5643253553153045]",2017_Jan_26_1056,60.0366871062,famFaceFilter,001,5,
56,./img/edges5_NeilPatrickHarris(Barney)1_1.png,0,58,58,55,,,None,None,1,1.03333920353,None,None,None,None,None,None,1,0.0999316426514,Neil Patrick Harris,"['lshift', 'n', 'e', 'i', 'l', 'space', 'lshift', 'p', 'a', 't', 'r', 'i', 'c', 'k', 'space', 'lshift', 'h', 'a', 'r', 'r', 'i', 's', 'return']","[0.21668477446746692, 0.3503877058137732, 0.4670048286398014, 0.5670439312243616, 0.7335583897183824, 0.8503041436870262, 0.9333312162125367, 1.0835351815803733, 1.2497028813058932, 1.466597122447638, 1.6164883312949314, 1.7331471549905473, 1.8832426980980017, 1.9663573424486458, 2.0994607436041406, 2.1995688130109556, 2.616090248380715, 2.782718903100431, 2.9993699960969025, 3.1491354607833273, 3.249526454550505, 3.3989169321894224, 3.648881566644377]",2017_Jan_26_1056,60.0366871062,famFaceFilter,001,5,
15,./img/edges5_LisaEdelstein(DrLisaCuddy)6_3.png,0,59,59,14,,,None,None,1,1.0833071099,None,None,None,None,None,None,1,0.10021777477,,['return'],[0.7335083486741496],2017_Jan_26_1056,60.0366871062,famFaceFilter,001,5,
18,./img/edges5_JoshRadnor(Ted)6_2.png,0,60,60,17,,,None,None,1,1.0335034408,None,None,None,None,None,None,1,0.117079360924,,['return'],[0.26713576936981553],2017_Jan_26_1056,60.0366871062,famFaceFilter,001,5,
41,./img/edges5_OmarEpps(DrEricForeman)3_1.png,0,61,61,40,,,None,None,1,0.733300806655,None,None,None,None,None,None,1,0.116946559694,,['return'],[0.6501431783308362],2017_Jan_26_1056,60.0366871062,famFaceFilter,001,5,
61,./img/edges5_NeilPatrickHarris(Barney)2_2.png,0,62,62,60,,,None,None,1,1.18324196031,None,None,None,None,None,None,1,0.150064107067,Neil Patrick Harris,"['lshift', 'n', 'e', 'i', 'l', 'space', 'lshift', 'p', 't', 'backspace', 'a', 't', 'r', 'i', 'c', 'k', 'space', 'lshift', 'h', 'a', 'r', 'r', 'i', 's', 'return']","[0.300234711739904, 0.6168953959358987, 0.7502788344672808, 0.8335788872991543, 1.0167297472507926, 1.1334482352676787, 1.2334081061999314, 1.4167187125594864, 1.7998784900819373, 2.2994914739365413, 2.9492590236677643, 3.215780186377742, 3.3989775588379416, 3.582367076072842, 3.7157094552876515, 3.8489058814584496, 4.048943348086141, 4.248763970192158, 4.48199115877469, 4.615247570042811, 4.848505553112773, 4.998504542668343, 5.131563035194631, 5.265053933659146, 5.664844659449955]",2017_Jan_26_1056,60.0366871062,famFaceFilter,001,5,
42,./img/edges5_JoachimLoew4_1.png,0,63,63,41,,,None,None,1,0.950035622165,None,None,None,None,None,None,5,0.266972815203,Joachim Löw,"['lshift', 'j', 'o', 'a', 'c', 'h', 'i', 'm', 'space', 'lshift', 'l', u'\xf6', 'w', 'return']","[0.267107220312937, 0.38372081460420304, 0.5501467389440222, 0.6503667591468911, 0.8168372713389545, 0.9001058881312929, 1.0835008585572723, 1.1835662647663412, 1.2828136923844795, 1.400050875060515, 1.5331773720818092, 1.7498971111244828, 1.9666113969760772, 2.33290060661966]",2017_Jan_26_1056,60.0366871062,famFaceFilter,001,5,
65,./img/edges5_LisaEdelstein(DrLisaCuddy)1_1.png,0,64,64,64,,,None,None,1,1.06667872784,None,None,None,None,None,None,1,0.117093475064,,['return'],[0.26714988351068314],2017_Jan_26_1056,60.0366871062,famFaceFilter,001,5,
3,./img/edges5_NicoleKidman5_1.png,0,65,65,2,,,None,None,1,1.01652862075,None,None,None,None,None,None,1,0.116973825648,Nicole Kidman,"['lshift', 'n', 'i', 'c', 'o', 'l', 'e', 'space', 'lshift', 'k', 'i', 'd', 'm', 'a', 'n', 'return']","[0.2336403479648652, 0.36710013116498885, 0.5169942269958483, 0.6001707810983135, 0.8168122508168381, 0.9668006547672121, 1.1000419895672167, 1.2167046625736475, 1.3999440566794874, 1.5498326993192677, 1.7331240591238384, 1.816242552786207, 1.9663015274381905, 2.0996830413150747, 2.166196569557542, 2.749296939380656]",2017_Jan_26_1056,60.0366871062,famFaceFilter,001,5,
67,./img/edges5_LeonardoDiCaprio2_1.png,0,66,66,66,,,None,None,1,1.083481612,None,None,None,None,None,None,1,0.116949125902,Leonardo Dicaprio,"['lshift', 'l', 'e', 'o', 'n', 'a', 'r', 'd', 'o', 'space', 'lshift', 'd', 'i', 'c', 'a', 'p', 'r', 'i', 'o', 'return']","[0.21700907892045507, 0.9667669732962167, 1.1833404385197355, 1.2499627097986377, 1.3997397224193264, 1.516614749083601, 1.7496613408238773, 1.9329818912365226, 2.049612486651313, 2.233019646561843, 2.2827934835013366, 2.5325027803246485, 2.66608157139126, 2.8491621814173413, 3.065661547403579, 3.282400533001237, 3.432361029446838, 3.582319280460979, 3.74887896835844, 4.481979610840426]",2017_Jan_26_1056,60.0366871062,famFaceFilter,001,5,
47,./img/edges5_UrsulavonderLeyen5_1.png,0,67,67,46,,,None,None,1,1.56611785115,None,None,None,None,None,None,4,0.233861683349,Ursula von der Leyen,"['lshift', 'u', 'r', 's', 'u', 'l', 'a', 'space', 'v', 'o', 'n', 'space', 'd', 'e', 'r', 'space', 'lshift', 'l', 'e', 'y', 'e', 'n', 'return']","[0.31696413821464375, 0.7668886115243367, 1.000102327518107, 1.1832900767012688, 1.3163742313008697, 1.4998538865693263, 1.5994326757108865, 1.7663930127309868, 2.1162783834561196, 2.216143625492805, 2.4493868528707026, 2.5990198371036968, 2.782696128009775, 2.83251423202546, 2.9325581462489936, 3.11574525388005, 3.265798133789758, 3.415548201232923, 3.5822150282874645, 3.79856074260897, 4.0653853593385065, 4.215472883047369, 4.865195844925438]",2017_Jan_26_1056,60.0366871062,famFaceFilter,001,5,
22,./img/edges5_JasonSegel(Marshall)6_1.png,0,68,68,21,,,None,None,1,0.983367447852,None,None,None,None,None,None,1,0.133716403935,Jason Segal,"['lshift', 'j', 'a', 's', 'o', 'n', 'space', 'lshift', 's', 'e', 'g', 'a', 'l', 'return']","[0.23371059789133142, 0.4003360448523381, 0.5170808364937329, 0.6002205013664934, 0.7669232553234906, 0.9501013812287056, 1.0999614748125168, 1.2000249563661782, 1.3333682979082369, 1.5498724755334479, 1.6830884690361927, 1.7996051889995215, 1.9830986376327928, 2.2994504146190593]",2017_Jan_26_1056,60.0366871062,famFaceFilter,001,5,
19,./img/edges5_HughLaurie(DrHouse)2_1.png,0,69,69,18,,,None,None,1,1.18320186332,None,None,None,None,None,None,1,0.133522655281,,['return'],[0.2005430094750409],2017_Jan_26_1056,60.0366871062,famFaceFilter,001,5,
69,./img/edges5_GuentherJauch2_1.png,0,70,70,68,,,None,None,1,1.19999287877,None,None,None,None,None,None,3,0.616857223601,Günther Jauch,"['lshift', 'g', u'\xfc', 'n', 't', 'h', 'e', 'r', 'space', 'lshift', 'j', 'a', 'u', 'c', 'h', 'return']","[0.6500838347865283, 1.033418755960156, 1.3666099855618086, 1.5832023765642589, 1.7663606143623838, 1.8662544054559476, 1.9495656854451227, 2.04956693647091, 2.1663338616508554, 2.3660203994240874, 2.449496237458334, 2.6160357164735615, 2.6994028114722823, 2.765932378511934, 2.915921103238361, 3.2159068928649504]",2017_Jan_26_1056,60.0366871062,famFaceFilter,001,5,
11,./img/edges5_RobertSeanLeonard(Wilson)1_1.png,0,71,71,10,,,None,None,1,1.11657381808,None,None,None,None,None,None,1,0.116980241165,,['return'],[0.15015520742872468],2017_Jan_26_1056,60.0366871062,famFaceFilter,001,5,
42,./img/gray_NicoleKidman5_1.png,0,0,0,41,,,None,None,1,1.76650720896,None,None,None,None,None,None,1,0.116701486892,Nicole Kidman,"['lshift', 'n', 'i', 'c', 'o', 'l', 'e', 'space', 'lshift', 'k', 'i', 'd', 'm', 'a', 'n', 'return']","[0.23375967660649621, 0.40012882360861113, 0.5668774485220638, 0.733541067817896, 0.8168815384151458, 0.9998280641075326, 1.11673099827658, 1.2330619889835361, 1.4000688385121975, 1.6332241732879993, 1.7830679072994826, 1.883212545160859, 2.016037192042859, 2.116316235013983, 2.2159543677007605, 2.44934900131193]",2017_Jan_26_1056,60.0366871062,famFaceFilter,001,5,
11,./img/gray_EmilyDeschanel6_12.png,0,1,1,10,,,None,None,1,0.98343128226,None,None,None,None,None,None,1,0.116789700271,,['return'],[0.10038586135215155],2017_Jan_26_1056,60.0366871062,famFaceFilter,001,5,
32,./img/gray_MariskaHargitay(Liv)6_5.png,0,2,2,31,,,None,None,1,0.78341049598,None,None,None,None,None,None,1,0.100394201526,,['return'],[0.15025144020364678],2017_Jan_26_1056,60.0366871062,famFaceFilter,001,5,
30,./img/gray_BarackObama4_1.png,0,3,3,29,,,None,None,1,0.950125760199,None,None,None,None,None,None,4,0.200269387616,Barack Obama,"['lshift', 'b', 'a', 'r', 'a', 'c', 'k', 'space', 'lshift', 'o', 'b', 'a', 'm', 'a', 'return']","[0.30023503251595685, 0.4501695461121926, 0.6168267498887872, 0.816834384356298, 0.9999643938735971, 1.1497657854633871, 1.2833189144557764, 1.3996774918914525, 1.483198880107011, 1.5998647608730607, 1.8164221873003044, 1.8994774881066405, 2.04972924908634, 2.1328451765411955, 2.7827683025916485]",2017_Jan_26_1056,60.0366871062,famFaceFilter,001,5,
7,./img/gray_OmarEpps(DrEricForeman)1_5.png,0,4,4,6,,,None,None,1,1.06631304329,None,None,None,None,None,None,1,0.0837353457537,,['return'],[0.40040404934734397],2017_Jan_26_1056,60.0366871062,famFaceFilter,001,5,
27,./img/gray_LeonardoDiCaprio1_1.png,0,5,5,26,,,None,None,1,1.49982565829,None,None,None,None,None,None,1,0.133689458758,Leonardo Dicaprio,"['lshift', 'l', 'e', 'o', 'n', 'a', 'r', 'd', 'o', 'space', 'lshift', 'd', 'i', 'c', 'a', 'p', 'r', 'i', 'o', 'return']","[0.23292758387378854, 0.46696697708102874, 0.6001175322962808, 0.6836161454211833, 0.8169075212645112, 0.9166592086257879, 1.1499896870536759, 1.3166494570377836, 1.4165624946863318, 1.5664841772459113, 1.666501146291921, 1.9664728217785523, 2.166376845623745, 2.316176954110233, 3.1826559027094845, 3.4991504249792342, 3.6824600690115403, 3.798820250326571, 3.9989606860235654, 4.233145711497855]",2017_Jan_26_1056,60.0366871062,famFaceFilter,001,5,
15,./img/gray_GeorgeClooney11_1.png,0,6,6,14,,,None,None,1,1.03304601434,None,None,None,None,None,None,1,0.0669539535793,George Clooney,"['lshift', 'g', 'e', 'o', 'r', 'g', 'e', 'space', 'lshift', 'c', 'o', 'backspace', 'l', 'o', 'o', 'n', 'e', 'y', 'return']","[0.23345429793243966, 0.3334680592197401, 0.5333749700475892, 0.6667763720315634, 0.7832975828578128, 1.049858201005918, 1.1331383657307015, 1.2830950128654877, 1.816286178311202, 1.9994572471459833, 2.116236041035336, 2.5659767097440636, 2.915865929780921, 3.0988987441951394, 3.3156425414308615, 3.5153098326481995, 3.632307716489777, 3.9986617228687464, 4.198675452077623]",2017_Jan_26_1056,60.0366871062,famFaceFilter,001,5,
34,./img/gray_RobertSeanLeonard(Wilson)2_6.png,0,7,7,33,,,None,None,1,0.916697380961,None,None,None,None,None,None,1,0.117046641781,,['return'],[0.11698697746032849],2017_Jan_26_1056,60.0366871062,famFaceFilter,001,5,
68,./img/gray_Ice-T(OdafinFinTutuola)7_1.png,0,8,8,67,,,None,None,1,0.683605559817,None,None,None,None,None,None,1,0.116961315387,,['return'],[0.1505876133660422],2017_Jan_26_1056,60.0366871062,famFaceFilter,001,5,
70,./img/gray_WillSmith5_1.png,0,9,9,69,,,None,None,1,1.0834883483,None,None,None,None,None,None,1,0.100291553233,Will Smith,"['lshift', 'w', 'i', 'l', 'l', 'space', 'lshift', 's', 'm', 'i', 't', 'h', 'return']","[0.23368076573024155, 0.4501884718902147, 0.549987634088211, 0.7497986329171908, 0.8998062834225493, 0.967815589773636, 1.0998790354005905, 1.1998988914301663, 1.316203899287757, 1.4830724943949463, 1.8996128555436371, 1.966160386034062, 2.216164155151091]",2017_Jan_26_1056,60.0366871062,famFaceFilter,001,5,
26,./img/gray_BarackObama1_3.png,0,10,10,25,,,None,None,1,1.13312970478,None,None,None,None,None,None,4,0.233385010334,Barack Obama,"['lshift', 'b', 'capslock', 'a', 'r', 'a', 'c', 'k', 'space', 'lshift', 'o', 'b', 'a', 'm', 'a', 'return']","[0.3670702990048085, 0.5170105865681762, 0.6837973838155449, 0.8336645344697899, 1.0335018369232785, 1.1833763654231007, 1.2998953308178898, 1.7498005575725983, 1.966363757966974, 2.249626215861099, 2.4490971922168683, 2.4993489852740822, 2.6495423650358134, 2.7161399365695615, 3.665413074377284]",2017_Jan_26_1056,60.0366871062,famFaceFilter,001,5,
54,./img/gray_LeonardoDiCaprio3_1.png,0,11,11,53,,,None,None,1,1.96636119176,None,None,None,None,None,None,1,0.0836631711709,Leonardo DiCaprio,"['lshift', 'l', 'e', 'o', 'n', 'a', 'r', 'd', 'o', 'space', 'lshift', 'd', 'o', 'backspace', 'i', 'lshift', 'c', 'a', 'p', 'r', 'i', 'i', 'o', 'backspace', 'backspace', 'o', 'return']","[0.23366601003817777, 0.33358385932569945, 0.4836325691485399, 0.5334323889364896, 0.6669130225718618, 1.0500243629312536, 1.299921634443308, 1.4662715348904385, 1.5331468983695231, 1.666492806119095, 1.7663930127309868, 1.9497360174582354, 2.0662719839765487, 2.6660408328498306, 2.965943220738154, 3.2823617191152152, 3.482340804524938, 3.632294885452211, 4.065519764447345, 4.232004070005132, 4.431935680579045, 4.598862015352097, 5.131564318297933, 5.281624896830181, 5.548118152035386, 5.881119482292888]",2017_Jan_26_1056,60.0366871062,famFaceFilter,001,5,
8,./img/gray_BastianSchweinsteiger6_2.png,0,12,12,7,,,None,None,1,1.03351049787,None,None,None,None,None,None,5,0.300244014241,Bastian Schweinsteiger,"['lshift', 'b', 'a', 't', 'backspace', 's', 't', 'i', 'n', 'a', 'backspace', 'backspace', 'a', 'n', 'space', 'lshift', 's', 'c', 'h', 'w', 'e', 'i', 'n', 's', 't', 'e', 'g', 'backspace', 'i', 'g', 'e', 'r', 'return']","[0.25023536932985735, 0.417026978217109, 0.5168036860995926, 0.799771350924857, 1.1333661166318052, 1.2167223052492773, 1.4166353108203111, 1.5497826582759444, 1.6665021086200795, 1.7497059286761214, 2.232785159366358, 2.382839963931474, 2.5159606869865456, 2.599248871109012, 2.7491833847052476, 2.899326402648512, 3.182538819499314, 3.365722077819555, 3.448809135441479, 3.5491071041915347, 3.615621273987017, 3.6821938249995583, 3.782146638861377, 3.848645090636637, 4.082161619096951, 4.165413555540908, 4.448469433743412, 4.8309632804594, 5.464656748916241, 5.748039497780155, 5.914605921971997, 5.964492351258741, 6.431019865331109]",2017_Jan_26_1056,60.0366871062,famFaceFilter,001,5,
12,./img/gray_BarackObama2_1.png,0,13,13,11,,,None,None,1,0.916328167879,None,None,None,None,None,None,4,0.200233781489,Barack Obama,"['lshift', 'b', 'a', 'r', 'a', 'c', 'k', 'space', 'lshift', 'o', 'b', 'a', 'm', 'a', 'return']","[0.26704659366441774, 0.41717774289827503, 0.5500277310775346, 0.7335150849685306, 0.9167259300174919, 1.066809925191592, 1.1666995461982879, 1.28347160379235, 1.3667222571330058, 1.4832858103809485, 1.6828260743341161, 1.783131100155515, 1.899896742231249, 1.9997491532312779, 2.1996480446623536]",2017_Jan_26_1056,60.0366871062,famFaceFilter,001,5,
9,./img/gray_RobertSeanLeonard(Wilson)8_1.png,0,14,14,8,,,None,None,1,0.900039808292,None,None,None,None,None,None,1,0.116993713755,,['return'],[0.11695746607529145],2017_Jan_26_1056,60.0366871062,famFaceFilter,001,5,
55,./img/gray_Ice-T(OdafinFinTutuola)6_1.png,0,15,15,54,,,None,None,1,0.683104507832,None,None,None,None,None,None,1,0.100391956094,,['return'],[0.1337292349717245],2017_Jan_26_1056,60.0366871062,famFaceFilter,001,5,
46,./img/gray_GuentherJauch3_1.png,0,16,16,45,,,None,None,1,0.849719048412,None,None,None,None,None,None,3,0.31665330635,Günther Jauch,"['lshift', 'g', u'\xfc', 'n', 't', 'h', 'e', 'r', 'space', 'lshift', 'j', 'a', 'u', 'c', 'h', 'return']","[0.30040536452816013, 0.7834393658131376, 1.20009584784475, 1.4164268064741918, 1.5663869821437402, 1.6496934504939418, 1.733045469024546, 1.8329812817628408, 1.9163846244400702, 2.0993888897983197, 2.449599848080652, 2.5994419782127807, 2.6995099506293627, 2.799229239622946, 2.8826434886823336, 3.2157866018960704]",2017_Jan_26_1056,60.0366871062,famFaceFilter,001,5,
53,./img/gray_Ice-T(OdafinFinTutuola)5_1.png,0,17,17,52,,,None,None,1,1.23338725577,None,None,None,None,None,None,1,0.133741103681,,['return'],[0.6329184738378899],2017_Jan_26_1056,60.0366871062,famFaceFilter,001,5,
3,./img/gray_KatjaBurkard1_1.png,0,18,18,2,,,None,None,1,1.16618117231,None,None,None,None,None,None,3,0.167590982475,Katja Burkhard,"['lshift', 'k', 'a', 't', 'h', 'backspace', 'j', 'a', 'space', 'lshift', 'b', 'u', 'r', 'k', 'h', 'a', 'r', 'd', 'return']","[0.25034764090196404, 0.4168784589674033, 0.5668415216205176, 0.7168122828952619, 0.899611251665192, 1.2666427367839788, 1.449804182340813, 1.534778685467245, 1.6663718735981092, 1.7997476135078614, 2.132813740500751, 2.349453285563868, 2.515829489636417, 3.2324454576692006, 3.415653415734596, 3.5322962006339367, 3.7155769748333114, 3.8987406658225154, 4.298793786314491]",2017_Jan_26_1056,60.0366871062,famFaceFilter,001,5,
60,./img/gray_EmilyDeschanel3_1.png,0,19,19,59,,,None,None,1,1.83314423593,None,None,None,None,None,None,1,0.150267799775,,['return'],[0.1500852782783113],2017_Jan_26_1056,60.0366871062,famFaceFilter,001,5,
1,./img/gray_JoachimLoew8_1.png,0,20,20,0,,,None,None,1,0.966654060174,None,None,None,None,None,None,5,0.200144285009,Joachim Löw,"['lshift', 'j', 'o', 'a', 'c', 'h', 'i', 'm', 'space', 'lshift', 'l', u'\xf6', 'w', 'return']","[0.2669689658923744, 0.38346900550823193, 0.5835504184360616, 0.6834644184118588, 0.7834926146151702, 0.8999265743923388, 1.066527321607282, 1.1329385223325517, 1.2498995169435148, 1.4664758691505995, 1.783165423178616, 1.9330072325346919, 2.099454328084903, 2.282791879621982]",2017_Jan_26_1056,60.0366871062,famFaceFilter,001,5,
36,./img/gray_TomCruise5_1.png,0,21,21,35,,,None,None,1,1.0167903739,None,None,None,None,None,None,1,0.116593385408,Tom Cruise,"['lshift', 't', 'o', 'm', 'space', 'lshift', 'c', 'u', 'backspace', 'r', 'u', 'i', 's', 'e', 'return']","[0.21720539378293324, 0.5336315907825337, 0.8001363939201838, 0.9168077278764031, 0.9834235836378866, 1.116751207159723, 1.3000153010116264, 1.79978386118637, 2.116382956405687, 2.2997349428587768, 2.449449724950682, 2.6495497428823, 2.7660645381902214, 2.9327053823953975, 3.0826832007405756]",2017_Jan_26_1056,60.0366871062,famFaceFilter,001,5,
33,./img/gray_KatjaBurkard4_1.png,0,22,22,32,,,None,None,1,0.7999808176,None,None,None,None,None,None,3,0.133670532979,Katja Burkhard,"['lshift', 'k', 'a', 't', 'j', 'a', 'space', 'lshift', 'b', 'u', 'r', 'k', 'h', 'a', 'r', 'd', 'return']","[0.2667030426564452, 0.45035623769672384, 0.5501945345558852, 0.8167070363160747, 1.0332378383427567, 1.1665956148008263, 1.2832428905630877, 1.3832114224460383, 1.6998458030166148, 1.9161966497522371, 2.0495415951736504, 2.5827683667475867, 2.7658659778971924, 2.866012861190029, 3.0821856772909086, 3.2823803241190035, 3.6155908002756405]",2017_Jan_26_1056,60.0366871062,famFaceFilter,001,5,
52,./img/gray_EmilyDeschanel5_1.png,0,23,23,51,,,None,None,1,0.816638390269,None,None,None,None,None,None,1,0.133403968191,,['return'],[0.0838588444812558],2017_Jan_26_1056,60.0366871062,famFaceFilter,001,5,
61,./img/gray_AlysonHannigan(Lily)8_3.png,0,24,24,60,,,None,None,1,0.766764792021,None,None,None,None,None,None,1,0.1004811318,,['return'],[0.13361952960804047],2017_Jan_26_1056,60.0366871062,famFaceFilter,001,5,
22,./img/gray_GuentherJauch4_1.png,0,25,25,21,,,None,None,1,0.783222200516,None,None,None,None,None,None,3,0.266916679418,Günther Jauch,"['lshift', 'g', u'\xfc', 'n', 't', 'h', 'e', 'r', 'space', 'lshift', 'j', 'a', 'u', 'c', 'h', 'return']","[0.25040570134297013, 0.5832148868257718, 1.0167028020741782, 1.2167264753370546, 1.3664640325187065, 1.466700091516941, 1.5496857839489167, 1.6498092505999011, 1.716526792327386, 1.8829267338178397, 2.0161873151728287, 2.132963542854668, 2.2153609322522243, 2.2986741368958974, 2.4486885236965463, 2.7487496956637187]",2017_Jan_26_1056,60.0366871062,famFaceFilter,001,5,
49,./img/gray_NeilPatrickHarris(Barney)1_1.png,0,26,26,48,,,None,None,1,0.966883414955,None,None,None,None,None,None,1,0.100494283613,Neil Patrick Harris,"['lshift', 'n', 'e', 'i', 'l', 'space', 'lshift', 'p', 'a', 't', 'r', 'i', 'c', 'k', 'space', 'lshift', 'h', 'a', 'r', 'r', 'i', 's', 'return']","[0.2170023426260741, 0.4503036304458874, 0.6000052607250836, 0.683485910399213, 0.8668622758214042, 0.9831778692841908, 1.0497901965100027, 1.1833163803257776, 1.3331655675274305, 1.5498397563897015, 1.7165601530223284, 1.8496452699500878, 1.9330774824602486, 2.0662347739698816, 2.1992817185628155, 2.2494940561828116, 2.416222792989174, 2.549266209047346, 2.7493126574008784, 2.8993382713579194, 3.0491447953627357, 3.165891832435591, 3.3325172793965976]",2017_Jan_26_1056,60.0366871062,famFaceFilter,001,5,
28,./img/gray_GeorgeClooney4_2.png,0,27,27,27,,,None,None,1,1.01682694235,None,None,None,None,None,None,1,0.11698537358,George Clooney,"['lshift', 'g', 'e', 'o', 'r', 'g', 'e', 'space', 'lshift', 'c', 'l', 'o', 'o', 'n', 'e', 'y', 'return']","[0.3003437755523919, 0.9499942420725347, 1.216526952715867, 1.3513157105462597, 1.5665602011395094, 1.7664706405030302, 1.8996542356380814, 2.0995165586136864, 2.21612213350636, 2.465744500056644, 2.732613063086319, 2.8824750813255378, 3.032544000031521, 3.2157647891335728, 3.3156027652166813, 3.615539476128106, 3.7822085486141077]",2017_Jan_26_1056,60.0366871062,famFaceFilter,001,5,
48,./img/gray_LeonardoDiCaprio2_1.png,0,28,28,47,,,None,None,1,0.966854224346,None,None,None,None,None,None,1,0.0837347042016,Leonardo Dicaprio,"['lshift', 'l', 'e', 'o', 'n', 'a', 'r', 'd', 'o', 'space', 'lshift', 'd', 'i', 'c', 'a', 'p', 'r', 'i', 'o', 'return']","[0.25040794677443046, 0.5502391224081293, 0.7168299255699822, 0.7832587689708816, 0.9826501928982907, 1.1492416376122492, 1.3823953685086963, 1.5659513684458943, 1.6328090892493492, 1.8163769578959545, 1.866364110820541, 2.1329388431086045, 2.366171805657359, 2.5160325407923665, 3.099142854668571, 3.382507640080803, 3.54880749948461, 3.6656433914868103, 3.832244780253859, 4.082055442268029]",2017_Jan_26_1056,60.0366871062,famFaceFilter,001,5,
17,./img/gray_JasonSegel(Marshall)6_1.png,0,29,29,16,,,None,None,1,1.3168816988,None,None,None,None,None,None,1,0.10064697295,Jason Segal,"['lshift', 'j', 'a', 's', 'o', 'n', 'space', 'lshift', 's', 'e', 'g', 'a', 'l', 'return']","[0.2170405149608996, 0.35029692622902076, 0.4836155680250158, 0.5999914673602689, 0.6251268267787964, 0.7668802713506011, 0.916821200465165, 1.000126064936012, 1.150087844484915, 1.3498712565851747, 1.4665711395982726, 1.582808784512963, 2.4661942278935385, 2.9659704866908214]",2017_Jan_26_1056,60.0366871062,famFaceFilter,001,5,
37,./img/gray_TomCruise1_1.png,0,30,30,36,,,None,None,1,0.900160740813,None,None,None,None,None,None,1,0.0835576358941,Tom Cruise,"['lshift', 't', 'o', 'm', 'space', 'lshift', 'c', 'r', 'u', 'i', 's', 'e', 'return']","[0.21688878795157507, 0.33374617194112943, 0.6003533025968864, 0.7165646438861586, 0.7834515552985977, 0.9167493466602537, 1.1169330871061902, 1.6331872840582946, 1.766411617734775, 1.932682286529598, 2.0162957374341204, 2.216326788542574, 2.3828001877182032]",2017_Jan_26_1056,60.0366871062,famFaceFilter,001,5,
45,./img/gray_NicoleKidman7_1.png,0,31,31,44,,,None,None,1,0.866857784958,None,None,None,None,None,None,1,0.083615375559,Nicole Kidman,"['lshift', 'n', 'c', 'backspace', 'i', 'c', 'o', 'l', 'e', 'space', 'lshift', 'k', 'i', 'd', 'm', 'a', 'n', 'return']","[0.2336371402061559, 0.3671126414265018, 0.6334958704910605, 1.4498709037316075, 1.6830881482601399, 1.8165341380963582, 1.9163673025404933, 2.066355706491777, 2.1161657911088696, 2.283002308624418, 2.4661117884825217, 2.8326460709276944, 3.0159980573807843, 3.0659662845264393, 3.9654598114284454, 4.06540556822074, 4.1318716216283065, 4.382079083453391]",2017_Jan_26_1056,60.0366871062,famFaceFilter,001,5,
47,./img/gray_HughLaurie(DrHouse)5_3.png,0,32,32,46,,,None,None,1,0.866790422016,None,None,None,None,None,None,1,0.100576723024,,['return'],[0.1837760522175813],2017_Jan_26_1056,60.0366871062,famFaceFilter,001,5,
2,./img/gray_BastianSchweinsteiger1_1.png,0,33,33,1,,,None,None,1,0.833057947207,None,None,None,None,None,None,5,0.250227349932,Bastian Schweinsteiger,"['lshift', 'b', 'a', 's', 't', 'i', 'a', 'n', 'space', 'lshift', 's', 'c', 'h', 'w', 'e', 'i', 'n', 's', 't', 'e', 'i', 'g', 'e', 'r', 'return']","[0.25026263528343407, 0.41702152502602985, 0.5501541167895994, 0.6335269857554522, 0.7501479578922954, 0.9498867821394015, 1.06673133509139, 1.183291680579714, 1.316366853454383, 1.3664194446664624, 1.5331327842286555, 1.7163176464282515, 1.799774237908423, 1.899677010727828, 1.9829873283888446, 2.032866059053049, 2.115942210293724, 2.2161959119675885, 2.366248471101244, 2.482661901219217, 2.582649038105046, 2.732685237667283, 2.8659041181526845, 2.9321414583300793, 3.1158523930362207]",2017_Jan_26_1056,60.0366871062,famFaceFilter,001,5,
23,./img/gray_TomCruise4_1.png,0,34,34,22,,,None,None,1,1.76614601527,None,None,None,None,None,None,1,0.100336141085,Tom Cruise,"['lshift', 't', 'o', 'm', 'space', 'lshift', 'c', 'r', 'u', 'i', 's', 'e', 'return']","[0.233610195028632, 0.7167657703867008, 0.9834691338182893, 1.1000041380093535, 1.200341241422393, 1.3168736794059441, 1.4998673591580882, 1.7166140433773762, 1.8833273829395694, 2.0331451341016873, 2.133379589220567, 2.2830193097479423, 2.4996229279076942]",2017_Jan_26_1056,60.0366871062,famFaceFilter,001,5,
71,./img/gray_BritneySpears7_1.png,0,35,35,70,,,None,None,1,0.950033376735,None,None,None,None,None,None,2,0.117170461285,Britney Spears,"['lshift', 'b', 'r', 'i', 't', 'n', 'e', 'y', 'space', 'lshift', 's', 'p', 'e', 'a', 'a', 'backspace', 'r', 's', 'return']","[0.2836990339192198, 0.7835048041006303, 0.9999807534450156, 1.1667191135293251, 1.3000650212779874, 1.5498352655267809, 1.6997476455844662, 1.9495294377657046, 2.1164573764181114, 2.216075300221746, 2.3663629881039014, 2.5328116875343767, 2.6160543214764402, 2.816042067836861, 3.382528811291195, 3.782358671743168, 3.915479074022187, 4.531960348246685, 5.414975295442673]",2017_Jan_26_1056,60.0366871062,famFaceFilter,001,5,
39,./img/gray_UrsulavonderLeyen1_1.png,0,36,36,38,,,None,None,1,1.06669380431,None,None,None,None,None,None,4,0.233570739591,Ursula von der Leyen,"['lshift', 'u', 'r', 's', 'u', 'l', 'a', 'space', 'v', 'o', 'n', 'space', 'd', 'e', 'r', 'space', 'lshift', 'l', 'e', 'y', 'e', 'n', 'return']","[0.2671296746275402, 0.45072224301929964, 0.6503609851797592, 0.8171272527697511, 0.950327849027417, 1.1170617182488058, 1.2169144500248876, 1.3668502467253347, 1.6668219222110565, 1.783400231151063, 1.9333212721585369, 2.0667425622486917, 2.093980607813137, 2.2163248638871664, 2.299815778390439, 2.449263033366151, 2.74949389579524, 2.9162595218322167, 3.066073102907467, 3.299411279956985, 3.53260895715448, 3.6492485342951113, 3.882311485606806]",2017_Jan_26_1056,60.0366871062,famFaceFilter,001,5,
21,./img/gray_HughLaurie(DrHouse)4_1.png,0,37,37,20,,,None,None,1,0.8671516157,None,None,None,None,None,None,1,0.100313045219,,['return'],[0.11686027097221086],2017_Jan_26_1056,60.0366871062,famFaceFilter,001,5,
59,./img/gray_AlysonHannigan(Lily)5_4.png,0,38,38,58,,,None,None,1,0.766494377921,None,None,None,None,None,None,1,0.117042150918,,['return'],[0.1668564056217292],2017_Jan_26_1056,60.0366871062,famFaceFilter,001,5,
65,./img/gray_KatjaBurkard5_3.png,0,39,39,64,,,None,None,1,0.933516945469,None,None,None,None,None,None,3,0.133446631387,Katja Burkhard,"['lshift', 'k', 'a', 'a', 'backspace', 't', 'j', 'a', 'space', 'lshift', 'b', 'u', 'r', 'h', 'a', 'backspace', 'backspace', 'k', 'h', 'a', 'r', 'd', 'return']","[0.23357587200553098, 0.4334353079984794, 0.7168764380785433, 1.033523649685776, 1.4665393827826847, 1.866405490914076, 2.132823684554751, 2.216199761279313, 2.3495232147142815, 2.4994295000296916, 2.8489709989698895, 3.0493747916962093, 3.149218220970397, 4.098738035459974, 4.265525795035501, 4.831721594731789, 4.965040557303837, 5.69818610841412, 6.131126459169536, 6.247973257553895, 6.480809099514772, 6.647754360066756, 6.780980939174697]",2017_Jan_26_1056,60.0366871062,famFaceFilter,001,5,
62,./img/gray_LisaEdelstein(DrLisaCuddy)1_1.png,0,40,40,61,,,None,None,1,0.833529487807,None,None,None,None,None,None,2,0.000567452599171,,"['1', 'backspace', '1', 'backspace', 'return']","[0.08379148153926508, 1.1331861613425644, 3.5157361438441512, 4.215558850994057, 4.498718660594022]",2017_Jan_26_1056,60.0366871062,famFaceFilter,001,5,
56,./img/gray_GuentherJauch2_1.png,0,41,41,55,,,None,None,1,1.19998902946,None,None,None,None,None,None,3,0.333343918938,Günther Jauch,"['lshift', 'g', u'\xfc', 'n', 't', 'h', 'e', 'r', 'space', 'lshift', 'j', 'a', 'u', 'c', 'h', 'return']","[0.283534475873239, 0.6173906739531958, 0.9665831686952515, 1.1833609681789312, 1.3165278829656017, 1.4330827752628466, 1.5331529931117984, 1.5996758238561597, 1.7830877954065727, 1.93287122354468, 2.2325147452665988, 2.349530913335002, 2.4493807581284273, 2.5493958025190295, 2.6656186917407467, 3.1324512637129374]",2017_Jan_26_1056,60.0366871062,famFaceFilter,001,5,
72,./img/gray_WillSmith4_1.png,0,42,42,71,,,None,None,1,1.4164450907,None,None,None,None,None,None,1,0.100531172843,Will Smith,"['lshift', 'w', 'i', 'l', 'l', 'space', 'lshift', 's', 'm', 'i', 't', 'h', 'return']","[0.25035983038651466, 0.46688774542963074, 0.6002057456744296, 0.7833816261481843, 0.9167567245058308, 1.0996634739840374, 1.216636978855604, 1.4165833451224898, 1.5662349343583628, 1.7165441142269628, 1.8998450973094805, 1.9996461841619748, 2.732734957935463]",2017_Jan_26_1056,60.0366871062,famFaceFilter,001,5,
24,./img/gray_JoachimLoew1_1.png,0,43,43,23,,,None,None,1,1.45085857278,None,None,None,None,None,None,5,0.250413399966,Joachim Löw,"['lshift', 'g', 'backspace', 'lshift', 'j', 'p', 'a', 'backspace', 'backspace', 'o', 'a', 'c', 'h', 'i', 'm', 'space', 'lshift', 'l', u'\xf6', 'w', 'return']","[0.2502270291561217, 0.6500575311611101, 1.1000493674137033, 1.2666212447966245, 1.6498156661182293, 1.8495137518239062, 1.98291290837642, 2.31632900189652, 2.682596398777605, 3.04915634329609, 3.215736560852747, 3.382369385659331, 3.4490083372875233, 3.5989444547631138, 3.7156116186324653, 3.8152382033858885, 4.098807643833425, 4.448590366265307, 4.631457339529334, 4.881665122130471, 5.014758900008019]",2017_Jan_26_1056,60.0366871062,famFaceFilter,001,5,
44,./img/gray_BritneySpears5_1.png,0,44,44,43,,,None,None,1,0.90006033795,None,None,None,None,None,None,2,0.0669921259132,Britney Spears,"['lshift', 'lshift', 'b', 'r', 'i', 't', 'n', 'e', 'y', 'space', 'lshift', 's', 'p', 'e', 'a', 'r', 's', 'return']","[0.28364835132470034, 3.815554167665141, 4.015687546292611, 4.198746664331338, 4.332054078970941, 4.548364187165134, 4.7152225174431805, 4.798769567732052, 5.1317378580706645, 5.298567960067885, 5.398356857435829, 5.581629291460558, 5.731498045994158, 5.831266413702906, 5.99819627701072, 6.181284906434485, 6.397910016581591, 7.91398810755436]",2017_Jan_26_1056,60.0366871062,famFaceFilter,001,5,
19,./img/gray_JasonSegel(Marshall)9_1.png,0,45,45,18,,,None,None,1,0.966681646903,None,None,None,None,None,None,1,0.100255305554,Jason Segal,"['lshift', 'j', 'a', 's', 'o', 'n', 'space', 'lshift', 's', 'e', 'g', 'a', 'l', 'return']","[0.23360859114927734, 0.38358769259775727, 0.5169595831966944, 0.6002785618074995, 0.6669098148131525, 0.7834544422812542, 0.9502415603055852, 1.033351713794218, 1.1832179021193951, 1.3666295528928458, 1.4831610285491479, 1.6328575264142273, 1.8825466143543963, 2.3162459209333974]",2017_Jan_26_1056,60.0366871062,famFaceFilter,001,5,
25,./img/gray_MariskaHargitay(Liv)8_8.png,0,46,46,24,,,None,None,1,1.00023961961,None,None,None,None,None,None,1,0.100382332816,,['return'],[0.5002750653502517],2017_Jan_26_1056,60.0366871062,famFaceFilter,001,5,
35,./img/gray_JoachimLoew4_1.png,0,47,47,34,,,None,None,1,1.00013504666,None,None,None,None,None,None,5,0.250308185464,Joachim Löw,"['lshift', 'j', 'o', 'a', 'c', 'h', 'i', 'm', 'space', 'lshift', 'l', u'\xf6', 'w', 'return']","[0.3336967724490023, 0.6000995688455077, 0.8667506458023126, 1.1832432434166549, 1.349730435957099, 1.4997778626766376, 1.5999305199366063, 1.7663176303904038, 1.8661139056048341, 1.9996644683897102, 2.1826135602887007, 2.3994109271034176, 2.566063640018001, 2.9323230175014032]",2017_Jan_26_1056,60.0366871062,famFaceFilter,001,5,
41,./img/gray_RobertSeanLeonard(Wilson)1_1.png,0,48,48,40,,,None,None,1,0.883319363542,None,None,None,None,None,None,1,0.100283213059,,['return'],[0.4169900889864948],2017_Jan_26_1056,60.0366871062,famFaceFilter,001,5,
50,./img/gray_BastianSchweinsteiger3_1.png,0,49,49,49,,,None,None,1,0.800066785546,None,None,None,None,None,None,5,0.283708657197,Bastian Schweinsteiger,"['lshift', 'b', 'a', 's', 't', 'i', 'a', 'n', 'space', 'lshift', 's', 'c', 'h', 'w', 'e', 'i', 'n', 's', 't', 'e', 'i', 'g', 'e', 'r', 'return']","[0.2837410555648603, 0.45023402207152685, 0.566653546931775, 0.6834714754822926, 0.766986448179523, 0.983248119210657, 1.1166148773945679, 1.2334209372365876, 1.3331251497620542, 1.4832184474380483, 1.8162775173614136, 2.0330691102089986, 2.1327624163532164, 2.2663424905231295, 2.3492550460459825, 2.449456782021116, 2.549330043455484, 2.699420774923965, 2.832503646420264, 2.932304091721562, 3.0492144037370963, 3.165825431820849, 3.3320232844826023, 3.3823264016864414, 3.832142773511805]",2017_Jan_26_1056,60.0366871062,famFaceFilter,001,5,
4,./img/gray_AngelaMerkel1_1.png,0,50,50,3,,,None,None,1,1.0999762305,None,None,None,None,None,None,4,0.217036665649,Angela Merkel,"['lshift', 'a', 'n', 'g', 'e', 'l', 'a', 'space', 'lshift', 'm', 'e', 'r', 'k', 'e', 'l', 'return']","[0.30021482363281393, 0.5334798637732092, 0.7001999396297833, 0.8998585698982424, 0.9833578245752506, 1.1667030747339595, 1.2497336757942321, 1.383158815195202, 1.5162782551460623, 1.6330345947208116, 1.849701084960543, 2.0161638985309764, 2.149442122561595, 2.266042565040152, 2.5826945882863583, 3.2324092099897825]",2017_Jan_26_1056,60.0366871062,famFaceFilter,001,5,
