num,pic,trials.thisRepN,trials.thisTrialN,trials.thisN,trials.thisIndex,key_resp_2.keys,key_resp_2.rt,ratingBekannt.response,ratingBekannt.rt,key_resp_5.keys,ratingK1.response,ratingK1.rt,ratingK2.response,ratingK2.rt,ratingK3.response,ratingK3.rt,key_resp_6.keys,inputText,key_resp_4.keys,key_resp_4.rt,key_resp_6.rt,key_resp_5.rt,date,frameRate,expName,session,participant,
,,,,,,space,30.4198204146,,,,,,,,,,,,,,,,2017_Jan_27_1049,59.9933028626,famFaceFilter,001,6,
57,./img/smoo15_UrsulavonderLeyen5_1.png,0,0,0,56,,,2.nein,20.808,None,dummy,2.317,None,None,None,None,None,,['return'],[1.2999741451376394],,,2017_Jan_27_1049,59.9933028626,famFaceFilter,001,6,
65,./img/smoo15_UrsulavonderLeyen4_1.png,0,1,1,64,,,2.nein,3.162,None,dummy,4.39,None,None,None,None,None,,['return'],[0.7501323217211393],,,2017_Jan_27_1049,59.9933028626,famFaceFilter,001,6,
18,./img/smoo15_HughLaurie(DrHouse)4_1.png,0,2,2,17,,,1.ja,2.075,None,act,0.492,None,None,None,None,None,,['return'],[0.500120613254694],,,2017_Jan_27_1049,59.9933028626,famFaceFilter,001,6,
43,./img/smoo15_JoachimLoew1_1.png,0,3,3,42,,,1.ja,1.198,None,None,None,None,None,sport,1.374,None,Joachim Lülf,"['lshift', 'j', 'o', 'a', 'c', 'h', 'i', 'm', 'space', 'lshift', 'l', u'\xfc', 'l', 'f', 'return']","[1.216606327961017, 1.766328500462805, 2.1328734632234045, 2.6994494133250555, 2.916070817943364, 3.0991469820064594, 3.282279282556374, 3.515622945003088, 3.699085969663429, 3.8321923191169844, 4.048798326298311, 4.398722397688289, 4.815141582637807, 5.131820342708124, 5.464693036060453]",,,2017_Jan_27_1049,59.9933028626,famFaceFilter,001,6,
60,./img/smoo15_LeonardoDiCaprio2_1.png,0,4,4,59,,,1.ja,1.304,None,act,1.307,None,None,None,None,None,Leonardo Decaprio,"['lshift', 'l', 'e', 'o', 'n', 'a', 'r', 'd', 'o', 'space', 'lshift', 'd', 'e', 'c', 'a', 'p', 'r', 'i', 'o', 'return']","[0.30028818869050156, 0.7835024164351125, 1.0334868586087396, 1.2332592973252758, 1.6165977310593007, 1.78306006090952, 2.134560765663082, 2.2995131843763374, 2.516209330718084, 2.6826655657496303, 2.8325249679064655, 3.6656969489340554, 4.515423740665938, 5.2650280586203735, 5.581321561992809, 6.2979853095621365, 6.4312863724344425, 6.7311052600853145, 7.014333088899548, 7.797093862132897]",,,2017_Jan_27_1049,59.9933028626,famFaceFilter,001,6,
51,./img/smoo15_LeonardoDiCaprio1_1.png,0,5,5,50,,,1.ja,1.52,None,act,0.858,None,None,None,None,None,Leonardo Decaprio,"['lshift', 'l', 'e', 'o', 'n', 'a', 'r', 'd', 'o', 'space', 'lshift', 'd', 'e', 'c', 'a', 'p', 'r', 'i', 'o', 'return']","[0.3503843905918984, 0.6168373536684157, 0.8335229142730896, 0.9499714826642958, 1.1999783794326504, 1.3329795130694038, 1.732888475724394, 1.8663544194814676, 2.0996467571394533, 2.399391544626269, 2.549363219758561, 2.9659110374605007, 3.3657324271944162, 3.865485105867265, 4.1820862371941985, 4.615081404323064, 4.815221136062064, 5.015028219010674, 5.215018146521288, 5.481576325414608]",,,2017_Jan_27_1049,59.9933028626,famFaceFilter,001,6,
4,./img/smoo15_UrsulavonderLeyen1_1.png,0,6,6,3,,,2.nein,1.899,None,None,None,host,0.725,None,None,None,,['return'],[1.1666708368056788],,,2017_Jan_27_1049,59.9933028626,famFaceFilter,001,6,
19,./img/smoo15_NicoleKidman7_1.png,0,7,7,18,,,1.ja,2.995,None,act,0.558,None,None,None,None,None,,['return'],[0.7831251792358671],,,2017_Jan_27_1049,59.9933028626,famFaceFilter,001,6,
31,./img/smoo15_BritneySpears1_1.png,0,8,8,30,,,1.ja,1.114,None,None,None,music,1.907,None,None,None,Britney Spears,"['lshift', 'b', 'r', 'i', 't', 'n', 'e', 'y', 'space', 'lshift', 's', 'p', 'e', 'a', 'r', 's', 'return']","[0.7500973567093752, 0.9167210388650346, 1.2333430208873324, 1.3497152436548276, 1.5832215415266546, 1.7829978296031186, 1.9329470501397736, 2.1827534594513054, 2.3161029600933034, 2.432695237893313, 2.5990956572168216, 2.915691976844755, 3.115815669586482, 3.3322956102547323, 3.4825479678265765, 3.5989878751597644, 3.8321230306519283]",,,2017_Jan_27_1049,59.9933028626,famFaceFilter,001,6,
54,./img/smoo15_LisaEdelstein(DrLisaCuddy)6_3.png,0,9,9,53,,,2.nein,2.267,None,None,None,host,0.741,None,None,None,,['return'],[0.5501173733764517],,,2017_Jan_27_1049,59.9933028626,famFaceFilter,001,6,
49,./img/smoo15_TomCruise5_1.png,0,10,10,48,,,1.ja,3.473,None,act,0.874,None,None,None,None,None,,['return'],[4.865095679030674],,,2017_Jan_27_1049,59.9933028626,famFaceFilter,001,6,
1,./img/smoo15_Ice-T(OdafinFinTutuola)6_1.png,0,11,11,0,,,2.nein,1.654,None,None,None,music,1.092,None,None,None,,['return'],[0.8501287289864194],,,2017_Jan_27_1049,59.9933028626,famFaceFilter,001,6,
13,./img/smoo15_GeorgeClooney3_1.png,0,12,12,12,,,1.ja,2.128,None,act,1.858,None,None,None,None,None,George Cluney,"['lshift', 'g', 'e', 'o', 'r', 'g', 'e', 'space', 'lshift', 'c', 'l', 'u', 'n', 'e', 'y', 'backspace', 'backspace', 'backspace', 'n', 'e', 'y', 'return']","[0.7835482879654592, 0.883635796730232, 1.1834582129604314, 1.3666014200280188, 1.7497643871402033, 1.9996660680908462, 2.1329934349178075, 2.299432989392699, 2.566000470904328, 3.6157220018458247, 3.8990604997361515, 4.115533383246657, 4.348840797561024, 4.465397148009288, 4.781914876553856, 5.6648914705256175, 5.84818897273999, 6.048166710613259, 6.931089734335728, 7.031157033965428, 7.330945447522936, 7.5641505330395375]",,,2017_Jan_27_1049,59.9933028626,famFaceFilter,001,6,
68,./img/smoo15_AlysonHannigan(Lily)8_3.png,0,13,13,67,,,1.ja,1.411,None,act,0.925,None,None,None,None,None,,['return'],[0.28344692150676565],,,2017_Jan_27_1049,59.9933028626,famFaceFilter,001,6,
7,./img/smoo15_LisaEdelstein(DrLisaCuddy)2_2.png,0,14,14,6,,,2.nein,3.777,None,None,None,host,0.908,None,None,None,,['return'],[0.3669343895971906],,,2017_Jan_27_1049,59.9933028626,famFaceFilter,001,6,
14,./img/smoo15_BritneySpears7_1.png,0,15,15,13,,,1.ja,1.208,None,None,None,music,2.941,None,None,None,Britney Spears,"['lshift', 'b', 'r', 'i', 't', 'n', 'e', 'y', 'space', 'lshift', 's', 'p', 'e', 'a', 'r', 's', 'return']","[0.8496998462187548, 0.9832639486348853, 1.316138887445959, 1.466478817938878, 1.6996431644047334, 1.899555142391364, 2.049472284935291, 2.2994429335712994, 2.4827227928899447, 2.6159228100841574, 2.799288638424514, 3.165742178904111, 3.4156964677640644, 3.6822578544570206, 3.7988013737085566, 3.932255769387666, 4.181847256145375]",,,2017_Jan_27_1049,59.9933028626,famFaceFilter,001,6,
35,./img/smoo15_KatjaBurkard1_1.png,0,16,16,34,,,1.ja,1.776,None,None,None,host,0.724,None,None,None,,['return'],[0.6167946899367962],,,2017_Jan_27_1049,59.9933028626,famFaceFilter,001,6,
15,./img/smoo15_LisaEdelstein(DrLisaCuddy)1_1.png,0,17,17,14,,,2.nein,1.901,None,None,None,host,1.207,None,None,None,,['return'],[0.4334400888938035],,,2017_Jan_27_1049,59.9933028626,famFaceFilter,001,6,
48,./img/smoo15_JoshRadnor(Ted)6_2.png,0,18,18,47,,,1.ja,1.952,None,act,0.575,None,None,None,None,None,,['return'],[1.2333163961529863],,,2017_Jan_27_1049,59.9933028626,famFaceFilter,001,6,
30,./img/smoo15_KatjaBurkard4_1.png,0,19,19,29,,,1.ja,4.39,None,None,None,host,0.785,None,None,None,,['return'],[0.6836336795831812],,,2017_Jan_27_1049,59.9933028626,famFaceFilter,001,6,
56,./img/smoo15_MariskaHargitay(Liv)6_5.png,0,20,20,55,,,2.nein,3.155,None,None,None,host,2.324,None,None,None,,['return'],[0.5335429950964681],,,2017_Jan_27_1049,59.9933028626,famFaceFilter,001,6,
12,./img/smoo15_MariskaHargitay(Liv)8_8.png,0,21,21,11,,,2.nein,2.095,None,None,None,host,1.191,None,None,None,,['return'],[0.4169468679365309],,,2017_Jan_27_1049,59.9933028626,famFaceFilter,001,6,
71,./img/smoo15_AngelaMerkel1_1.png,0,22,22,70,,,1.ja,1.067,None,None,None,None,None,polit,0.741,None,Angela Merkel,"['lshift', 'a', 'n', 'g', 'e', 'l', 'a', 'space', 'lshift', 'm', 'e', 'r', 'k', 'e', 'l', 'return']","[0.7001686019320914, 0.9666882872343194, 1.1665543936906033, 1.366607835627292, 1.4831917731498834, 1.6496557068994662, 1.8164397790214935, 1.966364620283457, 2.0828375679493547, 2.233046299450507, 2.4328549862993896, 2.5663039287201173, 2.6994632068626743, 2.8157542723074585, 2.9325951545552016, 3.1491655551644726]",,,2017_Jan_27_1049,59.9933028626,famFaceFilter,001,6,
58,./img/smoo15_EmilyDeschanel3_1.png,0,23,23,57,,,1.ja,3.95,None,act,0.624,None,None,None,None,None,,['return'],[0.9167842325123274],,,2017_Jan_27_1049,59.9933028626,famFaceFilter,001,6,
27,./img/smoo15_JasonSegel(Marshall)9_1.png,0,24,24,26,,,1.ja,1.307,None,act,0.625,None,None,None,None,None,,['return'],[0.7168215712954407],,,2017_Jan_27_1049,59.9933028626,famFaceFilter,001,6,
33,./img/smoo15_Ice-T(OdafinFinTutuola)7_1.png,0,25,25,32,,,2.nein,3.081,None,None,None,music,1.374,None,None,None,,['return'],[0.5668319324877302],,,2017_Jan_27_1049,59.9933028626,famFaceFilter,001,6,
17,./img/smoo15_GeorgeClooney11_1.png,0,26,26,16,,,1.ja,1.082,None,dummy,1.075,None,None,None,None,None,George Cluney,"['lshift', 'g', 'e', 'o', 'r', 'g', 'e', 'space', 'lshift', 'c', 'l', 'u', 'n', 'e', 'y', 'return']","[0.7000107782050691, 1.0166815187767497, 1.2499315134846256, 1.4664807426179323, 1.7996158339537942, 2.016192329381738, 2.115964511473976, 2.24946862804336, 2.4159656021256524, 2.515935705436277, 2.815852751746206, 3.032494686280188, 3.2656939977578077, 3.7154412552499707, 3.9822040917397317, 4.131811360870415]",,,2017_Jan_27_1049,59.9933028626,famFaceFilter,001,6,
26,./img/smoo15_TomCruise4_1.png,0,27,27,25,,,1.ja,1.626,None,act,0.492,None,None,None,None,None,,['return'],[1.433161651913906],,,2017_Jan_27_1049,59.9933028626,famFaceFilter,001,6,
62,./img/smoo15_RobertSeanLeonard(Wilson)1_1.png,0,28,28,61,,,1.ja,1.733,None,dummy,0.825,None,None,None,None,None,,['return'],[0.7833795577216733],,,2017_Jan_27_1049,59.9933028626,famFaceFilter,001,6,
24,./img/smoo15_BastianSchweinsteiger1_1.png,0,29,29,23,,,1.ja,1.299,None,None,None,None,None,sport,0.858,None,Bastian Schweinsteiger,"['lshift', 'b', 'a', 's', 't', 'i', 'a', 'n', 'space', 'lshift', 's', 'c', 'h', 'w', 'e', 'i', 'n', 's', 't', 'e', 'i', 'g', 'e', 'r', 'return']","[0.30002354524731345, 0.7668427106937088, 0.9666401702443181, 1.1165492932896086, 1.2666194478606485, 1.4996012705450994, 1.666438592135819, 1.8493848403259108, 2.032893094955398, 2.1162368536370195, 2.482889277674076, 2.782343117763048, 2.915953733268907, 3.065578324515627, 3.2824377478427778, 3.4655950692276747, 3.7157758287194156, 3.898788799135218, 4.065418896889241, 4.1654637419242135, 4.298737217722191, 4.5318896953294825, 4.665593978575998, 4.731722440673366, 4.931848058095056]",,,2017_Jan_27_1049,59.9933028626,famFaceFilter,001,6,
45,./img/smoo15_RobertSeanLeonard(Wilson)2_6.png,0,30,30,44,,,2.nein,2.059,None,None,None,None,None,sport,0.808,None,,['return'],[1.3666174590243827],,,2017_Jan_27_1049,59.9933028626,famFaceFilter,001,6,
28,./img/smoo15_HughLaurie(DrHouse)5_3.png,0,31,31,27,,,1.ja,1.989,None,act,0.441,None,None,None,None,None,,['return'],[0.4835359700155095],,,2017_Jan_27_1049,59.9933028626,famFaceFilter,001,6,
55,./img/smoo15_MariskaHargitay(Liv)4_4.png,0,32,32,54,,,2.nein,2.418,None,None,None,host,0.824,None,None,None,,['return'],[0.7667432689140696],,,2017_Jan_27_1049,59.9933028626,famFaceFilter,001,6,
16,./img/smoo15_WillSmith4_1.png,0,33,33,15,,,1.ja,1.512,None,act,1.825,None,None,None,None,None,Will Smith,"['lshift', 'w', 'i', 'l', 'l', 'space', 'lshift', 's', 'm', 'i', 't', 'h', 'return']","[0.46694170338014374, 0.7836304076281522, 1.1000724321093003, 1.3499555078242338, 1.4999342401142712, 1.6663420373761255, 1.7665876906476115, 1.9831827913121742, 2.166411646621782, 2.3498156477735392, 2.5997070637668003, 2.7996010780780125, 3.0993330343671914]",,,2017_Jan_27_1049,59.9933028626,famFaceFilter,001,6,
38,./img/smoo15_AlysonHannigan(Lily)5_4.png,0,34,34,37,,,1.ja,1.513,None,act,0.408,None,None,None,None,None,,['return'],[0.450448803202562],,,2017_Jan_27_1049,59.9933028626,famFaceFilter,001,6,
50,./img/smoo15_OmarEpps(DrEricForeman)2_2.png,0,35,35,49,,,2.nein,2.866,None,None,None,music,1.524,None,None,None,,['return'],[0.5668062700924565],,,2017_Jan_27_1049,59.9933028626,famFaceFilter,001,6,
21,./img/smoo15_NeilPatrickHarris(Barney)3_7.png,0,36,36,20,,,1.ja,1.316,None,act,0.425,None,None,None,None,None,,['return'],[0.5168319645654265],,,2017_Jan_27_1049,59.9933028626,famFaceFilter,001,6,
3,./img/smoo15_JoshRadnor(Ted)3_1.png,0,37,37,2,,,1.ja,1.084,None,dummy,0.575,None,None,None,None,None,,['return'],[0.433567438526552],,,2017_Jan_27_1049,59.9933028626,famFaceFilter,001,6,
63,./img/smoo15_RobertSeanLeonard(Wilson)8_1.png,0,38,38,62,,,2.nein,2.251,None,None,None,None,None,sport,0.807,None,,['return'],[0.3504023542682262],,,2017_Jan_27_1049,59.9933028626,famFaceFilter,001,6,
59,./img/smoo15_JoshRadnor(Ted)1_2.png,0,39,39,58,,,1.ja,1.021,None,act,0.408,None,None,None,None,None,,['return'],[0.3335437649684536],,,2017_Jan_27_1049,59.9933028626,famFaceFilter,001,6,
36,./img/smoo15_BastianSchweinsteiger6_2.png,0,40,40,35,,,1.ja,1.2,None,None,None,None,None,sport,1.008,None,Bastian Schweinsteiger,"['lshift', 'b', 'a', 's', 't', 'i', 'a', 'n', 'space', 'lshift', 's', 'c', 'h', 'w', 'e', 'i', 'n', 's', 't', 'e', 'i', 'g', 'e', 'r', 'return']","[0.283498246295494, 1.466591090914335, 1.7663522381772054, 1.8829297601014332, 2.0331830800132593, 2.216081852773641, 2.3160795431576844, 2.4826608823623246, 2.6493044528742757, 2.6992617570658695, 2.94892509852707, 3.232562884093568, 3.3490752876914485, 3.5156348138607427, 3.6156260886464224, 3.782197162893681, 4.01531114690988, 4.182093935912235, 4.331976434223179, 4.432113022317935, 4.598552576792827, 4.8317942312214655, 4.964847651986929, 5.06501952587405, 5.248353597001369]",,,2017_Jan_27_1049,59.9933028626,famFaceFilter,001,6,
25,./img/smoo15_JasonSegel(Marshall)6_1.png,0,41,41,24,,,1.ja,7.618,None,act,0.636,None,None,None,None,None,,['return'],[0.6168338250890884],,,2017_Jan_27_1049,59.9933028626,famFaceFilter,001,6,
9,./img/smoo15_EmilyDeschanel6_12.png,0,42,42,8,,,1.ja,1.847,None,dummy,0.791,None,None,None,None,None,,['return'],[1.2669158485168737],,,2017_Jan_27_1049,59.9933028626,famFaceFilter,001,6,
6,./img/smoo15_AlysonHannigan(Lily)1_1.png,0,43,43,5,,,1.ja,1.21,None,act,0.774,None,None,None,None,None,,['return'],[0.7999401424649477],,,2017_Jan_27_1049,59.9933028626,famFaceFilter,001,6,
72,./img/smoo15_HughLaurie(DrHouse)2_1.png,0,44,44,71,,,1.ja,1.087,None,dummy,0.408,None,None,None,None,None,,['return'],[0.4501780649397915],,,2017_Jan_27_1049,59.9933028626,famFaceFilter,001,6,
40,./img/smoo15_NeilPatrickHarris(Barney)2_2.png,0,45,45,39,,,1.ja,0.764,None,dummy,0.408,None,None,None,None,None,,['return'],[0.517100136587942],,,2017_Jan_27_1049,59.9933028626,famFaceFilter,001,6,
69,./img/smoo15_BritneySpears5_1.png,0,46,46,68,,,1.ja,0.882,None,None,None,music,0.574,None,None,None,Britney Spears,"['lshift', 'b', 'r', 'i', 't', 'n', 'e', 'y', 'space', 'lshift', 's', 'p', 'e', 'a', 'r', 's', 'return']","[0.8667505826970228, 1.0667539829646557, 1.3999994225960108, 1.5498742221889188, 1.7827379978589306, 1.9828979387320942, 2.0995052931903047, 2.3329095830440565, 2.499450824757332, 2.582463538549746, 2.732709159742626, 3.0324610043880966, 3.1991575035881397, 3.432218879695938, 3.56584040171947, 3.7322789938543792, 3.8987811004162722]",,,2017_Jan_27_1049,59.9933028626,famFaceFilter,001,6,
22,./img/smoo15_WillSmith1_1.png,0,47,47,21,,,1.ja,1.231,None,act,0.975,None,None,None,None,None,Will Smith,"['lshift', 'w', 'i', 'l', 'l', 'space', 'lshift', 's', 'm', 'i', 't', 'h', 'return']","[0.20037999590658728, 0.6835483521217611, 0.8999856290593016, 1.0999992942843164, 1.233306772754986, 1.3660390928089328, 1.4497491821712174, 1.6662201410017587, 1.8662642803210474, 2.0162821477624675, 2.2662823081527677, 2.449426156780646, 2.7326680999112796]",,,2017_Jan_27_1049,59.9933028626,famFaceFilter,001,6,
10,./img/smoo15_KatjaBurkard5_3.png,0,48,48,9,,,1.ja,1.698,None,None,None,host,0.674,None,None,None,,['return'],[1.316449723198275],,,2017_Jan_27_1049,59.9933028626,famFaceFilter,001,6,
5,./img/smoo15_BarackObama1_3.png,0,49,49,4,,,1.ja,1.657,None,None,None,None,None,polit,0.791,None,Barack Obama,"['lshift', 'b', 'a', 'r', 'a', 'c', 'k', 'space', 'lshift', 'o', 'b', 'a', 'm', 'a', 'return']","[1.0666141229139612, 1.2998657215202911, 1.5497943479858804, 1.6998244050655558, 1.7994756531243183, 2.0329787431974182, 2.199279079181906, 2.366198520434409, 2.4660306883743033, 2.632724942115601, 2.9325367726078184, 3.0323830548641126, 3.1658781895948778, 3.2824762414338693, 3.432473899741126]",,,2017_Jan_27_1049,59.9933028626,famFaceFilter,001,6,
32,./img/smoo15_TomCruise1_1.png,0,50,50,31,,,1.ja,1.37,None,act,0.491,None,None,None,None,None,,['return'],[0.5168133593297171],,,2017_Jan_27_1049,59.9933028626,famFaceFilter,001,6,
8,./img/smoo15_AngelaMerkel4_1.png,0,51,51,7,,,1.ja,1.088,None,None,None,None,None,polit,0.791,None,Angela Merkel,"['lshift', 'a', 'n', 'g', 'e', 'l', 'a', 'space', 'lshift', 'm', 'e', 'r', 'k', 'e', 'l', 'return']","[0.3168134876414115, 0.700208699423456, 0.883360888329662, 1.0832889053126564, 1.1503245330568461, 1.3165151623052225, 1.4997709631288672, 1.5997407456588917, 1.7660349868256162, 1.9329913177698472, 2.0995101048883953, 2.2328855887044483, 2.3828563014967585, 2.5157403504581453, 2.6827685361076874, 2.9492385005205506]",,,2017_Jan_27_1049,59.9933028626,famFaceFilter,001,6,
29,./img/smoo15_GuentherJauch3_1.png,0,52,52,28,,,1.ja,1.513,None,None,None,host,2.109,None,None,None,Günther Jauch,"['lshift', 'g', u'\xfc', 'n', 't', 'h', 'e', 'r', 'space', 'lshift', 'j', 'a', 'u', 'c', 'h', 'return']","[0.4004151533872573, 0.9334153888403307, 1.3999365497302279, 1.716401991145176, 1.9493379422992803, 2.132708582338637, 2.282854440974006, 2.332856654355055, 2.4994623728352963, 2.6660039353282627, 2.81598747931821, 2.9322929798599944, 3.0826633844462776, 3.1657441035840748, 3.315860771244843, 4.032245440273982]",,,2017_Jan_27_1049,59.9933028626,famFaceFilter,001,6,
23,./img/smoo15_JoachimLoew4_1.png,0,53,53,22,,,1.ja,1.239,None,None,None,None,None,sport,0.608,None,Joachim Lülf,"['lshift', 'j', 'o', 'a', 'c', 'h', 'i', 'm', 'space', 'lshift', 'l', u'\xfc', 'l', 'f', 'return']","[0.3501123692094552, 1.066641068427998, 1.2666473557146674, 1.3664705418159429, 1.5829498409248117, 1.7163580442947932, 1.8661744619394085, 2.1162192107403826, 2.2827796992496587, 2.3660605850636784, 2.549410374407671, 2.965973268766902, 3.2325147671035666, 3.482281720484025, 3.648907006539048]",,,2017_Jan_27_1049,59.9933028626,famFaceFilter,001,6,
52,./img/smoo15_BastianSchweinsteiger3_1.png,0,54,54,51,,,1.ja,1.307,None,None,None,None,None,sport,0.541,None,Bastian Schweinsteiger,"['lshift', 'b', 'a', 's', 't', 'i', 'a', 'n', 'space', 'lshift', 's', 'c', 'h', 'w', 'e', 'i', 'n', 's', 't', 'e', 'i', 'g', 'e', 'r', 'return']","[0.33353350001107174, 1.066794722015402, 1.2666540920936313, 1.4000003849359928, 1.4998232502575775, 1.733221445293566, 1.8663714208178135, 2.016465313104163, 2.2163019078070647, 2.2995202415340827, 2.5495665942344203, 2.8492703218898896, 2.9660403117723035, 3.115941415319867, 3.2159435966232195, 3.34919942952547, 3.549129050407828, 3.6657614257001114, 3.8322311334886763, 3.9321810276633187, 4.082130568980574, 4.26543897771262, 4.365407156343281, 4.465477663772617, 4.648356868957308]",,,2017_Jan_27_1049,59.9933028626,famFaceFilter,001,6,
66,./img/smoo15_NicoleKidman3_1.png,0,55,55,65,,,1.ja,2.125,None,dummy,0.891,None,None,None,None,None,,['return'],[0.9665885246749895],,,2017_Jan_27_1049,59.9933028626,famFaceFilter,001,6,
61,./img/smoo15_OmarEpps(DrEricForeman)3_1.png,0,56,56,60,,,2.nein,3.369,None,None,None,music,1.858,None,None,None,,['return'],[0.600164175169084],,,2017_Jan_27_1049,59.9933028626,famFaceFilter,001,6,
41,./img/smoo15_AngelaMerkel3_1.png,0,57,57,40,,,1.ja,1.114,None,None,None,None,None,polit,0.924,None,Angela Merkel,"['lshift', 'a', 'n', 'g', 'e', 'l', 'a', 'space', 'lshift', 'm', 'e', 'r', 'k', 'e', 'l', 'return']","[0.9001322254880506, 1.1665069182608931, 1.349936581807924, 1.5498803170075917, 1.6497625266165414, 1.8496809202024451, 1.9662125705954168, 2.1162516095137107, 2.249489799519324, 2.382775144174957, 2.5829091018740655, 2.7161803322123887, 2.8657914507020905, 2.9658658074895357, 3.115663619899351, 3.3491407267974864]",,,2017_Jan_27_1049,59.9933028626,famFaceFilter,001,6,
11,./img/smoo15_LeonardoDiCaprio3_1.png,0,58,58,10,,,1.ja,1.498,None,None,None,None,None,sport,1.008,None,Leonardo Decaprio,"['lshift', 'l', 'e', 'o', 'n', 'a', 'r', 'd', 'o', 'space', 'lshift', 'd', 'e', 'c', 'a', 'p', 'r', 'i', 'backspace', 'i', 'o', 'return']","[0.7830777038061569, 1.1164152072778961, 1.3496411434907714, 1.5496830373494959, 1.8325621783778843, 1.9992458463812, 2.332618635646213, 2.515938592456223, 2.7658296876688837, 2.915840818733159, 3.0490886321367725, 3.38227857684069, 3.615319423031906, 4.165347619587919, 4.315198681466427, 4.598467890890788, 4.881569653191946, 5.364926948785978, 6.331113215427649, 7.330562436284708, 7.513951360780084, 7.697025920942906]",,,2017_Jan_27_1049,59.9933028626,famFaceFilter,001,6,
53,./img/smoo15_GuentherJauch4_1.png,0,59,59,52,,,1.ja,1.324,None,None,None,host,0.574,None,None,None,Günther Jauch,"['lshift', 'g', u'\xfc', 'n', 't', 'h', 'e', 'r', 'space', 'lshift', 'j', 'a', 'u', 'c', 'h', 'return']","[0.3336204313718554, 0.6169034343338353, 0.9832719681326125, 1.2498728107575516, 1.4831099742668812, 1.6828859415627448, 1.8164417037005478, 1.9160105113169266, 1.9829778129351325, 2.182788424463979, 2.3163448281611636, 2.4159232591755426, 2.5495072499470552, 2.6826751891476306, 2.799342208672897, 3.0325376707914984]",,,2017_Jan_27_1049,59.9933028626,famFaceFilter,001,6,
67,./img/smoo15_GeorgeClooney4_2.png,0,60,60,66,,,1.ja,1.557,None,act,1.008,None,None,None,None,None,George Cluney,"['lshift', 'g', 'e', 'o', 'r', 'g', 'e', 'space', 'lshift', 'c', 'l', 'o', 'u', 'n', 'backspace', 'backspace', 'backspace', 'u', 'n', 'e', 'y', 'return']","[0.23341487559173402, 0.5501959644598173, 0.7334597847820987, 1.0166606680813857, 1.3331880200239539, 1.5497035672651691, 1.6497269200435767, 1.8329573792534575, 1.982839556784711, 2.199610444850805, 2.550692852573775, 3.8820248399142656, 4.0986516977918654, 4.331904900298468, 5.448292841282637, 5.631470371802607, 6.014503423042697, 6.631067792988688, 6.847680215769287, 7.330776075718859, 7.580599165587046, 7.780530069589986]",,,2017_Jan_27_1049,59.9933028626,famFaceFilter,001,6,
70,./img/smoo15_JasonSegel(Marshall)7_1.png,0,61,61,69,,,1.ja,1.421,None,act,0.408,None,None,None,None,None,,['return'],[0.7667484013936701],,,2017_Jan_27_1049,59.9933028626,famFaceFilter,001,6,
2,./img/smoo15_WillSmith5_1.png,0,62,62,1,,,1.ja,1.429,None,act,0.825,None,None,None,None,None,Will Smith,"['lshift', 'w', 'i', 'l', 'l', 'space', 'lshift', 's', 'm', 'i', 't', 'h', 'return']","[0.7167134684586927, 1.5998199783025484, 1.8830471655564907, 2.116438944993206, 2.249543690547398, 2.3994050173832875, 2.499501187206988, 2.7825914014301816, 2.9491692120554944, 3.282528528563489, 3.9652967438914857, 4.182075972235907, 4.598736383693904]",,,2017_Jan_27_1049,59.9933028626,famFaceFilter,001,6,
42,./img/smoo15_OmarEpps(DrEricForeman)1_5.png,0,63,63,41,,,2.nein,1.91,None,None,None,music,2.041,None,None,None,,['return'],[0.5502097579974361],,,2017_Jan_27_1049,59.9933028626,famFaceFilter,001,6,
37,./img/smoo15_Ice-T(OdafinFinTutuola)5_1.png,0,64,64,36,,,2.nein,2.985,None,act,1.141,None,None,None,None,None,,['return'],[0.4503852887755784],,,2017_Jan_27_1049,59.9933028626,famFaceFilter,001,6,
47,./img/smoo15_BarackObama4_1.png,0,65,65,46,,,1.ja,0.99,None,None,None,None,None,polit,0.908,None,Barack Obama,"['lshift', 'b', 'a', 'r', 'a', 'c', 'k', 'space', 'lshift', 'o', 'b', 'a', 'm', 'a', 'return']","[0.6002507857501769, 0.8834920873214287, 1.0666333697099617, 1.249984442173627, 1.3332755929459381, 1.5497760635298619, 1.6831727188218792, 1.8664044611505233, 1.9495884714260683, 2.1829061506987273, 2.549520081144692, 2.732427514963092, 2.8493396103549458, 2.9822445100116965, 3.1326630315888906]",,,2017_Jan_27_1049,59.9933028626,famFaceFilter,001,6,
46,./img/smoo15_NeilPatrickHarris(Barney)1_1.png,0,66,66,45,,,1.ja,2.333,None,dummy,0.408,None,None,None,None,None,,['return'],[0.6501455378547689],,,2017_Jan_27_1049,59.9933028626,famFaceFilter,001,6,
64,./img/smoo15_JoachimLoew8_1.png,0,67,67,63,,,1.ja,1.345,None,None,None,None,None,sport,0.725,None,Joachim Lülf,"['lshift', 'j', 'o', 'a', 'c', 'h', 'i', 'm', 'space', 'lshift', 'l', u'\xfc', 'l', 'f', 'return']","[0.3669298986787908, 0.6001243984574103, 0.7501445113593945, 0.9499762943632959, 1.1666509484502967, 1.2998413422455997, 1.5163652297651424, 1.749553634725089, 1.9162838158190425, 2.0496169566840763, 2.182800293321634, 2.616104692305271, 3.099050748026457, 3.5656334986633738, 3.898728813287562]",,,2017_Jan_27_1049,59.9933028626,famFaceFilter,001,6,
20,./img/smoo15_NicoleKidman5_1.png,0,68,68,19,,,1.ja,1.668,None,act,0.408,None,None,None,None,None,,['return'],[0.4502332390884476],,,2017_Jan_27_1049,59.9933028626,famFaceFilter,001,6,
44,./img/smoo15_GuentherJauch2_1.png,0,69,69,43,,,1.ja,3.64,None,None,None,host,0.774,None,None,None,Joachim Lülf,"['lshift', 'lshift', 'j', 'o', 'a', 'c', 'h', 'i', 'm', 'space', 'lshift', 'l', u'\xfc', 'l', 'f', 'return']","[0.7334280275690617, 1.1499222750226181, 1.366486260032616, 1.5664344861515929, 1.6663956076245086, 1.8996805673441486, 2.032886037796743, 2.1828278803950525, 2.3994839292454344, 2.532553068227571, 2.6993146857539614, 2.8492587738119255, 3.2657389069481724, 3.5156498905171247, 3.782211277210081, 4.248651922337558]",,,2017_Jan_27_1049,59.9933028626,famFaceFilter,001,6,
39,./img/smoo15_BarackObama2_1.png,0,70,70,38,,,1.ja,1.376,None,None,None,None,None,polit,0.579,None,Barack Obama,"['lshift', 'b', 'a', 'r', 'a', 'c', 'k', 'space', 'lshift', 'o', 'b', 'a', 'm', 'a', 'pound', 'return']","[0.3669302194584816, 0.7336958788118864, 0.9501848013187555, 1.0498168025815175, 1.1499809777506016, 1.3832107633215855, 1.4998412139339052, 1.683234308568899, 1.7664728514318995, 1.933135668739851, 2.1990327201947366, 2.3153706195098493, 2.4487948618752853, 2.548924713591987, 2.7320833180965565, 3.5824311397764177]",,,2017_Jan_27_1049,59.9933028626,famFaceFilter,001,6,
34,./img/smoo15_EmilyDeschanel5_1.png,0,71,71,33,,,2.nein,2.353,None,None,None,host,0.858,None,None,None,,['return'],[0.48345609581338067],,,2017_Jan_27_1049,59.9933028626,famFaceFilter,001,6,
23,./img/edges5_UrsulavonderLeyen1_1.png,0,0,0,22,,,2.nein,4.711,None,None,None,host,2.067,None,None,None,,['return'],[0.800139026022407],,,2017_Jan_27_1049,59.9933028626,famFaceFilter,001,6,
10,./img/edges5_GuentherJauch4_1.png,0,1,1,9,,,1.ja,1.026,None,None,None,None,None,polit,0.89,None,Günther Jauch Moderator,"['lshift', 'j', 'backspace', 'lshift', 'g', u'\xfc', 'n', 't', 'h', 'e', 'r', 'space', 'lshift', 'j', 'a', 'u', 'c', 'h', 'comma', 'space', 'lshift', 'm', 'o', 'd', 'e', 'r', 'a', 't', 'o', 'r', 'return']","[4.8818038225417695, 5.831421484941529, 6.73106997429295, 7.1475189917755415, 9.130081394700028, 9.513381014062361, 9.829830737261545, 10.0794963241824, 10.263076112737508, 10.412870717346777, 10.462858495631735, 10.846043275779266, 11.312468523468851, 11.529200276383563, 11.695821713080477, 11.828998634118761, 11.9790017456844, 12.112231916191377, 13.928261417680005, 14.144789796118857, 14.67781280694635, 14.927868141484396, 16.343889238539305, 16.54381821786228, 16.62720399871432, 16.77702683195821, 17.010239616192848, 17.26025517402013, 17.726570394193914, 17.893336823419304, 21.341891100345492]",,,2017_Jan_27_1049,59.9933028626,famFaceFilter,001,6,
72,./img/edges5_EmilyDeschanel6_12.png,0,2,2,71,,,2.nein,2.743,None,None,None,host,0.989,None,None,None,,['return'],[0.7834517332057658],,,2017_Jan_27_1049,59.9933028626,famFaceFilter,001,6,
51,./img/edges5_Ice-T(OdafinFinTutuola)6_1.png,0,3,3,50,,,2.nein,1.789,None,None,None,music,0.872,None,None,None,,['return'],[0.7001519213754364],,,2017_Jan_27_1049,59.9933028626,famFaceFilter,001,6,
66,./img/edges5_BritneySpears1_1.png,0,4,4,65,,,1.ja,1.599,None,None,None,music,1.956,None,None,None,Britney Spears,"['lshift', 'b', 'r', 'i', 't', 'n', 'e', 'y', 'space', 'lshift', 's', 'p', 'e', 'a', 'r', 's', 'return']","[0.5167989242318072, 1.0666548619647074, 1.3999926862170469, 1.549747193335861, 1.766147580580764, 1.9993946882686942, 2.1491799902605635, 2.465472210513326, 2.732078185616956, 2.8158392789891877, 3.0490610450624445, 3.365760655828126, 3.5322691779883826, 3.782259394200082, 3.9154924517270047, 4.032169736209653, 4.448353468689675]",,,2017_Jan_27_1049,59.9933028626,famFaceFilter,001,6,
4,./img/edges5_LeonardoDiCaprio1_1.png,0,5,5,3,,,1.ja,3.069,None,dummy,1.322,None,None,None,None,None,Leonardo Decaprio,"['lshift', 'l', 'e', 'o', 'n', 'a', 'r', 'd', 'o', 'space', 'lshift', 'd', 'e', 'c', 'a', 'p', 'r', 'i', 'o', 'return']","[0.3997341375925316, 0.7834995294160763, 1.0498190480402627, 1.2331646672455463, 1.4828183853096562, 1.599648681819417, 1.7831280662549034, 1.9327869809540061, 2.1495771158161006, 2.299480144042718, 2.46600534675963, 2.7826064780865636, 3.098862129427289, 3.46574455267546, 3.7988879842896495, 4.182142694461618, 4.381912887718499, 4.798339771386054, 5.015141133546422, 5.464883258559894]",,,2017_Jan_27_1049,59.9933028626,famFaceFilter,001,6,
63,./img/edges5_LisaEdelstein(DrLisaCuddy)2_2.png,0,6,6,62,,,2.nein,2.466,None,None,None,None,None,polit,1.173,None,,['return'],[0.9001909282151246],,,2017_Jan_27_1049,59.9933028626,famFaceFilter,001,6,
57,./img/edges5_BritneySpears5_1.png,0,7,7,56,,,1.ja,1.5,None,None,None,music,1.989,None,None,None,Britney Spears,"['lshift', 'b', 'r', 'i', 't', 'n', 'e', 'y', 'space', 'lshift', 's', 'p', 'e', 'a', 'r', 's', 'return']","[0.4835921065041475, 1.0335401080774318, 1.333377921743704, 1.5331035265908213, 1.816412833506547, 2.0495710851537297, 2.199513890092021, 2.4327093522106225, 2.5994234943073025, 2.6828156907577068, 2.865733068753798, 3.1658255816864767, 3.365834755992182, 3.582298978444669, 3.7157543364637604, 3.832204829534021, 4.049241644163885]",,,2017_Jan_27_1049,59.9933028626,famFaceFilter,001,6,
13,./img/edges5_MariskaHargitay(Liv)6_5.png,0,8,8,12,,,2.nein,1.981,None,None,None,host,1.622,None,None,None,,['return'],[0.7832932679193618],,,2017_Jan_27_1049,59.9933028626,famFaceFilter,001,6,
29,./img/edges5_TomCruise4_1.png,0,9,9,28,,,1.ja,1.389,None,act,0.524,None,None,None,None,None,,['return'],[0.35044598033891816],,,2017_Jan_27_1049,59.9933028626,famFaceFilter,001,6,
7,./img/edges5_AngelaMerkel3_1.png,0,10,10,6,,,1.ja,0.942,None,None,None,None,None,polit,0.807,None,Angela Merkel,"['lshift', 'a', 'n', 'g', 'e', 'l', 'a', 'space', 'lshift', 'm', 'e', 'r', 'k', 'e', 'l', 'return']","[0.45020533123351925, 0.7336073435508297, 0.9001283761281229, 1.1333729175767076, 1.233492183555427, 1.4332963794850002, 1.5995845258321424, 1.7331989906979288, 1.866453540479597, 1.9996558031334644, 2.1663519815538166, 2.332931396078493, 2.4661522639680697, 2.6328429891300402, 2.7660163815889973, 2.9827548708826725]",,,2017_Jan_27_1049,59.9933028626,famFaceFilter,001,6,
53,./img/edges5_KatjaBurkard4_1.png,0,11,11,52,,,1.ja,1.755,None,None,None,host,0.506,None,None,None,,['return'],[0.5002867772582249],,,2017_Jan_27_1049,59.9933028626,famFaceFilter,001,6,
43,./img/edges5_BarackObama1_3.png,0,12,12,42,,,1.ja,1.155,None,None,None,None,None,polit,0.706,None,Barack Obama,"['lshift', 'b', 'a', 'r', 'a', 'c', 'k', 'space', 'lshift', 'o', 'n', 'backspace', 'b', 'a', 'm', 'a', 'return']","[0.4668810759731059, 1.0166385342663489, 1.1832298176495897, 1.318223957000555, 1.4164875110745925, 1.666333697097798, 1.8328435023777274, 1.966359487804766, 2.082575490745512, 2.19958446167675, 2.449459838673647, 2.832418789748772, 3.1491184005144532, 3.2991542316331106, 3.4156589365120453, 3.5155379383213585, 3.765692393858444]",,,2017_Jan_27_1049,59.9933028626,famFaceFilter,001,6,
44,./img/edges5_EmilyDeschanel5_1.png,0,13,13,43,,,2.nein,2.205,None,None,None,host,0.639,None,None,None,,['return'],[0.5166459122046945],,,2017_Jan_27_1049,59.9933028626,famFaceFilter,001,6,
24,./img/edges5_JasonSegel(Marshall)7_1.png,0,14,14,23,,,1.ja,1.273,None,act,0.423,None,None,None,None,None,,['return'],[0.6334697931160918],,,2017_Jan_27_1049,59.9933028626,famFaceFilter,001,6,
61,./img/edges5_NeilPatrickHarris(Barney)2_2.png,0,15,15,60,,,1.ja,1.045,None,None,None,None,None,None,None,1,,['return'],[0.3667297320016587],3.14912417455,,2017_Jan_27_1049,59.9933028626,famFaceFilter,001,6,
19,./img/edges5_HughLaurie(DrHouse)2_1.png,0,16,16,18,,,None,None,1,None,None,None,None,None,None,1,,['return'],[0.566941318444151],0.899877847002,1.26652096842,2017_Jan_27_1049,59.9933028626,famFaceFilter,001,6,
64,./img/edges5_EmilyDeschanel3_1.png,0,17,17,63,,,None,None,2,None,None,None,None,None,None,3,,['return'],[0.33358674947885447],1.39953846183,4.0988961321,2017_Jan_27_1049,59.9933028626,famFaceFilter,001,6,
6,./img/edges5_GuentherJauch3_1.png,0,18,18,5,,,None,None,1,None,None,None,None,None,None,3,Günther Jauch,"['lshift', 'g', u'\xfc', 'n', 't', 'h', 'e', 'r', 'space', 'lshift', 'j', 'a', 'u', 'c', 'h', 'return']","[1.2166162721396176, 1.4831250509232632, 1.9162523793847868, 2.3160849964169756, 2.6161085416633796, 2.7993928919013342, 2.9326391014055844, 3.015911967721877, 3.1492637138235295, 3.365786959782781, 3.465473172853308, 3.6324901312054863, 3.7823896308527765, 3.8822615755043444, 4.015852944214203, 4.298754539838228]",4.41532051368,1.34982238415,2017_Jan_27_1049,59.9933028626,famFaceFilter,001,6,
31,./img/edges5_GeorgeClooney4_2.png,0,19,19,30,,,None,None,1,None,None,None,None,None,None,1,George Cluney,"['lshift', 's', 'c', 'h', 'backspace', 'backspace', 'backspace', 'lshift', 'g', 'e', 'p', 'r', 'g', 'e', 'space', 'backspace', 'backspace', 'backspace', 'backspace', 'backspace', 'o', 'r', 'g', 'e', 'space', 'lshift', 'c', 'l', 'u', 'n', 'e', 'y', 'return']","[0.616710324815358, 1.666599302880968, 1.9163851822768265, 2.0996836468320907, 2.9993456089396204, 3.1992931934992157, 3.399185283130464, 3.8156641331470382, 5.215255523669839, 5.415079928735395, 5.61493737413457, 6.031470756739509, 6.281410931282153, 6.447988421127775, 6.564684310846133, 6.931113151271347, 7.1309260082598485, 7.2976484906339465, 7.480647346733349, 7.6473958122824115, 8.28064138022637, 8.663743078371226, 8.863735892900877, 8.963547851704789, 9.096996473345826, 9.413051637228818, 9.713381527310048, 10.113280225007657, 10.546470426335873, 10.779563880436399, 11.129307673505537, 11.479418759595319, 11.962301942450722]",3.18235473,2.09953416338,2017_Jan_27_1049,59.9933028626,famFaceFilter,001,6,
1,./img/edges5_BastianSchweinsteiger6_2.png,0,20,20,0,,,None,None,1,None,None,None,None,None,None,5,Bastian Schweinsteiger,"['lshift', 'b', 'a', 's', 't', 'i', 'a', 'n', 'space', 'lshift', 's', 'c', 'h', 'w', 'e', 'i', 'n', 's', 't', 'e', 'i', 'g', 'e', 'r', 'return']","[0.7000550458369617, 1.0832465623625467, 1.233249032367894, 1.3830846968085098, 1.5165987575555846, 1.7664176772841529, 2.232982143465051, 2.3659207250138934, 2.532702872455957, 2.649299961955876, 3.149108456336762, 3.4323443046487228, 3.5323423158133664, 3.715616080313339, 3.848888593771335, 3.998725541332533, 4.23209454539392, 4.415201504330071, 4.548406012442683, 4.681761607903354, 4.814915112006929, 5.048165748274187, 5.164909434201945, 5.298142491728868, 6.1145800252907065]",1.59957811023,1.96618017182,2017_Jan_27_1049,59.9933028626,famFaceFilter,001,6,
59,./img/edges5_BastianSchweinsteiger3_1.png,0,21,21,58,,,None,None,1,None,None,None,None,None,None,5,Bastian Schweinsteiger,"['lshift', 'b', 'a', 's', 't', 'i', 'a', 'n', 'space', 'lshift', 's', 'c', 'h', 'w', 'e', 'i', 'n', 's', 't', 'e', 'i', 'g', 'e', 'r', 'return']","[0.6501208378003867, 1.0498848079259915, 1.2164911679656143, 1.3496937513991725, 1.4830839910919167, 1.6996948099731526, 2.466021706536594, 2.915848517451195, 3.1492415800075833, 3.282358835978812, 3.648846699911701, 3.9155049621449507, 4.098699494001266, 4.21525103275053, 4.315272140070192, 4.4984756537651265, 4.731735913430384, 4.8485046201931254, 4.998291846864959, 5.115033928893354, 5.2649667896530445, 5.481495488871587, 5.681335612153816, 5.748154071883619, 6.597728493148679]",2.04953066688,1.5997208573,2017_Jan_27_1049,59.9933028626,famFaceFilter,001,6,
28,./img/edges5_Ice-T(OdafinFinTutuola)5_1.png,0,22,22,27,,,None,None,2,None,None,None,None,None,None,2,,['return'],[1.4998117021805228],4.14867829045,1.96639830218,2017_Jan_27_1049,59.9933028626,famFaceFilter,001,6,
65,./img/edges5_LisaEdelstein(DrLisaCuddy)1_1.png,0,23,23,64,,,None,None,2,None,None,None,None,None,None,3,,['return'],[0.6835133871090875],1.68309990178,2.53279269084,2017_Jan_27_1049,59.9933028626,famFaceFilter,001,6,
21,./img/edges5_JoshRadnor(Ted)3_1.png,0,24,24,20,,,None,None,1,None,None,None,None,None,None,1,,['return'],[0.5337001772631993],0.533264558116,1.44966353393,2017_Jan_27_1049,59.9933028626,famFaceFilter,001,6,
40,./img/edges5_NicoleKidman3_1.png,0,25,25,39,,,None,None,1,None,None,None,None,None,None,1,,['return'],[0.7168700090660423],0.566617009933,1.183249706,2017_Jan_27_1049,59.9933028626,famFaceFilter,001,6,
68,./img/edges5_MariskaHargitay(Liv)4_4.png,0,26,26,67,,,None,None,2,None,None,None,None,None,None,3,,['return'],[0.46657665581824403],1.16625767225,2.38269398685,2017_Jan_27_1049,59.9933028626,famFaceFilter,001,6,
34,./img/edges5_KatjaBurkard1_1.png,0,27,27,33,,,None,None,1,None,None,None,None,None,None,3,,['return'],[0.466955496916853],1.2998692501,1.11631223692,2017_Jan_27_1049,59.9933028626,famFaceFilter,001,6,
50,./img/edges5_WillSmith5_1.png,0,28,28,49,,,None,None,1,None,None,None,None,None,None,1,Will Smith,"['lshift', 'w', 'i', 'l', 'l', 'space', 'lshift', 's', 'm', 'i', 't', 'h', 'return']","[0.4169616238141316, 0.8001810481937355, 1.1001032269823554, 1.3332332499949189, 1.4829790960548053, 1.6497160135268132, 1.674746792361475, 1.9164150148108092, 2.083020733290141, 2.2327415585159542, 2.482659920023252, 2.6659670456365347, 2.9490659209177466]",0.666788883821,1.33317230181,2017_Jan_27_1049,59.9933028626,famFaceFilter,001,6,
25,./img/edges5_JoachimLoew8_1.png,0,29,29,24,,,None,None,1,None,None,None,None,None,None,5,Joachim Lülf,"['lshift', 'j', 'o', 'a', 'c', 'h', 'i', 'm', 'space', 'lshift', 'l', u'\xfc', 'l', 'f', 'return']","[1.4831879237899557, 1.7829696009684994, 1.982714773391308, 2.1163481642724946, 2.3660939461769885, 2.499348175178966, 2.66607835627201, 2.8658106974971815, 3.0325190655548795, 3.1657501984027476, 3.332514061387883, 3.5991303014498044, 3.898952717680004, 4.215357210908223, 4.881807671900788]",1.79939385424,1.73319834914,2017_Jan_27_1049,59.9933028626,famFaceFilter,001,6,
2,./img/edges5_OmarEpps(DrEricForeman)1_5.png,0,30,30,1,,,None,None,2,None,None,None,None,None,None,2,,['return'],[0.3833695493876803],2.1325860444,2.13306945976,2017_Jan_27_1049,59.9933028626,famFaceFilter,001,6,
56,./img/edges5_NeilPatrickHarris(Barney)1_1.png,0,31,31,55,,,None,None,1,None,None,None,None,None,None,1,,['return'],[1.2499116251292435],0.999843459394,1.06664106843,2017_Jan_27_1049,59.9933028626,famFaceFilter,001,6,
5,./img/edges5_AlysonHannigan(Lily)1_1.png,0,32,32,4,,,None,None,1,None,None,None,None,None,None,1,,['return'],[0.5669175807288411],1.14982732416,1.36620942695,2017_Jan_27_1049,59.9933028626,famFaceFilter,001,6,
38,./img/edges5_GeorgeClooney11_1.png,0,33,33,37,,,None,None,1,None,None,None,None,None,None,1,George Cluney,"['lshift', 'g', 'e', 'o', 'r', 'g', 'e', 'space', 'lshift', 'c', 'l', 'u', 'n', 'e', 'y', 'return']","[0.7334087807730612, 1.4998665555476691, 1.6997297749849167, 1.8829271938611782, 2.1828853000024537, 2.3660926630564063, 2.4828462931627655, 2.632680032924327, 2.817303960156096, 2.9493020149466247, 3.265910844991595, 3.5323435989321297, 3.765718377032499, 3.882309692493436, 4.132111610885659, 4.615315252893197]",4.14867027095,5.29829614532,2017_Jan_27_1049,59.9933028626,famFaceFilter,001,6,
46,./img/edges5_TomCruise5_1.png,0,34,34,45,,,None,None,1,None,None,None,None,None,None,1,,['return'],[0.6167337417500676],0.20041111156,1.71610238269,2017_Jan_27_1049,59.9933028626,famFaceFilter,001,6,
37,./img/edges5_JasonSegel(Marshall)9_1.png,0,35,35,36,,,None,None,1,None,None,None,None,None,None,1,,['return'],[0.4336460296108271],0.133596501189,0.933306002883,2017_Jan_27_1049,59.9933028626,famFaceFilter,001,6,
27,./img/edges5_OmarEpps(DrEricForeman)2_2.png,0,36,36,26,,,None,None,2,None,None,None,None,None,None,2,,['return'],[0.40014794370381424],2.46619364458,1.63301204015,2017_Jan_27_1049,59.9933028626,famFaceFilter,001,6,
12,./img/edges5_UrsulavonderLeyen4_1.png,0,37,37,11,,,None,None,2,None,None,None,None,None,None,3,,['return'],[0.4834945894044722],1.24973166759,1.98317765883,2017_Jan_27_1049,59.9933028626,famFaceFilter,001,6,
52,./img/edges5_BarackObama4_1.png,0,38,38,51,,,None,None,1,None,None,None,None,None,None,4,Barack Obama,"['lshift', 'b', 'a', 'r', 'a', 'c', 'k', 'space', 'lshift', 'o', 'b', 'a', 'm', 'a', 'return']","[0.5167925086334435, 0.7667378156556879, 0.9333938965846755, 1.0832013323915817, 1.1832429696269173, 1.4164464512441555, 1.5497077374047876, 1.733035392932834, 1.8163252605854723, 1.966353072205493, 2.1994676977819836, 2.3159720818812275, 2.4327090314309316, 2.5494344329026717, 2.7158611561808357]",2.28291506838,2.53273912059,2017_Jan_27_1049,59.9933028626,famFaceFilter,001,6,
69,./img/edges5_GuentherJauch2_1.png,0,39,39,68,,,None,None,1,None,None,None,None,None,None,3,Günther Jauch,"['lshift', 'g', u'\xfc', 'n', 't', 'h', 'e', 'r', 'space', 'lshift', 'j', 'a', 'u', 'c', 'h', 'return']","[0.7500386539823012, 1.2831264623555398, 1.6663057892437791, 1.9996849941080654, 2.249523802192016, 2.449389267088918, 2.5491114075121004, 2.599122602731768, 2.749359242086939, 2.9322968292190126, 3.0825491867908568, 3.1990872527831016, 3.332390881894753, 3.449025502646691, 3.549113652971755, 3.832184299619257]",1.2666284297,1.26656683995,2017_Jan_27_1049,59.9933028626,famFaceFilter,001,6,
30,./img/edges5_MariskaHargitay(Liv)8_8.png,0,40,40,29,,,None,None,2,None,None,None,None,None,None,3,,['return'],[0.5169310855644653],1.18282980508,2.68245128476,2017_Jan_27_1049,59.9933028626,famFaceFilter,001,6,
58,./img/edges5_HughLaurie(DrHouse)5_3.png,0,41,41,57,,,None,None,1,None,None,None,None,None,None,1,,['return'],[0.9001925321153976],1.00002020914,1.28328621076,2017_Jan_27_1049,59.9933028626,famFaceFilter,001,6,
9,./img/edges5_RobertSeanLeonard(Wilson)8_1.png,0,42,42,8,,,None,None,2,None,None,None,None,None,None,5,,['return'],[0.44998303074225987],1.09970128973,1.81600608455,2017_Jan_27_1049,59.9933028626,famFaceFilter,001,6,
47,./img/edges5_UrsulavonderLeyen5_1.png,0,43,43,46,,,None,None,2,None,None,None,None,None,None,3,,['return'],[0.41683267028201954],3.99882594545,7.98066563119,2017_Jan_27_1049,59.9933028626,famFaceFilter,001,6,
60,./img/edges5_TomCruise1_1.png,0,44,44,59,,,None,None,1,None,None,None,None,None,None,1,,['return'],[0.7168825194821693],1.53306439144,1.61706959834,2017_Jan_27_1049,59.9933028626,famFaceFilter,001,6,
67,./img/edges5_LeonardoDiCaprio2_1.png,0,45,45,66,,,None,None,1,None,None,None,None,None,None,1,Leonardo Decaprio,"['lshift', 'l', 'e', 'o', 'n', 'a', 'r', 'd', 'o', 'space', 'lshift', 'd', 'e', 'c', 'a', 'p', 'r', 'i', 'o', 'return']","[0.9833297085206141, 1.2499757811156087, 1.4498088472391828, 1.6330582324644638, 1.866263959540447, 3.9988727793206635, 4.665260367447445, 4.81517141517179, 5.048259416013934, 5.215012693261997, 5.2981588515049225, 5.564928424373647, 5.814718794688815, 6.947546065602182, 7.130973804469249, 7.447370278199742, 7.730271553043167, 7.880742361749071, 8.097207867320321, 8.413770184275563]",0.383528014674,1.01675882674,2017_Jan_27_1049,59.9933028626,famFaceFilter,001,6,
20,./img/edges5_JoshRadnor(Ted)1_2.png,0,46,46,19,,,None,None,1,None,None,None,None,None,None,1,,['return'],[0.5180701751014567],0.133501550329,1.45013155185,2017_Jan_27_1049,59.9933028626,famFaceFilter,001,6,
33,./img/edges5_BarackObama2_1.png,0,47,47,32,,,None,None,1,None,None,None,None,None,None,4,Barack Obama,"['lshift', 'b', 'a', 'r', 'a', 'c', 'k', 'space', 'lshift', 'o', 'b', 'a', 'm', 'a', 'return']","[0.5002165264540963, 1.0829087810943747, 1.216407765184158, 1.3497845321207933, 1.4499009110795669, 1.6830011015590571, 1.8162296681666703, 1.9830143818480792, 2.1161239391012714, 2.2993335476148786, 2.5327506686662673, 2.715924349827219, 2.849182748968815, 2.999155386441089, 3.5155584682379413]",1.31652703116,0.933429182377,2017_Jan_27_1049,59.9933028626,famFaceFilter,001,6,
45,./img/edges5_WillSmith4_1.png,0,48,48,44,,,None,None,1,None,None,None,None,None,None,1,Will Smith,"['lshift', 'w', 'i', 'l', 'l', 'space', 'lshift', 's', 'm', 'i', 't', 'h', 'return']","[0.3835408458708116, 0.7333866469580244, 1.0498787131082281, 1.3332714228063196, 1.4664489854048952, 1.6331101988125738, 1.6991151606371204, 1.916105462176347, 2.1328211760946942, 2.2826837860502565, 2.5325636539655534, 2.7157950755145066, 3.3491015916461038]",0.750251651856,1.78299526336,2017_Jan_27_1049,59.9933028626,famFaceFilter,001,6,
48,./img/edges5_GeorgeClooney3_1.png,0,49,49,47,,,None,None,1,None,None,None,None,None,None,1,George Cluney,"['lshift', 'g', 'e', 'o', 'r', 'g', 'e', 'space', 'lshift', 'c', 'l', 'u', 'n', 'e', 'y', 'return']","[0.7499369667439169, 1.2328615302103572, 1.449981106062296, 1.6498943671685993, 1.966109279457669, 2.166289429466815, 2.2663644278154607, 2.416165448024003, 2.632778833143675, 2.8160734483390115, 3.249038141375422, 3.5158272818198384, 3.7156443089470486, 3.849012735604447, 4.1320974965692585, 4.615270343702832]",1.06640144582,2.13274611359,2017_Jan_27_1049,59.9933028626,famFaceFilter,001,6,
62,./img/edges5_AlysonHannigan(Lily)5_4.png,0,50,50,61,,,None,None,1,None,None,None,None,None,None,1,,['return'],[0.33356333254414494],0.133630503862,1.31653825846,2017_Jan_27_1049,59.9933028626,famFaceFilter,001,6,
15,./img/edges5_LisaEdelstein(DrLisaCuddy)6_3.png,0,51,51,14,,,None,None,2,None,None,None,None,None,None,3,,['return'],[0.4337361687712473],1.56637642498,2.83251566529,2017_Jan_27_1049,59.9933028626,famFaceFilter,001,6,
3,./img/edges5_NicoleKidman5_1.png,0,52,52,2,,,None,None,1,None,None,None,None,None,None,1,,['return'],[4.03213509197758],0.250194873808,1.34996160264,2017_Jan_27_1049,59.9933028626,famFaceFilter,001,6,
18,./img/edges5_JoshRadnor(Ted)6_2.png,0,53,53,17,,,None,None,1,None,None,None,None,None,None,1,,['return'],[0.5002521330261516],0.250240745339,1.03340826753,2017_Jan_27_1049,59.9933028626,famFaceFilter,001,6,
8,./img/edges5_LeonardoDiCaprio3_1.png,0,54,54,7,,,None,None,1,None,None,None,None,None,None,1,Leonardo Decaprio,"['lshift', 'l', 'e', 'o', 'n', 'a', 'r', 'd', 'o', 'space', 'lshift', 'd', 'e', 'c', 'a', 'p', 'r', 'o', 'backspace', 'i', 'o', 'return']","[0.5168284359860991, 1.1499498620969462, 1.4831138236258994, 1.6164081501201508, 1.883044920096836, 2.0496586580748044, 2.216169104915025, 2.332975984489167, 2.5827355599312796, 2.765644597649043, 2.9156579741720634, 3.132540172874542, 3.3825868463545703, 3.6989169186390427, 4.115395127096235, 4.465248306121794, 4.731602789758654, 4.898506192014793, 5.364813071910248, 5.664695473987194, 5.8148625040976185, 6.431156135781748]",0.533374906412,1.31657803517,2017_Jan_27_1049,59.9933028626,famFaceFilter,001,6,
35,./img/edges5_WillSmith1_1.png,0,55,55,34,,,None,None,1,None,None,None,None,None,None,1,Will Smith,"['lshift', 'w', 'i', 'l', 'l', 'space', 'lshift', 's', 'm', 'i', 't', 'h', 'return']","[0.3501800537751478, 0.7663422939995144, 1.2497781806769126, 1.5328850754567611, 1.6662875047877606, 2.4659729479863017, 2.549290723492959, 2.7992815812649496, 2.998983127617066, 3.165874981795241, 3.399108295946462, 3.5986796056458843, 3.882158284365687]",0.116756837905,1.33309210682,2017_Jan_27_1049,59.9933028626,famFaceFilter,001,6,
49,./img/edges5_RobertSeanLeonard(Wilson)2_6.png,0,56,56,48,,,None,None,2,None,None,None,None,None,None,5,,['return'],[0.8000026945519494],1.36650390293,2.01613330587,2017_Jan_27_1049,59.9933028626,famFaceFilter,001,6,
71,./img/edges5_HughLaurie(DrHouse)4_1.png,0,57,57,70,,,None,None,1,None,None,None,None,None,None,1,,['return'],[0.5503614869048761],0.15021546788,1.28328300296,2017_Jan_27_1049,59.9933028626,famFaceFilter,001,6,
17,./img/edges5_NeilPatrickHarris(Barney)3_7.png,0,58,58,16,,,None,None,1,None,None,None,None,None,None,1,,['return'],[0.41692280944153026],0.150208089942,0.799952652882,2017_Jan_27_1049,59.9933028626,famFaceFilter,001,6,
55,./img/edges5_JoachimLoew1_1.png,0,59,59,54,,,None,None,1,None,None,None,None,None,None,5,Joachim Lülf,"['lshift', 'j', 'o', 'a', 'c', 'h', 'i', 'm', 'space', 'lshift', 'l', u'\xfc', 'l', 'f', 'return']","[0.5002364148094784, 1.3496363317917712, 1.5498222558398993, 1.683010724956148, 1.932917859166082, 2.0663449885514638, 2.232885588705358, 2.449402419066246, 2.599350035702628, 2.765895126775831, 2.916003454158272, 3.099252839383553, 3.648908610439321, 3.9987916219979525, 4.41536702677422]",1.0998376212,0.916880787271,2017_Jan_27_1049,59.9933028626,famFaceFilter,001,6,
32,./img/edges5_Ice-T(OdafinFinTutuola)7_1.png,0,60,60,31,,,None,None,2,None,None,None,None,None,None,2,,['return'],[0.866764376233732],1.64969035113,2.43265963132,2017_Jan_27_1049,59.9933028626,famFaceFilter,001,6,
54,./img/edges5_KatjaBurkard5_3.png,0,61,61,53,,,None,None,1,None,None,None,None,None,None,3,,['return'],[0.5003162890125168],0.516582076998,1.38308918773,2017_Jan_27_1049,59.9933028626,famFaceFilter,001,6,
36,./img/edges5_AngelaMerkel1_1.png,0,62,62,35,,,None,None,1,None,None,None,None,None,None,4,Angela Merkel,"['lshift', 'a', 'n', 'g', 'e', 'l', 'a', 'space', 'lshift', 'm', 'e', 'r', 'k', 'e', 'l', 'return']","[0.3834138170186634, 0.7833285537126358, 1.0167511280233157, 1.2165508330335797, 1.28327370034458, 1.5328645455419974, 1.616347522713113, 1.7664022798471706, 1.9162020169360403, 2.0162359554533396, 2.2329205537180314, 2.3493328739768913, 2.4993837817519307, 2.6161066169843252, 3.515726556921436, 3.7322520483403423]",1.23304405399,1.01641655455,2017_Jan_27_1049,59.9933028626,famFaceFilter,001,6,
39,./img/edges5_AlysonHannigan(Lily)8_3.png,0,63,63,38,,,None,None,1,None,None,None,None,None,None,1,,['return'],[0.4668034472297222],0.183863037234,1.3011607101,2017_Jan_27_1049,59.9933028626,famFaceFilter,001,6,
16,./img/edges5_BritneySpears7_1.png,0,64,64,15,,,None,None,1,None,None,None,None,None,None,2,Britney Spears,"['lshift', 'b', 'r', 'i', 't', 'n', 'e', 'y', 'space', 'lshift', 's', 'p', 'w', 'backspace', 'e', 'a', 'r', 's', 'return']","[0.38354212899139384, 1.1999572079575955, 1.4498155836181468, 1.6497214667861044, 1.8829849342500893, 2.1161329209389805, 2.215882648436491, 2.532273989688292, 2.699306666256234, 2.899125297282808, 3.182418565203079, 3.3657202375570705, 3.532250572752673, 4.148683743707807, 4.348683615395203, 4.68172183119168, 5.248231700627912, 5.364880114916559, 5.948001252325412]",1.18333310879,1.18365773808,2017_Jan_27_1049,59.9933028626,famFaceFilter,001,6,
70,./img/edges5_BastianSchweinsteiger1_1.png,0,65,65,69,,,None,None,1,None,None,None,None,None,None,5,Bastian Schweinsteiger,"['lshift', 'b', 'a', 's', 't', 'i', 'a', 'n', 'space', 'lshift', 's', 'c', 'h', 'w', 'e', 'i', 'n', 's', 't', 'e', 'i', 'g', 'e', 'r', 'return']","[0.816743878395755, 1.6497660551958688, 1.866281602437084, 2.0660046410439463, 2.2160209045869124, 2.4660996560596686, 2.6157585707587714, 2.749294765320883, 2.9656431862167665, 3.015646361938707, 3.432170762705937, 3.71547910728259, 3.8155082340999797, 3.998744467347933, 4.13200318726922, 4.248551838999447, 4.481890048187779, 4.5818332059834574, 4.748386958114679, 4.848415764152378, 4.998119908821536, 5.281520958797955, 5.398181241944258, 5.531383825377816, 6.2144779531163294]",2.68272426848,1.68306782378,2017_Jan_27_1049,59.9933028626,famFaceFilter,001,6,
14,./img/edges5_AngelaMerkel4_1.png,0,66,66,13,,,None,None,1,None,None,None,None,None,None,4,Angela Merkel,"['lshift', 'a', 'n', 'g', 'e', 'l', 'space', 'backspace', 'a', 'lshift', 'space', 'lshift', 'm', 'e', 'r', 'k', 'e', 'l', 'return']","[0.4835160816601274, 0.9332950963653275, 1.0831910674332903, 1.2998474370642725, 1.383186384046894, 1.5496599411944771, 1.8496129148570617, 2.4327648471389693, 2.782533981821871, 3.19916231528714, 4.115287024259487, 4.331787494843411, 4.498565792926456, 4.9317688254514, 5.081697195292691, 5.798104960476849, 5.914558019787364, 6.0313148576924505, 6.28106320583629]",4.33196649005,1.31665406002,2017_Jan_27_1049,59.9933028626,famFaceFilter,001,6,
42,./img/edges5_JoachimLoew4_1.png,0,67,67,41,,,None,None,1,None,None,None,None,None,None,5,Joachim Lülf,"['lshift', 'j', 'o', 'a', 'c', 'h', 'i', 'm', 'space', 'lshift', 'l', u'\xfc', 'l', 'f', 'return']","[0.9834487178750351, 1.3330475184147872, 1.5163286608531052, 1.8496113109567887, 1.9662051926570712, 2.09962141552478, 2.2329564810697775, 2.4994713546730054, 2.715994921411948, 2.7991856680655474, 2.9993167387456197, 3.265834820148484, 3.6154855870372558, 4.481983395147836, 4.665241762210826]",1.86641825469,1.73306330079,2017_Jan_27_1049,59.9933028626,famFaceFilter,001,6,
11,./img/edges5_RobertSeanLeonard(Wilson)1_1.png,0,68,68,10,,,None,None,2,None,None,None,None,None,None,2,,['return'],[0.5502059086375084],6.93099734972,8.16361893654,2017_Jan_27_1049,59.9933028626,famFaceFilter,001,6,
26,./img/edges5_NicoleKidman7_1.png,0,69,69,25,,,None,None,1,None,None,None,None,None,None,1,,['return'],[0.516906385510083],0.366886593388,2.03290368069,2017_Jan_27_1049,59.9933028626,famFaceFilter,001,6,
41,./img/edges5_OmarEpps(DrEricForeman)3_1.png,0,70,70,40,,,None,None,2,None,None,None,None,None,None,2,,['return'],[0.233704860650505],3.31575427231,2.09942830601,2017_Jan_27_1049,59.9933028626,famFaceFilter,001,6,
22,./img/edges5_JasonSegel(Marshall)6_1.png,0,71,71,21,,,None,None,1,None,None,None,None,None,None,1,,"['1', 'backspace', 'return']","[0.2335861720757748, 0.966777784835358, 1.3830487694558542]",0.850277891655,1.46655227654,2017_Jan_27_1049,59.9933028626,famFaceFilter,001,6,
62,./img/gray_LisaEdelstein(DrLisaCuddy)1_1.png,0,0,0,61,,,None,None,2,None,None,None,None,None,None,3,,['return'],[0.28375262478220975],1.91616641036,2.29931590472,2017_Jan_27_1049,59.9933028626,famFaceFilter,001,6,
50,./img/gray_BastianSchweinsteiger3_1.png,0,1,1,49,,,None,None,1,None,None,None,None,None,None,5,Bastian Schweinsteiger,"['lshift', 'b', 'a', 's', 't', 'i', 'a', 'n', 'space', 'lshift', 's', 'c', 'h', 'w', 'e', 'i', 'n', 's', 't', 'e', 'i', 'g', 'e', 'r', 'return']","[0.5836000618464823, 0.8333894698216682, 0.9833816748696336, 1.1334412437026913, 1.249871527637879, 1.4999473920915989, 1.6332600030409594, 1.7498612626795875, 1.9172589868103387, 1.9992830568535283, 2.2497175532707843, 2.5329287015283626, 2.6824176028630973, 2.8493848403259108, 2.98272535912929, 3.1160873701883247, 3.3325528757604843, 3.4992487334011457, 3.64913604341109, 3.7324457994191107, 3.8990088541677324, 4.098880734662998, 4.198921088778661, 4.332231454269277, 4.948616187453808]",1.98275070074,1.299787772,2017_Jan_27_1049,59.9933028626,famFaceFilter,001,6,
30,./img/gray_BarackObama4_1.png,0,2,2,29,,,None,None,1,None,None,None,None,None,None,4,Barack Obama,"['lshift', 'b', 'a', 'r', 'a', 'c', 'k', 'space', 'lshift', 'o', 'b', 'a', 'm', 'a', 'return']","[0.5670600070188812, 1.1337533625755896, 1.3000966830713878, 1.4166915271116522, 1.4999733752656539, 1.749968723956954, 1.8995994100214375, 2.0497930648662077, 2.1664289687378186, 2.2994666712856997, 2.5495935397493668, 2.6827236269173227, 2.7827800200293495, 2.8829162873444147, 3.1659426663618433]",2.28257407931,1.20002874188,2017_Jan_27_1049,59.9933028626,famFaceFilter,001,6,
41,./img/gray_RobertSeanLeonard(Wilson)1_1.png,0,3,3,40,,,None,None,2,None,None,None,None,None,None,5,,['return'],[0.550220022954818],1.28356978022,6.38104614034,2017_Jan_27_1049,59.9933028626,famFaceFilter,001,6,
16,./img/gray_JoshRadnor(Ted)1_2.png,0,4,4,15,,,None,None,1,None,None,None,None,None,None,1,,['return'],[1.0333575842960272],0.716736885394,1.21650367838,2017_Jan_27_1049,59.9933028626,famFaceFilter,001,6,
39,./img/gray_UrsulavonderLeyen1_1.png,0,5,5,38,,,None,None,1,None,None,None,None,None,None,4,Clinton,"['lshift', 'c', 'l', 'i', 'n', 't', 'o', 'n', 'return']","[0.7000884069493623, 2.5993859630552834, 2.982551496405904, 3.199213640075868, 3.365726973935125, 3.6156379575040773, 3.8988949772920023, 4.132025000304566, 4.865106585547437]",1.76607283886,8.4303022196,2017_Jan_27_1049,59.9933028626,famFaceFilter,001,6,
10,./img/gray_HughLaurie(DrHouse)2_1.png,0,6,6,9,,,None,None,1,None,None,None,None,None,None,1,,['return'],[0.4835468765331825],0.283444676047,3.11624776015,2017_Jan_27_1049,59.9933028626,famFaceFilter,001,6,
52,./img/gray_EmilyDeschanel5_1.png,0,7,7,51,,,None,None,2,None,None,None,None,None,None,3,,['return'],[0.36707104184824857],1.18323751637,2.39925360926,2017_Jan_27_1049,59.9933028626,famFaceFilter,001,6,
20,./img/gray_WillSmith1_1.png,0,8,8,19,,,None,None,1,None,None,None,None,None,None,1,Will Smith,"['lshift', 'w', 'i', 'l', 'l', 'space', 'lshift', 's', 'c', 'h', 'backspace', 'backspace', 'm', 'i', 't', 'h', 'return']","[0.48353404533645516, 1.15003711423833, 1.432990996991066, 1.7330812644631806, 1.8830333720197814, 2.04966154509475, 2.1329443555887337, 2.5328565260433606, 2.9992371853231816, 3.265769381042446, 3.9488542061626504, 4.2654194101369285, 4.865228161142113, 5.0651260248123435, 5.381542707677909, 5.581570807999924, 6.314469227902009]",0.26685650423,0.98342401782,2017_Jan_27_1049,59.9933028626,famFaceFilter,001,6,
65,./img/gray_KatjaBurkard5_3.png,0,9,9,64,,,None,None,1,None,None,None,None,None,None,3,,['return'],[0.45090623538453656],1.36596050173,3.11590548797,2017_Jan_27_1049,59.9933028626,famFaceFilter,001,6,
56,./img/gray_GuentherJauch2_1.png,0,10,10,55,,,None,None,1,None,None,None,None,None,None,3,Günther Jauch,"['lshift', 'g', u'\xfc', 'n', 't', 'h', 'e', 'r', 'space', 'lshift', 'j', 'a', 'u', 'c', 'h', 'return']","[0.4332999080643276, 1.3333333333330302, 1.7331008320388719, 2.0334095506450467, 2.282933352836153, 2.4494322515984095, 2.5660918931853303, 2.6662108383834493, 2.8493578948109644, 2.9992949257102737, 3.199213640075868, 3.315825485451569, 3.448816995690322, 3.565874083611561, 3.682226738803365, 3.9489610258797256]",2.08263964673,2.33268054617,2017_Jan_27_1049,59.9933028626,famFaceFilter,001,6,
25,./img/gray_MariskaHargitay(Liv)8_8.png,0,11,11,24,,,None,None,2,None,None,None,None,None,None,3,,['return'],[0.3503208761649148],1.03320553461,2.29954686627,2017_Jan_27_1049,59.9933028626,famFaceFilter,001,6,
72,./img/gray_WillSmith4_1.png,0,12,12,71,,,None,None,1,None,None,None,None,None,None,1,Will Smith,"['lshift', 'w', 'i', 'l', 'l', 'space', 'lshift', 's', 'm', 'i', 't', 'h', 'return']","[0.38347861456441024, 0.7168501207097506, 0.9834188853410524, 1.2165729668486165, 1.3665994953489644, 1.5164470286481446, 1.6164700606468614, 1.8997087959787677, 2.7491834546844984, 2.915982282683217, 3.149043017230724, 3.349262302391253, 3.9656242602013663]",0.883179968449,1.03317858909,2017_Jan_27_1049,59.9933028626,famFaceFilter,001,6,
70,./img/gray_WillSmith5_1.png,0,13,13,69,,,None,None,1,None,None,None,None,None,None,1,Will Smith,"['lshift', 'w', 'i', 'l', 'l', 'space', 'lshift', 's', 'm', 'i', 't', 'h', 'return']","[0.6000772438073909, 1.216656048850382, 1.4828658607393663, 1.7164016703654852, 1.8829884628285072, 2.116209908122073, 2.2661357117240186, 2.5327865960180134, 2.8992844041285935, 3.0491527881231377, 3.315820032193187, 3.4822287917950234, 4.115564498899403]",0.450263713182,4.03196700329,2017_Jan_27_1049,59.9933028626,famFaceFilter,001,6,
28,./img/gray_GeorgeClooney4_2.png,0,14,14,27,,,None,None,1,None,None,None,None,None,None,1,George Cluney,"['lshift', 'g', 'e', 'o', 'r', 'g', 'e', 'space', 'lshift', 'c', 'l', 'u', 'n', 'e', 'y', 'return']","[0.40021915684974374, 0.9499900879000052, 1.1996595241807881, 1.3665728706146183, 1.7163795365504484, 1.9662879538800553, 3.015770182992128, 3.2158573068218175, 3.3988875993536567, 3.9488654334609237, 4.165221232296062, 4.381850014852716, 4.6150605536277, 4.715192330023456, 4.9984839940443635, 5.165014650019657]",2.48254123145,1.43325692355,2017_Jan_27_1049,59.9933028626,famFaceFilter,001,6,
64,./img/gray_LisaEdelstein(DrLisaCuddy)2_2.png,0,15,15,63,,,None,None,2,None,None,None,None,None,None,4,,['return'],[0.16720750163040066],5.48152884998,2.16592021177,2017_Jan_27_1049,59.9933028626,famFaceFilter,001,6,
37,./img/gray_TomCruise1_1.png,0,16,16,36,,,None,None,1,None,None,None,None,None,None,1,,['return'],[0.5002793993198793],0.166954406265,1.43316614283,2017_Jan_27_1049,59.9933028626,famFaceFilter,001,6,
49,./img/gray_NeilPatrickHarris(Barney)1_1.png,0,17,17,48,,,None,None,1,None,None,None,None,None,None,1,,['return'],[0.4168676352937837],0.166948953006,0.83335290091,2017_Jan_27_1049,59.9933028626,famFaceFilter,001,6,
63,./img/gray_JoshRadnor(Ted)3_1.png,0,18,18,62,,,None,None,1,None,None,None,None,None,None,1,,['return'],[0.30014640396075265],0.167055451943,0.633374842257,2017_Jan_27_1049,59.9933028626,famFaceFilter,001,6,
67,./img/gray_AngelaMerkel4_1.png,0,19,19,66,,,None,None,1,None,None,None,None,None,None,4,Angela Merkel,"['lshift', 'a', 'n', 'g', 'e', 'l', 'a', 'space', 'lshift', 'm', 'e', 'r', 'k', 'e', 'l', 'return']","[1.0164553689255627, 1.3664968457705982, 1.533010179629855, 1.733078056663544, 1.8162944657115077, 1.98295279210015, 2.132933769849842, 2.2495562009644345, 2.399357221172977, 2.5327031932356476, 2.7325959244262776, 2.932650328702948, 3.049143806284519, 3.165818524527822, 3.33231325315046, 3.5989176243547263]",1.23321855827,1.03339768179,2017_Jan_27_1049,59.9933028626,famFaceFilter,001,6,
5,./img/gray_OmarEpps(DrEricForeman)2_2.png,0,20,20,4,,,None,None,2,None,None,None,None,None,None,2,,['return'],[0.16686939958344738],1.26650204241,1.78273126148,2017_Jan_27_1049,59.9933028626,famFaceFilter,001,6,
14,./img/gray_JoshRadnor(Ted)6_2.png,0,21,21,13,,,None,None,1,None,None,None,None,None,None,1,,['return'],[0.38370219817625184],0.183568882037,0.933326532799,2017_Jan_27_1049,59.9933028626,famFaceFilter,001,6,
59,./img/gray_AlysonHannigan(Lily)5_4.png,0,22,22,58,,,None,None,1,None,None,None,None,None,None,1,,['return'],[0.33337439316437667],0.133573725814,0.766327217343,2017_Jan_27_1049,59.9933028626,famFaceFilter,001,6,
43,./img/gray_LisaEdelstein(DrLisaCuddy)6_3.png,0,23,23,42,,,None,None,2,None,None,None,None,None,None,1,,['return'],[0.20023275791845663],2.01615030721,7.39753198336,2017_Jan_27_1049,59.9933028626,famFaceFilter,001,6,
31,./img/gray_AngelaMerkel3_1.png,0,24,24,30,,,None,None,1,None,None,None,None,None,None,4,Angela Merkel,"['lshift', 'a', 'n', 'g', 'e', 'l', 'a', 'space', 'lshift', 'm', 'e', 'r', 'k', 'e', 'l', 'return']","[0.6834235687274486, 0.9500449412680609, 1.0997615963542557, 1.3496873358008088, 1.4831195976648814, 1.6662977697451424, 1.8329721351301487, 1.999694296724556, 2.1161829626071267, 2.2663163108254594, 2.449533618057103, 2.6660372964406633, 2.832548705620866, 2.9492911084289517, 3.099245140664607, 3.3825900541532974]",1.36620718149,0.866839117957,2017_Jan_27_1049,59.9933028626,famFaceFilter,001,6,
69,./img/gray_OmarEpps(DrEricForeman)3_1.png,0,25,25,68,,,None,None,2,None,None,None,None,None,None,2,,['return'],[0.7335002030531541],1.51653299767,2.13294531793,2017_Jan_27_1049,59.9933028626,famFaceFilter,001,6,
24,./img/gray_JoachimLoew1_1.png,0,26,26,23,,,None,None,1,None,None,None,None,None,None,5,joachim Lülf,"['lshift', 'h', 'backspace', 'j', 'o', 'a', 'c', 'h', 'i', 'm', 'space', 'lshift', 'l', u'\xfc', 'l', 'f', 'return']","[0.36702164173857454, 0.8667271657614037, 1.2499446654619533, 1.5998385835382578, 1.8164218153451657, 3.749038141375422, 3.998234748037248, 4.1321468966789325, 4.2988661712543035, 4.547952750399418, 4.73207529859792, 4.897962149250816, 5.0648209630971905, 5.4315837354306495, 5.730881997253164, 6.081367754302846, 6.58108033548433]",2.78249292199,1.63315959892,2017_Jan_27_1049,59.9933028626,famFaceFilter,001,6,
34,./img/gray_RobertSeanLeonard(Wilson)2_6.png,0,27,27,33,,,None,None,2,None,None,None,None,None,None,5,,['return'],[0.3005653425507262],2.41543439056,1.91626617292,2017_Jan_27_1049,59.9933028626,famFaceFilter,001,6,
13,./img/gray_NeilPatrickHarris(Barney)2_2.png,0,28,28,12,,,None,None,1,None,None,None,None,None,None,1,,['return'],[0.316951743791833],0.800028677726,2.16651397542,2017_Jan_27_1049,59.9933028626,famFaceFilter,001,6,
51,./img/gray_AlysonHannigan(Lily)1_1.png,0,29,29,50,,,None,None,1,None,None,None,None,None,None,1,,['return'],[0.6333039498922517],0.183654851059,0.683378017978,2017_Jan_27_1049,59.9933028626,famFaceFilter,001,6,
58,./img/gray_GeorgeClooney3_1.png,0,30,30,57,,,None,None,1,None,None,None,None,None,None,1,George Cluney,"['lshift', 'g', 'e', 'o', 'r', 'g', 'e', 'space', 'lshift', 'c', 'l', 'o', 'backspace', 'u', 'n', 'e', 'y', 'return']","[0.5667629648023649, 0.8498191763528666, 1.1000002566242983, 1.2664378864192258, 1.5665243045332318, 1.782971846428154, 1.9164047498525179, 2.0496320333404583, 2.2660814999153445, 2.915866160347832, 3.299019183281416, 3.632219072163025, 4.248659300276813, 4.831851971609467, 5.081833526764058, 5.231606639118581, 5.5148768108829245, 5.681456546188201]",0.516829719106,0.800146403961,2017_Jan_27_1049,59.9933028626,famFaceFilter,001,6,
27,./img/gray_LeonardoDiCaprio1_1.png,0,31,31,26,,,None,None,1,None,None,None,None,None,None,1,Leonardo Decaprio,"['lshift', 'l', 'e', 'o', 'n', 'a', 'r', 'd', 'o', 'space', 'lshift', 'd', 'e', 'c', 'a', 'p', 'r', 'i', 'o', 'return']","[0.7335059770930457, 1.3496899020410638, 1.64965763157943, 1.7664917774482092, 2.0660764957492574, 2.2495379165093254, 2.3993992433443054, 2.549323763826578, 2.849214185402161, 3.01566689185438, 3.348878649593644, 3.9985799072437658, 4.74846330373839, 5.748028967711434, 5.931473387135156, 6.71431724237118, 6.847459839957082, 6.964199034966441, 7.18079189017044, 7.464025493022746]",0.133527854284,1.34984195173,2017_Jan_27_1049,59.9933028626,famFaceFilter,001,6,
54,./img/gray_LeonardoDiCaprio3_1.png,0,32,32,53,,,None,None,1,None,None,None,None,None,None,1,Leonardo Decaprio,"['lshift', 'l', 'e', 'o', 'n', 'a', 'r', 'd', 'o', 'space', 'lshift', 'd', 'e', 'c', 'a', 'p', 'r', 'i', 'o', 'return']","[0.5334814053503578, 0.9500526399870068, 1.133231453627559, 1.249904888751189, 1.5162840724424314, 1.7496598128827827, 2.665896474051806, 2.815952514305536, 3.099059088305694, 3.282431332244414, 3.4154202762429122, 4.165370074184466, 4.465260495759139, 5.03160869211024, 5.2649039167872616, 5.7813746831498065, 5.964596160521069, 6.281142438479947, 6.497808110728329, 6.880896977676457]",0.117106808811,1.38323065168,2017_Jan_27_1049,59.9933028626,famFaceFilter,001,6,
29,./img/gray_UrsulavonderLeyen4_1.png,0,33,33,28,,,None,None,1,None,None,None,None,None,None,4,Clinton,"['lshift', 'c', 'l', 'i', 'n', 't', 'o', 'n', 'return']","[0.43343912655473105, 1.0000615897470198, 1.2832355275322698, 1.4830820664128623, 1.6996710722578428, 1.9163912770954994, 2.1661197368839566, 2.5161753280453922, 2.8160593340226114]",1.66639400373,2.23278454303,2017_Jan_27_1049,59.9933028626,famFaceFilter,001,6,
60,./img/gray_EmilyDeschanel3_1.png,0,34,34,59,,,None,None,2,None,None,None,None,None,None,3,,['return'],[0.4169471887171312],1.98270386687,3.03240711336,2017_Jan_27_1049,59.9933028626,famFaceFilter,001,6,
9,./img/gray_RobertSeanLeonard(Wilson)8_1.png,0,35,35,8,,,None,None,2,None,None,None,None,None,None,5,,['return'],[0.31693121387615975],1.79961326771,2.46623887455,2017_Jan_27_1049,59.9933028626,famFaceFilter,001,6,
18,./img/gray_JasonSegel(Marshall)7_1.png,0,36,36,17,,,None,None,1,None,None,None,None,None,None,1,,['return'],[0.38357549010288494],0.383206593182,2.33284414394,2017_Jan_27_1049,59.9933028626,famFaceFilter,001,6,
6,./img/gray_NicoleKidman3_1.png,0,37,37,5,,,None,None,1,None,None,None,None,None,None,1,,['return'],[0.35035263337886136],0.716421879501,1.23310564374,2017_Jan_27_1049,59.9933028626,famFaceFilter,001,6,
35,./img/gray_JoachimLoew4_1.png,0,38,38,34,,,None,None,1,None,None,None,None,None,None,5,Joachim Lülf,"['lshift', 'j', 'o', 'a', 'c', 'h', 'i', 'm', 'space', 'lshift', 'l', u'\xfc', 'l', 'f', 'return']","[0.7168767454440967, 1.1666201535772416, 1.3332451188525738, 1.5498883365062284, 1.7665491970556104, 1.8996786426650942, 2.065986677368528, 2.2663333121618052, 2.466136224971706, 2.5493330664448877, 2.716120346365642, 3.165906418229497, 3.6323207594014093, 3.8988728434769655, 4.398684866437179]",1.43321875074,0.849860236184,2017_Jan_27_1049,59.9933028626,famFaceFilter,001,6,
3,./img/gray_KatjaBurkard1_1.png,0,39,39,2,,,None,None,1,None,None,None,None,None,None,3,,['return'],[0.7166749748666916],0.300283376992,1.38313698394,2017_Jan_27_1049,59.9933028626,famFaceFilter,001,6,
1,./img/gray_JoachimLoew8_1.png,0,40,40,0,,,None,None,1,None,None,None,None,None,None,1,Joachim Lülf,"['lshift', 'j', 'o', 'a', 'c', 'h', 'i', 'm', 'space', 'lshift', 'l', u'\xfc', 'l', 'f', 'return']","[0.8167207822407363, 1.0000333611124006, 1.1831967773159704, 1.3332425526123188, 1.5497439855362245, 1.6829950067394748, 1.8498223841515937, 2.0662301493357518, 2.2160497747800036, 2.3327738931329804, 2.482701942193671, 2.7826055157465817, 3.0991165079121856, 3.4655418197589825, 3.6486644969108966]",0.250055655318,1.21655756941,2017_Jan_27_1049,59.9933028626,famFaceFilter,001,6,
61,./img/gray_AlysonHannigan(Lily)8_3.png,0,41,41,60,,,None,None,1,None,None,None,None,None,None,1,,['return'],[0.4835985221025112],0.15002877396,1.29997863606,2017_Jan_27_1049,59.9933028626,famFaceFilter,001,6,
46,./img/gray_GuentherJauch3_1.png,0,42,42,45,,,None,None,1,None,None,None,None,None,None,3,Günther Jauch,"['lshift', 'g', u'\xfc', 'n', 't', 'h', 'e', 'r', 'space', 'lshift', 'j', 'a', 'u', 'c', 'h', 'return']","[0.4668467525207234, 0.9169577744542039, 1.333318577456339, 1.7997935460361987, 2.0496965101065143, 2.2496559635237645, 2.3495907810411154, 2.4328517785006625, 2.566182353126351, 2.749180246884862, 2.849471130127313, 3.016023919917643, 3.132572892427561, 3.2825201882851616, 3.4160105113169266, 3.6490580938871062]",1.54975425049,1.13312367157,2017_Jan_27_1049,59.9933028626,famFaceFilter,001,6,
11,./img/gray_EmilyDeschanel6_12.png,0,43,43,10,,,None,None,2,None,None,None,None,None,None,3,,['return'],[0.5836225164412099],1.38299423687,2.48281934765,2017_Jan_27_1049,59.9933028626,famFaceFilter,001,6,
47,./img/gray_HughLaurie(DrHouse)5_3.png,0,44,44,46,,,None,None,1,None,None,None,None,None,None,1,,['return'],[0.30038057331057644],0.133339556464,1.14998418555,2017_Jan_27_1049,59.9933028626,famFaceFilter,001,6,
2,./img/gray_BastianSchweinsteiger1_1.png,0,45,45,1,,,None,None,1,None,None,None,None,None,None,5,Bastian Schweinsteger,"['lshift', 'b', 'a', 's', 't', 'i', 'a', 'n', 'space', 'lshift', 's', 'c', 'h', 'w', 'e', 'i', 'n', 's', 't', 'e', 'g', 'e', 'r', 'return']","[0.7501332840620307, 1.4000542759649761, 1.6497243538051407, 1.7664240928825166, 1.9496641754903976, 2.199605953932405, 2.3829352133607244, 2.466065653386977, 2.6328227799949673, 2.6993974469769455, 2.8992099831848464, 3.1658605466991503, 3.3325121367088286, 3.7990583184337083, 3.948893020534342, 4.082162646973302, 4.348682973835821, 4.548593668702779, 4.68189248611543, 4.798529352326113, 5.198393085011048, 5.331691581644009, 5.448311125738655, 5.6153033840364515]",1.16613834212,0.84973769825,2017_Jan_27_1049,59.9933028626,famFaceFilter,001,6,
21,./img/gray_HughLaurie(DrHouse)4_1.png,0,46,46,20,,,None,None,1,None,None,None,None,None,None,1,,['return'],[0.45020629357350117],0.266984495423,4.61517956298,2017_Jan_27_1049,59.9933028626,famFaceFilter,001,6,
45,./img/gray_NicoleKidman7_1.png,0,47,47,44,,,None,None,1,None,None,None,None,None,None,1,,['return'],[1.1498449670589252],0.266990911022,1.16669553686,2017_Jan_27_1049,59.9933028626,famFaceFilter,001,6,
23,./img/gray_TomCruise4_1.png,0,48,48,22,,,None,None,1,None,None,None,None,None,None,1,,['return'],[0.5003313656698083],0.150346025312,1.01646948324,2017_Jan_27_1049,59.9933028626,famFaceFilter,001,6,
57,./img/gray_UrsulavonderLeyen5_1.png,0,49,49,56,,,None,None,1,None,None,None,None,None,None,4,Clinton,"['lshift', 'c', 'l', 'i', 'n', 't', 'o', 'n', 'return']","[0.7997579394641434, 2.0993420162049006, 2.5826101349775854, 2.782687314629584, 3.015779164829837, 3.349148746296123, 3.4819901315258903, 3.7488039720255983, 5.198181049476261]",1.0499107911,1.31624602794,2017_Jan_27_1049,59.9933028626,famFaceFilter,001,6,
53,./img/gray_Ice-T(OdafinFinTutuola)5_1.png,0,50,50,52,,,None,None,2,None,None,None,None,None,None,2,,['return'],[0.6499906011486019],1.29988240208,1.81639775685,2017_Jan_27_1049,59.9933028626,famFaceFilter,001,6,
33,./img/gray_KatjaBurkard4_1.png,0,51,51,32,,,None,None,1,None,None,None,None,None,None,3,,['return'],[0.5499909860836851],0.383570678405,1.41639191865,2017_Jan_27_1049,59.9933028626,famFaceFilter,001,6,
22,./img/gray_GuentherJauch4_1.png,0,52,52,21,,,None,None,1,None,None,None,None,None,None,3,Günther Jauch,"['lshift', 'g', u'\xfc', 'n', 't', 'h', 'e', 'r', 'space', 'lshift', 'j', 'a', 'u', 'c', 'h', 'return']","[0.4503038106731765, 0.9334432966934401, 1.5166561771629858, 1.866416650787869, 2.1326348029542714, 2.2996928211368868, 2.399627638655147, 2.4994931677083514, 2.5993978319120288, 2.799442612790699, 2.9326487248035846, 3.0659212382615806, 3.1992656064248877, 3.3322847037370593, 3.449186534171531, 3.699089819022447]",1.43297592033,0.983476304949,2017_Jan_27_1049,59.9933028626,famFaceFilter,001,6,
19,./img/gray_JasonSegel(Marshall)9_1.png,0,53,53,18,,,None,None,1,None,None,None,None,None,None,1,,['return'],[0.4000279720094113],0.133626654502,1.19979778033,2017_Jan_27_1049,59.9933028626,famFaceFilter,001,6,
4,./img/gray_AngelaMerkel1_1.png,0,54,54,3,,,None,None,1,None,None,None,None,None,None,4,Angela Merkel,"['lshift', 'a', 'n', 'g', 'e', 'l', 'a', 'space', 'lshift', 'm', 'e', 'r', 'k', 'e', 'l', 'return']","[0.46683071352344996, 0.8001281195047341, 1.0999171746216234, 1.316336808662527, 1.4499047604376756, 1.616416169617878, 1.7830555699902106, 1.9330413594398124, 2.0660797035479845, 2.1838800385703507, 2.382746915540338, 2.599343299323664, 2.7989572727547056, 2.899258100173938, 3.0491194270098276, 3.315787633419859]",2.86568014007,2.0829710124,2017_Jan_27_1049,59.9933028626,famFaceFilter,001,6,
42,./img/gray_NicoleKidman5_1.png,0,55,55,41,,,None,None,1,None,None,None,None,None,None,1,,['return'],[0.2502875792079067],0.133683753331,1.08346629661,2017_Jan_27_1049,59.9933028626,famFaceFilter,001,6,
26,./img/gray_BarackObama1_3.png,0,56,56,25,,,None,None,1,None,None,None,None,None,None,4,Barack Obama,"['lshift', 'b', 'a', 'r', 'a', 'c', 'k', 'space', 'lshift', 'o', 'b', 'a', 'm', 'a', 'return']","[0.6835085754100874, 1.0999659331710063, 1.2665421398969556, 1.44993074361264, 1.5663789912241555, 1.8330465560748053, 1.9662863499797822, 2.132925429572424, 2.449427119120628, 2.6160934650069976, 2.9491592678778034, 3.115803159168536, 3.2323123549676893, 3.3657571272487985, 3.5822450874156857]",1.0665153227,0.783327912152,2017_Jan_27_1049,59.9933028626,famFaceFilter,001,6,
7,./img/gray_OmarEpps(DrEricForeman)1_5.png,0,57,57,6,,,None,None,2,None,None,None,None,None,None,2,,['return'],[0.266961399268439],2.13284780083,2.13283368651,2017_Jan_27_1049,59.9933028626,famFaceFilter,001,6,
38,./img/gray_MariskaHargitay(Liv)4_4.png,0,58,58,37,,,None,None,2,None,None,None,None,None,None,3,,['return'],[0.1836587004181638],1.26652481778,1.91634155621,2017_Jan_27_1049,59.9933028626,famFaceFilter,001,6,
55,./img/gray_Ice-T(OdafinFinTutuola)6_1.png,0,59,59,54,,,None,None,2,None,None,None,None,None,None,2,,['return'],[0.31690170212277735],1.08311728805,1.99942067144,2017_Jan_27_1049,59.9933028626,famFaceFilter,001,6,
8,./img/gray_BastianSchweinsteiger6_2.png,0,60,60,7,,,None,None,1,None,None,None,None,None,None,5,Bastian Schweinsteiger,"['lshift', 'b', 'a', 's', 't', 'i', 'a', 'n', 'space', 'lshift', 's', 'c', 'h', 'w', 'e', 'i', 'n', 's', 't', 'e', 'i', 'g', 'e', 'r', 'return']","[0.38348246392342844, 0.7167330360352935, 0.8667412800787133, 1.0333056179479172, 1.149901424327254, 1.38316553335153, 1.5164210454731801, 1.6663628880714896, 1.8494448261726575, 1.9328998954906638, 2.1996223137093693, 2.4495008985049935, 2.5993253356482455, 2.7158845731164547, 2.8492719257901626, 2.982590952337887, 3.199264002525524, 3.3656955375026882, 3.5004352983678473, 3.599034709030093, 3.782058906744169, 3.9988256246715537, 4.082105227365901, 4.23202782316821, 5.214997937385306]",1.96625266809,1.749693174,2017_Jan_27_1049,59.9933028626,famFaceFilter,001,6,
36,./img/gray_TomCruise5_1.png,0,61,61,35,,,None,None,1,None,None,None,None,None,None,1,,['return'],[0.46691219162676134],0.133698829987,1.18312845119,2017_Jan_27_1049,59.9933028626,famFaceFilter,001,6,
12,./img/gray_BarackObama2_1.png,0,62,62,11,,,None,None,1,None,None,None,None,None,None,4,Barack Obama,"['lshift', 'b', 'a', 'r', 'a', 'c', 'k', 'space', 'lshift', 'o', 'b', 'a', 'm', 'a', 'return']","[0.3336361495885285, 0.5501090330981242, 0.6836429822005812, 0.8168346591164664, 0.900046898025721, 1.1334614528377642, 1.2666181647409758, 1.4330830608305405, 1.53316928647655, 1.6831412823876235, 1.9164634525795918, 2.016328981632796, 2.1330190973121717, 2.2329487823508316, 2.5161701955667013]",0.966630867626,1.21656943827,2017_Jan_27_1049,59.9933028626,famFaceFilter,001,6,
48,./img/gray_LeonardoDiCaprio2_1.png,0,63,63,47,,,None,None,1,None,None,None,None,None,None,1,Leonardo Decaprio,"['lshift', 'l', 'e', 'o', 'n', 'a', 'r', 'd', 'o', 'space', 'lshift', 'd', 'e', 'c', 'a', 'p', 'r', 'i', 'o', 'return']","[0.6167712730020867, 1.083367496396022, 1.2166849190443827, 1.3832582387512957, 1.616464928167261, 1.7496226024104544, 1.9163640108008622, 2.0994860463933946, 2.2995256947924645, 2.532744253066994, 2.7158319652062346, 3.165766878958493, 3.415561740192061, 4.431676440830415, 4.548561269928541, 5.348237089729992, 5.531481984035963, 5.714705065307498, 5.914736373428241, 6.181264719788487]",0.166716708336,1.33289129859,2017_Jan_27_1049,59.9933028626,famFaceFilter,001,6,
44,./img/gray_BritneySpears5_1.png,0,64,64,43,,,None,None,1,None,None,None,None,None,None,2,Britney Spears,"['lshift', 'b', 'r', 'i', 't', 'n', 'e', 'y', 'space', 'lshift', 's', 'p', 'e', 'a', 'r', 's', 'return']","[0.3835806225824854, 0.7834385812293476, 1.1498725541332533, 1.3166239067022616, 1.8664528989202154, 2.1163292382570944, 2.2995067687770643, 2.682723947697923, 2.8491535579951233, 2.9658847335058454, 3.29919657458413, 3.53248634600277, 3.8322577582230224, 4.44849814043846, 4.631877120756144, 4.765294947524126, 5.414919859549627]",1.28286117735,1.30001809199,2017_Jan_27_1049,59.9933028626,famFaceFilter,001,6,
17,./img/gray_JasonSegel(Marshall)6_1.png,0,65,65,16,,,None,None,1,None,None,None,None,None,None,1,,['return'],[0.7166720878476553],0.183474251958,1.34979191006,2017_Jan_27_1049,59.9933028626,famFaceFilter,001,6,
40,./img/gray_BritneySpears1_1.png,0,66,66,39,,,None,None,1,None,None,None,None,None,None,2,Britney Spears,"['lshift', 'b', 'r', 'i', 't', 'n', 'e', 'y', 'space', 'lshift', 's', 'p', 'e', 'a', 'r', 's', 'return']","[0.350224962966422, 0.6668421332897196, 0.9666671157592646, 1.0998514147358947, 1.3499410727272334, 1.5664145977971202, 1.7163124935441374, 2.1495078273510444, 3.132251470936353, 3.2991702706294745, 3.5157300855007634, 4.281863551765127, 4.482024454979182, 4.765153483574068, 4.931781015088745, 5.048362386371991, 5.315050801918005]",1.13319584705,0.750114037266,2017_Jan_27_1049,59.9933028626,famFaceFilter,001,6,
15,./img/gray_GeorgeClooney11_1.png,0,67,67,14,,,None,None,1,None,None,None,None,None,None,1,George Cluney,"['lshift', 'g', 'e', 'o', 'r', 'g', 'e', 'space', 'lshift', 'c', 'l', 'u', 'n', 'e', 'y', 'return']","[0.7499988772706274, 0.9667293470656659, 1.2496383206271275, 1.482823517788347, 1.8163358463234545, 2.0162574477080852, 2.1663131671821247, 2.2825471337991985, 2.4660319714948855, 2.599458780099667, 2.9492827681515337, 3.1823778261514235, 3.4989218586506468, 3.6655667122822706, 3.9485594094057888, 4.648511164104093]",1.76630347963,4.48208091225,2017_Jan_27_1049,59.9933028626,famFaceFilter,001,6,
68,./img/gray_Ice-T(OdafinFinTutuola)7_1.png,0,68,68,67,,,None,None,2,None,None,None,None,None,None,2,,['return'],[0.4335818736244619],0.883366662368,1.66630097754,2017_Jan_27_1049,59.9933028626,famFaceFilter,001,6,
71,./img/gray_BritneySpears7_1.png,0,69,69,70,,,None,None,1,None,None,None,None,None,None,2,Britney Spears,"['lshift', 'b', 'r', 'i', 't', 'n', 'e', 'y', 'space', 'lshift', 's', 'p', 'e', 'capslock', 'r', 's', 'backspace', 'backspace', 'a', 'r', 's', 'return']","[0.36700720664248365, 1.1001337010757197, 1.4499336306325858, 1.5832982079309659, 1.8331822459858813, 2.0329168326707077, 2.1663760400488172, 2.4327876225142973, 2.6162686108500566, 2.7326639297725706, 3.0493503885609243, 3.1823412572393863, 3.3825335968867876, 3.7656856574803896, 3.915585798687971, 4.032254101332001, 4.632018905486802, 4.848447200585724, 5.4983867977252885, 5.631565964223228, 5.76492701294228, 6.048149709277823]",1.19958221622,1.71610943985,2017_Jan_27_1049,59.9933028626,famFaceFilter,001,6,
32,./img/gray_MariskaHargitay(Liv)6_5.png,0,70,70,31,,,None,None,2,None,None,None,None,None,None,3,,['return'],[0.5003445176462264],0.683480346776,1.73323812585,2017_Jan_27_1049,59.9933028626,famFaceFilter,001,6,
66,./img/gray_NeilPatrickHarris(Barney)3_7.png,0,71,71,65,,,None,None,1,None,None,None,None,None,None,1,,['return'],[0.3166771561700443],0.200329312677,1.58318818041,2017_Jan_27_1049,59.9933028626,famFaceFilter,001,6,
