num,pic,trials.thisRepN,trials.thisTrialN,trials.thisN,trials.thisIndex,key_resp_2.keys,key_resp_2.rt,ratingBekannt.response,ratingBekannt.rt,key_resp_5.keys,ratingK1.response,ratingK1.rt,ratingK2.response,ratingK2.rt,ratingK3.response,ratingK3.rt,key_resp_6.keys,inputText,key_resp_4.keys,key_resp_4.rt,key_resp_5.rt,key_resp_6.rt,date,frameRate,expName,session,participant,
,,,,,,space,10.0939025313,,,,,,,,,,,,,,,,2017_Jan_30_1503,59.9505378905,famFaceFilter,001,7,
7,./img/smoo15_LisaEdelstein(DrLisaCuddy)2_2.png,0,0,0,6,,,2.nein,10.906,None,dummy,0.935,None,None,None,None,None,,['return'],[0.6503699246040924],,,2017_Jan_30_1503,59.9505378905,famFaceFilter,001,7,
67,./img/smoo15_GeorgeClooney4_2.png,0,1,1,66,,,1.ja,3.306,None,act,0.941,None,None,None,None,None,George Clooney,"['lshift', 'g', 'e', 'o', 'r', 'g', 'space', 'backspace', 'e', 'space', 'lshift', 'c', 'l', 'o', 'o', 'n', 'e', 'y', 'return']","[1.3997835370082612, 1.4999169177317526, 1.7830523078264378, 1.9663773436259362, 2.1162276030736393, 2.3328304557144293, 2.5660991623772134, 2.849294538511458, 2.9492348090971063, 3.082419856085835, 3.4490769848653144, 3.5655775725354033, 3.8652707134679076, 4.065492565581735, 4.198914028136642, 4.332053845009796, 4.498680307129689, 4.76512001057381, 4.88184033320249]",,,2017_Jan_30_1503,59.9505378905,famFaceFilter,001,7,
5,./img/smoo15_BarackObama1_3.png,0,2,2,4,,,1.ja,1.413,None,None,None,None,None,polit,1.341,None,Barrack Obama,"['lshift', 'b', 'a', 'r', 'r', 'a', 'c', 'k', 'space', 'lshift', 'o', 'b', 'a', 'm', 'a', 'return']","[0.46688866847580357, 0.6168800715458929, 0.8168103337666253, 1.0500498493602208, 1.1666184425957908, 1.3164828164044593, 1.5159838736999518, 1.6996332190501562, 1.949700903831399, 2.2661827578940574, 2.432795426433586, 2.666026922504898, 2.782637217263982, 2.932520837930497, 3.0326006482337107, 3.199160387914162]",,,2017_Jan_30_1503,59.9505378905,famFaceFilter,001,7,
56,./img/smoo15_MariskaHargitay(Liv)6_5.png,0,3,3,55,,,2.nein,2.222,None,act,0.624,None,None,None,None,None,,['return'],[0.4502003597881412],,,2017_Jan_30_1503,59.9505378905,famFaceFilter,001,7,
41,./img/smoo15_AngelaMerkel3_1.png,0,4,4,40,,,1.ja,0.8,None,None,None,None,None,polit,0.541,None,Angela Merkel,"['lshift', 'a', 'n', 'g', 'e', 'l', 'a', 'space', 'lshift', 'm', 'e', 'r', 'k', 'e', 'l', 'return']","[0.7334454569718218, 1.1665363226711634, 1.6492805524630967, 1.8497009679886105, 1.9828991669965035, 2.11601620842157, 2.2495566807137948, 2.382725367871899, 2.5160387272444495, 2.599359977828499, 2.816001324184981, 2.965920230757547, 3.0492055538743443, 3.165715444192756, 3.898876047671365, 4.098520494055265]",,,2017_Jan_30_1503,59.9505378905,famFaceFilter,001,7,
37,./img/smoo15_Ice-T(OdafinFinTutuola)5_1.png,0,5,5,36,,,2.nein,1.46,None,None,None,music,0.657,None,None,None,,['return'],[0.4004231742419506],,,2017_Jan_30_1503,59.9505378905,famFaceFilter,001,7,
9,./img/smoo15_EmilyDeschanel6_12.png,0,6,6,8,,,1.ja,1.014,None,act,1.391,None,None,None,None,None,Nicole Kidman,"['lshift', 'n', 'i', 'c', 'o', 'l', 'e', 'space', 'lshift', 'k', 'i', 'd', 'm', 'a', 'n', 'return']","[0.583671864173084, 0.7004156038128713, 0.8502087642482365, 0.9832286090422713, 1.0666390367332497, 1.2499467503603228, 1.3666805457887676, 1.5165365792945522, 1.7497565272515203, 1.8665403645100014, 2.0330709131212643, 2.1164187885260617, 2.216182308800853, 2.366446696469211, 2.432958703942859, 2.9660151819207385]",,,2017_Jan_30_1503,59.9505378905,famFaceFilter,001,7,
29,./img/smoo15_GuentherJauch3_1.png,0,7,7,28,,,1.ja,1.33,None,None,None,host,0.908,None,None,None,Günter Jauch,"['lshift', 'g', u'\xfc', 'n', 't', 'e', 'r', 'space', 'less', 'j', 'backspace', 'lshift', 'j', 'a', 'u', 'c', 'h', 'return']","[0.50024379352908, 0.6168149530112714, 0.8666850367226289, 1.4665332431723073, 1.616414939153401, 1.8162277955416357, 1.966268919661161, 2.0330330609685916, 2.2660781833019428, 2.3829588964108552, 2.9492495650210913, 3.0657889671874727, 3.1988142652571696, 3.349006156428004, 3.465670983950986, 3.598897090902028, 3.732289041608965, 4.132151169951612]",,,2017_Jan_30_1503,59.9505378905,famFaceFilter,001,7,
50,./img/smoo15_OmarEpps(DrEricForeman)2_2.png,0,8,8,49,,,2.nein,1.406,None,None,None,music,0.657,None,None,None,,['return'],[0.483572807013843],,,2017_Jan_30_1503,59.9505378905,famFaceFilter,001,7,
55,./img/smoo15_MariskaHargitay(Liv)4_4.png,0,9,9,54,,,2.nein,1.361,None,act,1.174,None,None,None,None,None,,['return'],[0.25033585766686883],,,2017_Jan_30_1503,59.9505378905,famFaceFilter,001,7,
23,./img/smoo15_JoachimLoew4_1.png,0,10,10,22,,,1.ja,0.961,None,None,None,None,None,sport,0.807,None,Jogi Löw,"['lshift', 'j', 'o', 'g', 'i', 'space', 'lshift', 'l', u'\xf6', 'w', 'return']","[0.5662319656948966, 0.7329819284841506, 1.032773869952507, 1.5493723599720397, 1.6326644194887194, 1.7991622484441905, 1.9324938923309674, 2.0657613800249237, 2.232376935591674, 2.332431404200179, 2.465494233641948]",,,2017_Jan_30_1503,59.9505378905,famFaceFilter,001,7,
31,./img/smoo15_BritneySpears1_1.png,0,11,11,30,,,1.ja,1.21,None,act,1.007,None,None,None,None,None,Britney Spears,"['lshift', 'lshift', 'b', 'r', 't', 'backspace', 'i', 't', 'n', 'e', 'y', 'space', 'lshift', 's', 'p', 'e', 'a', 'r', 's', 'return']","[0.4502455899037159, 1.1998696346181532, 1.283229699698495, 1.4999159553881327, 1.9330668071252148, 2.4994027058510255, 2.7160456561123283, 2.849366393447781, 3.1319882132247585, 3.232576461350618, 3.482349669211544, 3.732236112749888, 4.08206635546594, 4.231970506114521, 4.5650117149216385, 4.798593183018966, 5.01502698409422, 5.198396608446274, 5.414859279808297, 5.514821363498413]",,,2017_Jan_30_1503,59.9505378905,famFaceFilter,001,7,
70,./img/smoo15_JasonSegel(Marshall)7_1.png,0,12,12,69,,,1.ja,1.718,None,act,1.09,None,None,None,None,None,Himym,"['lshift', 'h', 'i', 'm', 'y', 'm', 'return']","[1.1001712328761641, 1.3333456299369573, 1.5666444900089118, 1.7832152645532915, 2.266265840164124, 2.7160681107798155, 3.150010008364916]",,,2017_Jan_30_1503,59.9505378905,famFaceFilter,001,7,
64,./img/smoo15_JoachimLoew8_1.png,0,13,13,63,,,1.ja,1.277,None,None,None,None,None,sport,0.54,None,Jogi Löw,"['lshift', 'j', 'o', 'g', 'i', 'space', 'lshift', 'l', u'\xf6', 'w', 'return']","[0.5498811185752857, 0.6668891817262192, 0.8668332375254977, 1.1331686871581041, 1.2166830478799966, 1.4000096875843155, 1.5497454282285617, 1.6666383310148376, 1.8498719442395668, 1.9664177620252303, 2.1164146183728008]",,,2017_Jan_30_1503,59.9505378905,famFaceFilter,001,7,
2,./img/smoo15_WillSmith5_1.png,0,14,14,1,,,1.ja,1.336,None,act,0.408,None,None,None,None,None,Will smith,"['lshift', 'w', 'i', 'l', 'l', 'space', 's', 'm', 'i', 't', 'h', 'return']","[0.5171200798613427, 0.667247173278156, 1.0003567084295355, 1.2334236438673543, 1.38361681816059, 1.5831922966390266, 1.7500102649919427, 1.8333651975754037, 1.9999409763040603, 2.1166632236181613, 2.1998510293233267, 2.4830181767338217]",,,2017_Jan_30_1503,59.9505378905,famFaceFilter,001,7,
16,./img/smoo15_WillSmith4_1.png,0,15,15,15,,,1.ja,1.173,None,act,1.091,None,None,None,None,None,Will smith,"['lshift', 'w', 'i', 'l', 'l', 'space', 's', 'm', 'i', 't', 'h', 'return']","[0.5001498047095083, 0.6168005178697058, 0.9501467893678637, 1.1663910088955163, 1.2997207280968723, 1.4832693482258037, 1.5830270944443328, 1.6830536551078694, 1.849649643036173, 1.9828154431652365, 2.0829715993368154, 2.4162575640148134]",,,2017_Jan_30_1503,59.9505378905,famFaceFilter,001,7,
30,./img/smoo15_KatjaBurkard4_1.png,0,16,16,29,,,1.ja,1.531,None,None,None,host,0.723,None,None,None,punkt 12,"['p', 'u', 'n', 'k', 't', 'space', '1', '2', 'return']","[0.800148649897892, 1.0333766173789627, 1.1999296206577128, 1.299901648557352, 1.3665769335402729, 1.533163939600854, 1.9163691957892297, 2.0994995175460645, 2.216189365983155]",,,2017_Jan_30_1503,59.9505378905,famFaceFilter,001,7,
42,./img/smoo15_OmarEpps(DrEricForeman)1_5.png,0,17,17,41,,,2.nein,1.206,None,None,None,music,0.557,None,None,None,,['return'],[0.4835981487085519],,,2017_Jan_30_1503,59.9505378905,famFaceFilter,001,7,
36,./img/smoo15_BastianSchweinsteiger6_2.png,0,18,18,35,,,1.ja,1.23,None,None,None,None,None,sport,0.59,None,Bastian Schweinsteiger,"['lshift', 'b', 'a', 's', 'o', 'backspace', 't', 'o', 'a', 'backspace', 'backspace', 'i', 'a', 'n', 'space', 'lshift', 's', 'c', 'h', 'w', 'e', 'i', 'n', 's', 't', 'e', 'i', 'g', 'e', 'r', 'return']","[0.5335363662961754, 0.6335664555499534, 0.8002974922637804, 1.1668654439363308, 1.5498657210901001, 1.833178823837443, 1.9330449940207473, 2.0997243849997176, 2.2663216560522415, 2.666337759255839, 2.7995725272921845, 3.065976944832073, 3.215830091306998, 3.3159413381454215, 3.549123433947898, 3.7990384269924107, 3.9331376997179177, 4.1819777557648194, 4.6486771634754405, 5.531745766975291, 5.698198686595788, 5.748167378373182, 5.897728614176231, 5.981637214697912, 6.214720509964536, 6.39787970200814, 6.44802225706735, 6.6310245872191445, 6.764647500218416, 6.914422696921974, 7.164363352443615]",,,2017_Jan_30_1503,59.9505378905,famFaceFilter,001,7,
22,./img/smoo15_WillSmith1_1.png,0,19,19,21,,,1.ja,1.619,None,act,1.107,None,None,None,None,None,Will smith,"['lshift', 'w', 'i', 'l', 'l', 'space', 's', 'm', 'i', 't', 'h', 'return']","[0.8003850654640701, 0.9338921765356645, 1.2513331656700757, 1.5004670570779126, 2.3999150572017243, 2.5999662538415578, 2.7000194393258425, 2.8000017322156054, 2.9332095546524215, 3.0664683812610747, 3.1831056216215075, 3.56627174253299]",,,2017_Jan_30_1503,59.9505378905,famFaceFilter,001,7,
12,./img/smoo15_MariskaHargitay(Liv)8_8.png,0,20,20,11,,,2.nein,1.598,None,dummy,0.524,None,None,None,None,None,,['return'],[0.41672975358778785],,,2017_Jan_30_1503,59.9505378905,famFaceFilter,001,7,
53,./img/smoo15_GuentherJauch4_1.png,0,21,21,52,,,1.ja,1.174,None,None,None,host,0.69,None,None,None,Günter Jauch,"['lshift', 'g', u'\xfc', 'n', 't', 'e', 'r', 'space', 'lshift', 'j', 'a', 'u', 'c', 'h', 'return']","[0.600234747507784, 0.6833269604849193, 0.9667170506636467, 1.283224246422833, 1.4831532255175262, 1.6497177769124391, 1.7997778271073912, 1.8663748415347072, 2.0661735835601576, 2.199575799259037, 2.349541539851998, 2.4661720438125485, 2.58277303592331, 2.699250206584111, 2.9992480894288747]",,,2017_Jan_30_1503,59.9505378905,famFaceFilter,001,7,
68,./img/smoo15_AlysonHannigan(Lily)8_3.png,0,22,22,67,,,1.ja,1.456,None,act,0.407,None,None,None,None,None,Amercian pie,"['lshift', 'a', 'm', 'e', 'r', 'c', 'i', 'a', 'n', 'space', 'p', 'i', 'e', 'return']","[0.8663716337232472, 1.0000019246854208, 1.3664592069253558, 1.5332175100211316, 1.666390688113097, 1.8492977463210991, 1.9663298680425214, 2.132923610504804, 2.232864522651653, 2.3827799006339774, 2.632691685870668, 2.8492300615380373, 2.949198240066835, 3.132557920209365]",,,2017_Jan_30_1503,59.9505378905,famFaceFilter,001,7,
38,./img/smoo15_AlysonHannigan(Lily)5_4.png,0,23,23,37,,,1.ja,1.229,None,dummy,0.656,None,None,None,None,None,american pi,"['a', 'm', 'e', 'r', 'c', 'a', 'backspace', 'i', 'a', 'n', 'backspace', 'backspace', 'backspace', 'i', 'backspace', 'backspace', 'i', 'c', 'a', 'n', 'space', 'p', 'i', 'return']","[0.566906568054037, 0.6668577451910096, 0.8000626805987849, 0.9500213640112634, 1.1497521004730515, 1.4164878847441287, 1.633037166964641, 1.8505160724089365, 1.9991165692335926, 2.116097045221977, 2.382704196326813, 2.5660609894421214, 2.665977201455462, 2.932527574330379, 3.2658562028773304, 3.4156759881334438, 3.6156194023715216, 3.782256450262139, 4.015412883589306, 4.098666770170894, 4.2654122420281055, 4.4319947571548255, 4.665181664673582, 4.931906542391516]",,,2017_Jan_30_1503,59.9505378905,famFaceFilter,001,7,
18,./img/smoo15_HughLaurie(DrHouse)4_1.png,0,24,24,17,,,1.ja,1.953,None,act,0.84,None,None,None,None,None,Dr House,"['lshift', 'd', 'r', 'space', 'lshift', 'h', 'o', 'u', 's', 'e', 'return']","[0.5500241868849116, 0.6667531705988949, 0.800215372337334, 0.9832715936918248, 1.1667028079882584, 1.2832556829562236, 1.4999582984746667, 1.6997288117763674, 1.78299841662556, 1.9830383859334688, 2.132660570117878]",,,2017_Jan_30_1503,59.9505378905,famFaceFilter,001,7,
58,./img/smoo15_EmilyDeschanel3_1.png,0,25,25,57,,,1.ja,2.541,None,act,0.424,None,None,None,None,None,,['return'],[0.5667468191368243],,,2017_Jan_30_1503,59.9505378905,famFaceFilter,001,7,
20,./img/smoo15_NicoleKidman5_1.png,0,26,26,19,,,1.ja,1.684,None,act,1.441,None,None,None,None,None,Nicole Kidman,"['lshift', 'n', 'i', 'c', 'o', 'l', 'e', 'space', 'lshift', 'k', 'i', 'd', 'm', 'a', 'n', 'return']","[0.6999928145069134, 0.9666490450981655, 1.1664567689913383, 1.283199867068106, 1.4330668071252148, 1.6328857583521312, 1.849691986120888, 2.1325162186858506, 2.382896023342255, 2.4325981461424817, 2.599356770017039, 2.699315004336313, 2.8160125515169057, 2.899088083884635, 3.0159620605936652, 3.3323188100821426]",,,2017_Jan_30_1503,59.9505378905,famFaceFilter,001,7,
43,./img/smoo15_JoachimLoew1_1.png,0,27,27,42,,,1.ja,1.328,None,None,None,None,None,sport,0.689,None,Jogi Löw,"['lshift', 'j', 'o', 'g', 'i', 'space', 'lshift', 'l', u'\xf6', 'w', 'return']","[1.5838537469771836, 1.700574390388283, 2.350091679198158, 2.5834113900327793, 2.7002038883783825, 2.883438784727332, 2.9999695258084103, 3.1332931501710846, 3.3164510590904683, 3.433197364976877, 3.9663532850536285]",,,2017_Jan_30_1503,59.9505378905,famFaceFilter,001,7,
35,./img/smoo15_KatjaBurkard1_1.png,0,28,28,34,,,1.ja,2.443,None,None,None,host,0.59,None,None,None,Punkt 12,"['lshift', 'p', 'u', 'n', 'k', 't', 'space', '1', '2', 'return']","[0.5169808609243773, 0.6998818242936977, 0.9166893351884937, 1.0998831715751294, 1.1999325076867535, 1.316631979552767, 1.3999400781158329, 1.5829218782873795, 1.7498402510809683, 1.9829052618351852]",,,2017_Jan_30_1503,59.9505378905,famFaceFilter,001,7,
13,./img/smoo15_GeorgeClooney3_1.png,0,29,29,12,,,1.ja,3.495,None,dummy,0.874,None,None,None,None,None,George Clooney,"['lshift', 'g', 'e', 'o', 'r', 'g', 'e', 'space', 'lshift', 'c', 'l', 'o', 'o', 'n', 'e', 'y', 'return']","[7.130823457557199, 7.214128027530023, 7.463955447374246, 7.6969357719517575, 7.847112586418007, 7.997357406447918, 8.113794800268806, 8.213982392973776, 8.447019175002424, 8.613659751483283, 8.946923903056813, 9.146660413576683, 9.31329585756248, 9.531368207783089, 9.61316093709138, 9.879726065890281, 9.996358173755652]",,,2017_Jan_30_1503,59.9505378905,famFaceFilter,001,7,
40,./img/smoo15_NeilPatrickHarris(Barney)2_2.png,0,30,30,39,,,1.ja,1.567,None,act,0.64,None,None,None,None,None,Barney Stinson,"['lshift', 'a', 'backspace', 'lshift', 'b', 'a', 'r', 'n', 'e', 'y', 'space', 'lshift', 's', 't', 'i', 'n', 's', 'o', 'n', 'return']","[0.6169384536806319, 0.8666455806651356, 1.1665671176415344, 1.3996144854409067, 1.6165461385662638, 1.749658689057469, 1.8830150330777542, 2.1829785923619056, 2.332887233944348, 2.6660509810753865, 2.7827732283913065, 2.9825068518803164, 3.115789416280677, 3.482470603632464, 3.6656301164566685, 3.8155737231627427, 3.9155739797879505, 3.9990190518219606, 4.132125828255084, 4.431968132335896]",,,2017_Jan_30_1503,59.9505378905,famFaceFilter,001,7,
32,./img/smoo15_TomCruise1_1.png,0,31,31,31,,,1.ja,1.144,None,dummy,0.44,None,None,None,None,None,Tom Cruise,"['lshift', 't', 'o', 'm', 'space', 'lshift', 'c', 'r', 'u', 'i', 's', 'e', 'return']","[0.41675509528613475, 0.6335414346358448, 0.9165991957397637, 1.083349479309618, 1.266577639258685, 1.3497696151152923, 1.5664353408246825, 1.849752292942867, 1.9663795890937763, 2.1662068806235766, 2.3161132767399977, 2.482700282800579, 2.699285492490162]",,,2017_Jan_30_1503,59.9505378905,famFaceFilter,001,7,
62,./img/smoo15_RobertSeanLeonard(Wilson)1_1.png,0,32,32,61,,,1.ja,2.992,None,act,0.673,None,None,None,None,None,Himym,"['lshift', 'h', 'i', 'm', 'y', 'm', 'return']","[1.0000737796217436, 1.5174636362698948, 1.6330987569090212, 1.8164706267289148, 2.23313397865968, 2.699431447825191, 3.015971363241988]",,,2017_Jan_30_1503,59.9505378905,famFaceFilter,001,7,
25,./img/smoo15_JasonSegel(Marshall)6_1.png,0,33,33,24,,,1.ja,1.478,None,dummy,0.64,None,None,None,None,None,Himym,"['lshift', 'h', 'i', 'm', 'y', 'backspace', 'y', 'm', 'return']","[0.3834830525011057, 0.7334345504204975, 0.8500679414082697, 1.0334503969988873, 1.4499273751916917, 2.4661422111821594, 4.165442780376907, 4.7816411923813575, 5.165059126347842]",,,2017_Jan_30_1503,59.9505378905,famFaceFilter,001,7,
65,./img/smoo15_UrsulavonderLeyen4_1.png,0,34,34,64,,,1.ja,2.768,None,None,None,None,None,polit,0.94,None,Ursula von der Leyen,"['lshift', 'u', 'r', 's', 'u', 'l', 'a', 'space', 'v', 'o', 'n', 'space', 'd', 'e', 'r', 'space', 'lshift', 'l', 'e', 'y', 'e', 'n', 'return']","[0.46692395438185486, 0.6332001236933138, 1.0830492283294006, 1.299918649949177, 1.4164577313349582, 1.6331026062816818, 1.76634763930997, 1.8496461144441128, 2.016268406412564, 2.3661057063090993, 2.5492831828651106, 2.7158284874021774, 2.782553493432715, 2.9656706631703855, 3.099078332144927, 3.2490706975586363, 3.449946622047719, 3.5155492154990498, 3.815586554401307, 4.0654813382479915, 4.365392289451847, 4.481949655353674, 4.731755903652811]",,,2017_Jan_30_1503,59.9505378905,famFaceFilter,001,7,
4,./img/smoo15_UrsulavonderLeyen1_1.png,0,35,35,3,,,1.ja,1.307,None,None,None,None,None,polit,0.574,None,Ursula von der Leyen,"['lshift', 'u', 'r', 's', 'u', 'l', 'a', 'space', 'v', 'o', 'n', 'space', 'd', 'e', 'r', 'space', 'lshift', 'l', 'e', 'y', 'e', 'n', 'return']","[0.4168850115747773, 0.6002979413569847, 0.8833672505734285, 1.0833132310599467, 1.1663788192181528, 1.3997909149711631, 1.5332377192225977, 1.616279248808496, 1.7831870358313608, 1.8996045412332023, 2.0995675231097266, 2.2830192673882266, 2.332911934079675, 2.499585551000564, 2.6327596914343303, 2.766212911306866, 2.9491764269623673, 3.049246613836658, 3.299042917926272, 3.532372893752836, 3.6989348788993084, 3.815600668764091, 4.031940160237355]",,,2017_Jan_30_1503,59.9505378905,famFaceFilter,001,7,
34,./img/smoo15_EmilyDeschanel5_1.png,0,36,36,33,,,2.nein,1.692,None,None,None,host,0.59,None,None,None,,['return'],[0.4501124658036133],,,2017_Jan_30_1503,59.9505378905,famFaceFilter,001,7,
6,./img/smoo15_AlysonHannigan(Lily)1_1.png,0,37,37,5,,,1.ja,1.112,None,act,0.558,None,None,None,None,None,American Pie,"['lshift', 'a', 'm', 'e', 'r', 'i', 'c', 'a', 'n', 'space', 'lshift', 'p', 'i', 'e', 'return']","[0.5337512895384862, 0.7170397563095321, 1.1835928879008861, 1.35006729984525, 1.4833453733117494, 1.849809712733986, 2.0328550275353336, 2.232930603529894, 2.332992129318882, 2.4829373399297765, 2.6162417174346047, 2.6996101228196494, 2.9161452906791965, 2.999351060116169, 3.3659109922646167]",,,2017_Jan_30_1503,59.9505378905,famFaceFilter,001,7,
10,./img/smoo15_KatjaBurkard5_3.png,0,38,38,9,,,1.ja,1.057,None,None,None,host,0.623,None,None,None,Punkt12,"['lshift', 'p', 'u', 'n', 'k', 't', '1', '2', 'return']","[0.6499060753358208, 0.7999937126933219, 1.034260048143551, 1.1999899274778727, 1.33317048353274, 1.466164024288446, 1.8996962845867529, 2.066254420362384, 2.1829256635046477]",,,2017_Jan_30_1503,59.9505378905,famFaceFilter,001,7,
59,./img/smoo15_JoshRadnor(Ted)1_2.png,0,39,39,58,,,1.ja,1.265,None,act,0.59,None,None,None,None,None,Ted Mosby,"['lshift', 't', 'e', 'd', 'space', 'lshift', 'm', 'o', 's', 'y', 'b', 'backspace', 'backspace', 's', 'b', 'backspace', 'backspace', 'backspace', 's', 'b', 'y', 'return']","[0.5335912198406731, 0.6502044016287982, 0.9327004752685752, 1.1500019888426323, 1.250069930249083, 1.4498731632083945, 1.5497303515239764, 1.7162936197946692, 1.8325372619165137, 2.048947645980661, 2.199511001503197, 2.549506125633343, 2.6994224659592874, 2.832699897862767, 3.13260475422976, 3.449116761703408, 3.565764908615165, 3.7654375837246334, 4.298797841272972, 4.44866189430104, 4.681961075155414, 5.1651912881025055]",,,2017_Jan_30_1503,59.9505378905,famFaceFilter,001,7,
26,./img/smoo15_TomCruise4_1.png,0,40,40,25,,,1.ja,1.151,None,act,0.524,None,None,None,None,None,Tom Cruise,"['lshift', 't', 'o', 'm', 'space', 'lshift', 'c', 'r', 'u', 'i', 's', 'e', 'return']","[0.5668125792326464, 0.7501286331644224, 1.1500972607864242, 1.3331040818738984, 1.499931032092718, 1.6495743878222129, 1.783052628607038, 2.049662025179714, 2.166121552887489, 2.349614357130122, 2.4658955306222197, 2.632670193546801, 2.8159637928110897]",,,2017_Jan_30_1503,59.9505378905,famFaceFilter,001,7,
27,./img/smoo15_JasonSegel(Marshall)9_1.png,0,41,41,26,,,1.ja,1.224,None,dummy,0.458,None,None,None,None,None,Himym,"['lshift', 'h', 'i', 'm', 'y', 'm', 'return']","[0.6334342937934707, 0.9001049595299264, 1.1167103784173378, 1.3498815676684899, 1.7164097425011278, 2.1329540846963937, 2.5326972033017228]",,,2017_Jan_30_1503,59.9505378905,famFaceFilter,001,7,
47,./img/smoo15_BarackObama4_1.png,0,42,42,46,,,1.ja,1.09,None,None,None,None,None,polit,0.708,None,Barrack Obama,"['lshift', 'b', 'a', 'r', 'r', 'a', 'c', 'k', 'space', 'lshift', 'o', 'b', 'a', 'm', 'a', 'return']","[0.417469795265788, 0.6173891509315581, 0.8173774745046103, 0.9174143001582706, 1.0506407278917322, 1.1671961691063188, 1.3671014104111237, 1.5003429148473515, 1.7002930654853117, 1.8003061533490836, 1.8836652560858056, 2.0835162854091323, 2.183472915821767, 2.3167509892882663, 2.48334826034079, 2.633376232441151]",,,2017_Jan_30_1503,59.9505378905,famFaceFilter,001,7,
14,./img/smoo15_BritneySpears7_1.png,0,43,43,13,,,1.ja,1.508,None,None,None,music,1.557,None,None,None,Britney Spears,"['lshift', 'b', 'r', 'i', 't', 'n', 'e', 'y', 'space', 'lshift', 's', 'p', 'e', 'r', 'a', 'backspace', 'a', 'backspace', 'backspace', 'a', 'r', 's', 'return']","[0.3502167837723391, 0.6000990571592411, 0.8500371464342606, 0.9501243347003765, 1.0831743329035817, 1.2167115973861655, 1.3162406267801998, 1.53318094099086, 1.6831537387661228, 1.866277003340656, 1.9664071762545063, 2.316100766280215, 2.566031798374752, 2.716029296283523, 2.982347423743704, 3.399021040664593, 3.749572719760181, 3.9489826752615045, 4.148595685110195, 4.315395689729485, 4.615263335505006, 4.898503941756644, 5.048224926476905]",,,2017_Jan_30_1503,59.9505378905,famFaceFilter,001,7,
61,./img/smoo15_OmarEpps(DrEricForeman)3_1.png,0,44,44,60,,,2.nein,1.101,None,None,None,music,0.69,None,None,None,,['return'],[0.6504350431387138],,,2017_Jan_30_1503,59.9505378905,famFaceFilter,001,7,
44,./img/smoo15_GuentherJauch2_1.png,0,45,45,43,,,1.ja,1.34,None,None,None,host,0.672,None,None,None,Günter Jauch,"['lshift', 'g', u'\xfc', 'p', 'backspace', u'\xfc', 'backspace', 'n', 't', 'e', 'r', 'space', 'lshift', 'j', 'a', 'u', 'c', 'h', 'return']","[0.5667904453457595, 0.7167423923583556, 1.1166805457887676, 1.4331017722506658, 1.5997808424472169, 2.117278802279543, 2.416017619856575, 2.5654906408944953, 2.7493189820197586, 2.8991467867999745, 2.9991919527601567, 3.18246919219564, 3.299052541355195, 3.432366221508346, 3.5156675836715294, 3.6655759044733713, 3.7653984484459215, 4.048734326641352]",,,2017_Jan_30_1503,59.9505378905,famFaceFilter,001,7,
52,./img/smoo15_BastianSchweinsteiger3_1.png,0,46,46,51,,,1.ja,1.303,None,None,None,None,None,sport,0.474,None,Bastian Schweinsteiger,"['lshift', 'b', 'a', 's', 't', 'i', 'a', 'm', 'backspace', 'n', 'space', 'lshift', 's', 'c', 'w', 'backspace', 'h', 'w', 'e', 'i', 'n', 's', 't', 'e', 'i', 'g', 'e', 'r', 'return']","[0.5168717953984014, 0.6835123718810792, 0.8500563932939258, 1.0000894978893484, 1.2333966982660058, 1.3332112227144535, 1.4999775453325128, 1.6832304054169072, 2.1663169084931724, 2.382827055436792, 2.5492992219133157, 2.7992661814751045, 2.9492444325260294, 3.1492503990521072, 3.3991554478870967, 3.665716727316976, 3.9321557891980774, 4.132091825475072, 4.248695704614875, 4.315339553062586, 4.5153221025793755, 4.581935797616097, 4.8152619240700005, 5.015013190513855, 5.081771236982604, 5.281750578689753, 5.381643052911386, 5.5149150315392035, 5.714906562921897]",,,2017_Jan_30_1503,59.9505378905,famFaceFilter,001,7,
49,./img/smoo15_TomCruise5_1.png,0,47,47,48,,,1.ja,1.202,None,act,0.408,None,None,None,None,None,Tom Cruise,"['lshift', 't', 'o', 'm', 'space', 'lshift', 'c', 'r', 'u', 'i', 's', 'e', 'return']","[0.4002515564297937, 0.5333926564271678, 0.8167285346225981, 0.9998550070067722, 1.1500064797764935, 1.2166564230628865, 1.5497390126110986, 1.8329539563856088, 1.999512412940021, 2.1660285264097183, 2.832592757024031, 2.999196443694018, 3.115930559904882]",,,2017_Jan_30_1503,59.9505378905,famFaceFilter,001,7,
54,./img/smoo15_LisaEdelstein(DrLisaCuddy)6_3.png,0,48,48,53,,,2.nein,2.017,None,None,None,host,0.558,None,None,None,,['return'],[0.466991959945517],,,2017_Jan_30_1503,59.9505378905,famFaceFilter,001,7,
33,./img/smoo15_Ice-T(OdafinFinTutuola)7_1.png,0,49,49,32,,,2.nein,1.046,None,None,None,music,0.508,None,None,None,,['return'],[0.21700735743252153],,,2017_Jan_30_1503,59.9505378905,famFaceFilter,001,7,
21,./img/smoo15_NeilPatrickHarris(Barney)3_7.png,0,50,50,20,,,1.ja,1.334,None,dummy,0.626,None,None,None,None,None,Barney Stinson,"['lshift', 'b', 'a', 'r', 'n', 'e', 'y', 'space', 'lshift', 's', 't', 'i', 'n', 's', 'o', 'n', 'return']","[0.833296550450541, 1.0167280855293939, 1.2000364407176676, 1.2998798354528844, 1.5496671576765948, 1.6663480242459627, 1.8827718811116938, 2.0329005784333276, 2.316086972701669, 2.449438825788093, 2.7824582214889233, 2.9660183897321986, 3.0991691131566768, 3.2157386687340477, 3.3150287163116445, 3.4483892304851906, 3.6815985926696158]",,,2017_Jan_30_1503,59.9505378905,famFaceFilter,001,7,
19,./img/smoo15_NicoleKidman7_1.png,0,51,51,18,,,1.ja,1.135,None,act,0.557,None,None,None,None,None,Nicole Kidman,"['lshift', 'n', 'i', 'c', 'o', 'l', 'e', 'space', 'lshift', 'k', 'i', 'd', 'm', 'a', 'n', 'return']","[0.4502866498660296, 0.5836314457719709, 0.7502790794351313, 0.8833585894863063, 0.9665893798392062, 1.4167294328071875, 1.5166854216586216, 1.6499269260966685, 1.899783216225842, 1.9663487941197673, 2.116359764828303, 2.2163022808799724, 2.316371184630043, 2.4661954608200176, 2.5328864640687243, 2.7660871651678463]",,,2017_Jan_30_1503,59.9505378905,famFaceFilter,001,7,
57,./img/smoo15_UrsulavonderLeyen5_1.png,0,52,52,56,,,1.ja,2.074,None,None,None,None,None,polit,1.024,None,Ursula von der Leyen,"['lshift', 'u', 'r', 's', 'u', 'l', 'a', 'space', 'v', 'o', 'n', 'space', 'd', 'e', 'r', 'space', 'lshift', 'l', 'e', 'y', 'e', 'n', 'return']","[0.416940827459257, 0.6001770069324266, 0.8667751761713589, 1.0500293193781545, 1.1166475053505565, 1.3162967634470988, 1.4331383412791183, 1.5332300204772764, 1.6497883487209037, 1.7664252683007362, 1.9330174068563792, 2.099564636078867, 2.166299586320747, 2.3162528164557443, 2.46614092805612, 2.599232948567078, 2.815977907172055, 2.9327248546214832, 3.1491320308759896, 3.333254207362188, 3.5157769699799246, 3.6323750750616455, 3.8821906260091055]",,,2017_Jan_30_1503,59.9505378905,famFaceFilter,001,7,
15,./img/smoo15_LisaEdelstein(DrLisaCuddy)1_1.png,0,53,53,14,,,2.nein,1.557,None,None,None,host,0.724,None,None,None,,['return'],[0.6836384387970611],,,2017_Jan_30_1503,59.9505378905,famFaceFilter,001,7,
48,./img/smoo15_JoshRadnor(Ted)6_2.png,0,54,54,47,,,2.nein,5.316,None,None,None,music,1.667,None,None,None,,"['lshift', 'n', 'e', 'o', 'backspace', 'backspace', 'backspace', 'delete', 'return']","[0.6333120762483304, 0.8334636773306556, 1.099984538357603, 1.5665264426170324, 2.049632513331744, 2.2168877061340027, 2.4329362492753717, 2.832594681707633, 3.4323835436807713]",,,2017_Jan_30_1503,59.9505378905,famFaceFilter,001,7,
51,./img/smoo15_LeonardoDiCaprio1_1.png,0,55,55,50,,,1.ja,1.144,None,act,0.808,None,None,None,None,None,Leonardo di caprio,"['lshift', 'l', 'e', 'o', 'n', 'a', 'r', 'c', 'o', 'space', 'd', 'i', 'space', 'backspace', 'backspace', 'backspace', 'backspace', 'backspace', 'backspace', 'd', 'o', 'space', 'd', 'i', 'space', 'c', 'a', 'p', 'r', 'i', 'o', 'return']","[0.5001052161551343, 0.6666485960049613, 0.8334200511180825, 0.9000828256430395, 1.0832115434950538, 1.166346099558723, 1.3999022259631602, 1.5830277360037144, 1.6829064166449825, 1.9001848339885328, 2.0329374682423804, 2.1327949773385626, 2.332848098665636, 2.6992203739537217, 2.8325741517255665, 3.0491888732631196, 3.165721859810219, 3.3989940950632445, 3.5656593716794305, 3.931860670712922, 4.115318189049503, 4.365238956152098, 4.631831030552348, 4.6818590668081015, 4.915059126346023, 5.131660375081992, 5.381546497841555, 5.481560548047128, 5.631402787970728, 5.714851067814379, 5.864684646652677, 6.047745358941029]",,,2017_Jan_30_1503,59.9505378905,famFaceFilter,001,7,
63,./img/smoo15_RobertSeanLeonard(Wilson)8_1.png,0,56,56,62,,,2.nein,3.654,None,act,0.575,None,None,None,None,None,tom cruise,"['t', 'o', 'm', 'space', 'c', 'r', 'u', 'i', 's', 'e', 'return']","[0.7168857814485818, 0.8334149186248396, 1.0334465476262267, 1.1996405970112392, 1.3165453686924593, 1.4666352515178005, 1.566372146973663, 1.7164729363521474, 1.8329639005933132, 2.0159601359082444, 2.1495429512870032]",,,2017_Jan_30_1503,59.9505378905,famFaceFilter,001,7,
69,./img/smoo15_BritneySpears5_1.png,0,57,57,68,,,1.ja,1.432,None,None,None,music,0.524,None,None,None,Britney spears,"['lshift', 'b', 'r', 'i', 't', 'n', 'e', 'y', 'space', 's', 'p', 'e', 'a', 'r', 's', 'return']","[0.4169587911947019, 0.6166616197133408, 0.8500525439212652, 1.6332123133706773, 1.7830054738060426, 1.8496672859873797, 2.0162975974799338, 2.266167360408872, 2.449474111694144, 2.6824813818730036, 2.949191182886352, 3.3658006436162395, 3.565694978366082, 3.765652186186344, 3.9987929012459063, 4.1488542345650785]",,,2017_Jan_30_1503,59.9505378905,famFaceFilter,001,7,
28,./img/smoo15_HughLaurie(DrHouse)5_3.png,0,58,58,27,,,1.ja,1.14,None,act,0.558,None,None,None,None,None,dr house,"['d', 'r', 'space', 'h', 'u', 'backspace', 'o', 'u', 's', 'r', 'backspace', 'e', 'return']","[0.6501610961968254, 0.7667537480047031, 0.983359808455134, 1.3499303263743059, 1.7331121655533934, 2.083080344082191, 2.399393146577495, 2.6161188583264448, 2.6993855761484156, 2.899206772839534, 3.4657319323323463, 3.5158013493328326, 3.7824097835618886]",,,2017_Jan_30_1503,59.9505378905,famFaceFilter,001,7,
1,./img/smoo15_Ice-T(OdafinFinTutuola)6_1.png,0,59,59,0,,,2.nein,1.44,None,None,None,music,1.307,None,None,None,dr dre,"['d', 'r', 'space', 'd', 'r', 'e', 'return']","[0.7333723189130978, 0.9330318420015828, 1.0499738242724561, 1.5497919414683565, 1.7327827235076256, 1.9327364027358271, 2.132729538023341]",,,2017_Jan_30_1503,59.9505378905,famFaceFilter,001,7,
66,./img/smoo15_NicoleKidman3_1.png,0,60,60,65,,,1.ja,1.565,None,act,0.557,None,None,None,None,None,nicole kidman,"['n', 'i', 'c', 'o', 'l', 'e', 'space', 'k', 'i', 'd', 'm', 'a', 'n', 'return']","[0.6333723830703093, 0.8667799878876394, 1.1166699600180436, 1.249905690398009, 1.4012010680726235, 1.516449326873044, 1.6497521004748705, 1.849524538460173, 2.032835139116287, 2.1658973269968556, 2.932363013698705, 3.0493130154954997, 3.1325543916209426, 3.3823401099380135]",,,2017_Jan_30_1503,59.9505378905,famFaceFilter,001,7,
39,./img/smoo15_BarackObama2_1.png,0,61,61,38,,,1.ja,1.231,None,None,None,music,1.424,None,None,None,barrack obama,"['b', 'a', 'r', 'r', 'a', 'c', 'k', 'space', 'o', 'b', 'a', 'm', 'a', 'return']","[0.7167715834275441, 1.6163616895155428, 1.7662642362593033, 1.8994669262010575, 2.0162748220318463, 2.216211820650642, 2.366158314385757, 2.5161859657055174, 2.6823976580435556, 3.13239143489227, 3.31578415547483, 3.4323941294533142, 3.6155513968096784, 3.7153283898860536]",,,2017_Jan_30_1503,59.9505378905,famFaceFilter,001,7,
46,./img/smoo15_NeilPatrickHarris(Barney)1_1.png,0,62,62,45,,,1.ja,1.306,None,dummy,0.408,None,None,None,None,None,barney stinson,"['b', 'a', 'r', 'n', 'e', 'y', 'space', 's', 't', 'i', 'n', 's', 'o', 'n', 'return']","[0.6666646350531664, 0.7998904212236084, 1.0164194942444738, 1.1164017871342367, 1.1998362733975227, 1.4163714412552508, 1.5496055677303957, 1.6330875295752776, 1.8329068015827943, 2.4825090973481565, 2.615914520856677, 2.8158226491887035, 2.9323476162117004, 3.015769912799442, 4.049132095033201]",,,2017_Jan_30_1503,59.9505378905,famFaceFilter,001,7,
71,./img/smoo15_AngelaMerkel1_1.png,0,63,63,70,,,1.ja,1.193,None,None,None,None,None,polit,0.589,None,angela merkel,"['a', 'n', 'g', 'e', 'l', 'a', 'space', 'm', 'e', 'r', 'k', 'e', 'l', 'return']","[0.9014743734514923, 0.9498580865038093, 1.1166433351972955, 1.2332221934229892, 1.3833075853144692, 1.5331908852022025, 1.5998109958582063, 1.7663691316338372, 1.8993822400261706, 2.0496623459603143, 2.1661462530209974, 2.282822628658323, 2.3828151865400287, 2.6160113967052894]",,,2017_Jan_30_1503,59.9505378905,famFaceFilter,001,7,
11,./img/smoo15_LeonardoDiCaprio3_1.png,0,64,64,10,,,1.ja,1.795,None,dummy,0.541,None,None,None,None,None,leonardo di caprio,"['l', 'e', 'o', 'n', 'a', 'r', 'c', 'o', 'space', 'backspace', 'backspace', 'backspace', 'd', 'o', 'space', 'd', 'i', 'space', 'c', 'a', 'p', 'r', 'i', 'o', 'return']","[0.6834045894775045, 0.8662920800470602, 0.9831872282993572, 1.19982921621704, 1.3497878996295185, 1.5665155360638892, 2.0659698876497714, 2.432718118221601, 2.6327558420634887, 2.932430056920566, 3.0824753511915333, 3.9322080764959537, 4.1486104410359985, 4.515219452670863, 4.7484910463626875, 4.948314809302246, 5.031801903644009, 5.2480945610950585, 5.364841829325087, 5.631459566202466, 6.014725129211001, 6.214561402608524, 6.2979962096524105, 6.481130701560687, 6.681094325000231]",,,2017_Jan_30_1503,59.9505378905,famFaceFilter,001,7,
60,./img/smoo15_LeonardoDiCaprio2_1.png,0,65,65,59,,,1.ja,0.995,None,act,0.74,None,None,None,None,None,leonardo di caprio,"['l', 'e', 'o', 'n', 'a', 'r', 'd', 'o', 'space', 'd', 'i', 'space', 'c', 'a', 'p', 'r', 'i', 'o', 'return']","[0.8832716578472173, 1.0166485318495688, 1.0665351037023356, 1.2497039191730437, 1.8330498698906013, 2.0661302781300037, 2.2828104389827786, 2.415943519454231, 2.649414638903181, 2.815701393985364, 2.8991766194303636, 3.1158596673121792, 3.5656712405743747, 3.7988623182445735, 3.9323055939057667, 4.048757422871859, 4.148862254089181, 4.332112868705735, 5.048335275127101]",,,2017_Jan_30_1503,59.9505378905,famFaceFilter,001,7,
17,./img/smoo15_GeorgeClooney11_1.png,0,66,66,16,,,None,None,1,None,None,None,None,None,None,1,george clooney,"['g', 'e', 'o', 'r', 'g', 'e', 'space', 'c', 'l', 'o', 'o', 'n', 'e', 'y', 'return']","[1.583100553281838, 1.782847008011231, 1.966376060501716, 2.066289385486016, 2.249699107458582, 2.3995801618784753, 2.449654069811004, 2.61616665469046, 2.732867730461294, 2.9158719853003277, 3.099265668224689, 3.249011994641478, 3.3825341824176576, 3.6323484502427164, 4.71525236479647]",2.54917732515,2.31583708433,2017_Jan_30_1503,59.9505378905,famFaceFilter,001,7,
45,./img/smoo15_RobertSeanLeonard(Wilson)2_6.png,0,67,67,44,,,None,None,1,None,None,None,None,None,None,1,,['return'],[0.8000476038960187],2.84924160965,1.199650862,2017_Jan_30_1503,59.9505378905,famFaceFilter,001,7,
3,./img/smoo15_JoshRadnor(Ted)3_1.png,0,68,68,2,,,None,None,1,None,None,None,None,None,None,1,ted mosby,"['d', 'e', 'backspace', 'backspace', 't', 'e', 'd', 'space', 'm', 'o', 'd', 'backspace', 's', 'v', 'backspace', 'b', 'y', 'return']","[0.5335139116286882, 0.7000223263548833, 1.1496757546065055, 1.2832203970501723, 1.4165000744214922, 1.6162984956663422, 1.783039797370293, 1.9158790424826293, 2.0995502009373013, 2.28287684064162, 2.7657099267598824, 3.1824698337586597, 3.349151470203651, 5.215021723286554, 5.564940822328936, 5.9146847749671, 6.198019049257709, 9.346844092755418]",0.949989927478,0.633429802861,2017_Jan_30_1503,59.9505378905,famFaceFilter,001,7,
24,./img/smoo15_BastianSchweinsteiger1_1.png,0,69,69,23,,,None,None,1,None,None,None,None,None,None,5,bastian schweinsteiger,"['b', 'a', 's', 't', 'i', 'a', 'n', 'space', 's', 'c', 'h', 'w', 'e', 'i', 'n', 's', 't', 'e', 'i', 'g', 'e', 'r', 'return']","[0.8335146815043117, 1.0665838624081516, 1.233266461196763, 1.4497916848449677, 1.533180940992679, 1.733122430545336, 1.8328384752385318, 1.9830101572097192, 2.1162840605229576, 2.2660980717228085, 2.3661153297380224, 2.4995457741606515, 2.649209980650994, 2.748790334999285, 2.9493028146607685, 3.0657540020638407, 3.282529755642827, 3.465597204331061, 3.5656125376608543, 3.8152288836317894, 3.9821976190360147, 4.232033058402521, 4.448566622357248]",1.73303581969,1.86633634782,2017_Jan_30_1503,59.9505378905,famFaceFilter,001,7,
8,./img/smoo15_AngelaMerkel4_1.png,0,70,70,7,,,None,None,1,None,None,None,None,None,None,4,angela merkel,"['a', 'n', 'g', 'e', 'l', 'a', 'space', 'm', 'e', 'r', 'k', 'e', 'l', 'return']","[0.7335987902697525, 1.2332472143370978, 1.4165972710507049, 1.5498281897162087, 1.7164318763880146, 1.8664653017640376, 1.9663969112643827, 2.1329896913830453, 2.2329649270923255, 2.3828543218169216, 2.466199951753879, 2.5993311075399106, 2.682725496182684, 2.9659750843002257]",1.26653722086,1.09994123293,2017_Jan_30_1503,59.9505378905,famFaceFilter,001,7,
72,./img/smoo15_HughLaurie(DrHouse)2_1.png,0,71,71,71,,,None,None,1,None,None,None,None,None,None,1,dr house,"['d', 'r', 'space', 'h', 'o', 'u', 's', 'e', 'return']","[0.7834494346552674, 0.9662050842507597, 1.0666143365997414, 1.3332243747336179, 1.4330273510677216, 1.6496257127746503, 1.7496641423349502, 1.9660023506839934, 2.1163154970563482]",1.0830261321,0.799884647167,2017_Jan_30_1503,59.9505378905,famFaceFilter,001,7,
67,./img/edges5_LeonardoDiCaprio2_1.png,0,0,0,66,,,None,None,1,None,None,None,None,None,None,1,leonardo di caprio,"['l', 'e', 'o', 'n', 'a', 'r', 'd', 'o', 'space', 'd', 'i', 'space', 'c', 'a', 'p', 'r', 'i', 'o', 'return']","[0.5668735276158259, 0.7002010013493418, 0.7834632282374514, 0.9667346936166723, 1.0834787540352409, 1.2663941525479459, 1.483046084676971, 1.5829443329548667, 1.7830362687782326, 1.9162065598429763, 2.2496583682768687, 2.4659513465103373, 2.7825791559098434, 2.9992946026686695, 3.0991315817846044, 3.2492150489906635, 3.3158165543500218, 3.465772992296479, 3.6822276441344]",1.81639652633,1.13297878483,2017_Jan_30_1503,59.9505378905,famFaceFilter,001,7,
6,./img/edges5_GuentherJauch3_1.png,0,1,1,5,,,None,None,1,None,None,None,None,None,None,3,günter jauch,"['f', u'\xfc', 'backspace', 'backspace', 'backspace', 'g', u'\xfc', 'n', 't', 'e', 'r', 'space', 'j', 'a', 'u', 'c', 'h', 'return']","[0.5169542361054482, 0.716839268208787, 1.383225786170442, 1.5494846333094756, 1.6662906044548436, 1.832981864326939, 1.8830532060128462, 2.116218621205917, 2.2329065449575864, 2.4496290488968953, 2.6160283980971144, 2.699379802090334, 2.849277537121452, 2.96592985418647, 3.099225570605995, 3.1824855520262645, 3.282392140610682, 3.582307582748399]",1.29955039341,1.33300335665,2017_Jan_30_1503,59.9505378905,famFaceFilter,001,7,
19,./img/edges5_HughLaurie(DrHouse)2_1.png,0,2,2,18,,,None,None,1,None,None,None,None,None,None,1,dr house,"['d', 'r', 'space', 'h', 'o', 'u', 's', 'e', 'return']","[0.4835503523445368, 0.6501771352450305, 0.7499852440741961, 0.9667901887205517, 1.0499686917773943, 1.2660797872067633, 1.3498405077061761, 1.5497402957334998, 1.8330976662527974]",1.19922165708,0.783187677391,2017_Jan_30_1503,59.9505378905,famFaceFilter,001,7,
24,./img/edges5_JasonSegel(Marshall)7_1.png,0,3,3,23,,,None,None,1,None,None,None,None,None,None,1,Himym,"['lshift', 'h', 'i', 'm', 'y', 'm', 'return']","[1.1330949075381795, 1.3332898140488396, 1.4666413463564822, 1.6163610479525232, 2.182922776473788, 2.6494861730570847, 3.2991029039658315]",1.29976724133,0.816819636415,2017_Jan_30_1503,59.9505378905,famFaceFilter,001,7,
44,./img/edges5_EmilyDeschanel5_1.png,0,4,4,43,,,None,None,2,None,None,None,None,None,None,2,,['return'],[1.033386561586667],7.69735824048,1.06642283037,2017_Jan_30_1503,59.9505378905,famFaceFilter,001,7,
62,./img/edges5_AlysonHannigan(Lily)5_4.png,0,5,5,61,,,None,None,1,None,None,None,None,None,None,1,american pie,"['a', 'm', 'e', 'r', 'c', 'o', 'a', 'm', 'backspace', 'backspace', 'backspace', 'backspace', 'i', 'c', 'a', 'n', 'space', 'p', 'i', 'e', 'return']","[0.883177027462807, 1.283109727617557, 1.5830068852428667, 1.7497135426019668, 1.9829084696430073, 2.1161374636230903, 2.2162134245536436, 2.4324736831295013, 2.732691942495876, 2.8991182372956246, 3.115844590605775, 3.732206600901918, 4.464921639626482, 4.565278283898806, 4.81510409983639, 4.898483411774578, 5.065005620081138, 5.498157754944259, 5.714560440264904, 5.831366411410272, 6.014651670369858]",1.06673944117,0.849967857748,2017_Jan_30_1503,59.9505378905,famFaceFilter,001,7,
35,./img/edges5_WillSmith1_1.png,0,6,6,34,,,None,None,1,None,None,None,None,None,None,1,will smith,"['w', 'i', 'l', 'l', 'space', 's', 'm', 'i', 't', 'h', 'return']","[0.7833416522535117, 0.8667565708765324, 1.0667086462017323, 1.2332026257845428, 1.3999278884402884, 1.5164807634064346, 2.41575810805989, 2.532619253530356, 2.6659945236278872, 2.7660865236066456, 3.149080385142952]",1.33306558816,0.966567245954,2017_Jan_30_1503,59.9505378905,famFaceFilter,001,7,
8,./img/edges5_LeonardoDiCaprio3_1.png,0,7,7,7,,,None,None,1,None,None,None,None,None,None,1,leonardo di caprio,"['l', 'e', 'o', 'n', 'a', 'r', 'd', 'backspace', 'd', 'o', 'space', 'd', 'i', 'space', 'c', 'a', 'p', 'r', 'i', 'o', 'return']","[0.6001587224200193, 0.6999847949828109, 0.7834645113616716, 0.9666541775950463, 1.0666335834575875, 1.2833519172436354, 1.5995752218532289, 1.91606413309637, 2.2658478625726275, 2.532768416676845, 2.732488567367909, 2.98267269563803, 3.1158025683016604, 3.765705115045421, 3.9320136832338903, 4.14870507141859, 4.232007075144793, 4.381916358290255, 4.465359826419444, 4.648494959890741, 4.881613861844016]",1.44976730549,0.733435833543,2017_Jan_30_1503,59.9505378905,famFaceFilter,001,7,
17,./img/edges5_NeilPatrickHarris(Barney)3_7.png,0,8,8,16,,,None,None,1,None,None,None,None,None,None,1,barney stinson,"['b', 'a', 'r', 'n', 'e', 'y', 'space', 's', 'i', 'backspace', 't', 'i', 'n', 's', 'o', 'n', 'return']","[0.6167216057529004, 0.7501517293931101, 0.9833197108346212, 1.3164950060818228, 1.466462992142624, 2.0329948880334996, 2.265614975594872, 2.432840977329761, 2.7160289755029225, 3.049197855129023, 3.1325604864578054, 3.2821656692522083, 3.482437563194253, 3.5989926836282393, 3.6823168212395103, 3.8488338970528275, 4.11542982082392]",1.56647223063,2.49944601128,2017_Jan_30_1503,59.9505378905,famFaceFilter,001,7,
68,./img/edges5_MariskaHargitay(Liv)4_4.png,0,9,9,67,,,None,None,2,None,None,None,None,None,None,3,2,"['2', 'return']","[0.18367917798059352, 0.38340253647947975]",3.24910117175,1.03306128969,2017_Jan_30_1503,59.9505378905,famFaceFilter,001,7,
58,./img/edges5_HughLaurie(DrHouse)5_3.png,0,10,10,57,,,None,None,1,None,None,None,None,None,None,1,dr house,"['d', 'r', 'space', 'h', 'o', 'u', 's', 'e', 'return']","[0.5332993091651588, 0.716650649002986, 0.8165835416257323, 1.000467377858513, 1.1166009921107616, 1.3164468889372074, 1.4665399795721896, 1.5997946360275819, 1.7496853138763981]",1.7330541042,0.599856546754,2017_Jan_30_1503,59.9505378905,famFaceFilter,001,7,
69,./img/edges5_GuentherJauch2_1.png,0,11,11,68,,,None,None,1,None,None,None,None,None,None,3,günter jauch,"['g', u'\xfc', 'n', 't', 'e', 'r', 'space', 'a', 'j', 'backspace', 'backspace', 'j', 'a', 'u', 'c', 'h', 'return']","[1.0000112273337436, 1.1333342101333983, 1.3998031046467077, 1.483220910298769, 1.699632898267737, 1.8495861284045532, 1.8995541786207468, 2.1828355240522797, 2.2106607061286923, 2.6161406714327313, 2.7825422660989716, 3.0490480504213338, 3.23236442513371, 3.332271334498728, 3.482384634335176, 3.615621968619962, 3.8988458942603756]",1.18334043328,1.31667111483,2017_Jan_30_1503,59.9505378905,famFaceFilter,001,7,
4,./img/edges5_LeonardoDiCaprio1_1.png,0,12,12,3,,,None,None,1,None,None,None,None,None,None,1,leonardo di caprio,"['l', 'o', 'backspace', 'backspace', 'e', 'backspace', 'backspace', 'l', 'e', 'o', 'n', 'a', 'r', 'backspace', 'd', 'o', 'space', 'd', 'i', 'space', 'backspace', 'backspace', 'backspace', 'backspace', 'backspace', 'backspace', 'r', 'd', 'o', 'space', 'd', 'i', 'space', 'c', 'a', 'p', 'r', 'i', 'o', 'return']","[0.7001166359586932, 1.0667031929260702, 1.3832572227056517, 1.5498140753552434, 1.6331593845116004, 1.9495786862880777, 2.099543464537419, 2.2661115445225732, 2.382725367871899, 2.466040202836666, 2.666024035475857, 2.798998329373717, 3.0491962512260216, 3.5823091866550385, 3.69887938379361, 3.7988972833718435, 4.065294002166411, 5.048390770234619, 5.764802116642386, 5.981359418387001, 7.647344960147166, 7.913983868567811, 8.114783767970948, 8.297220882071997, 8.447148449729866, 8.613328705534514, 8.880196972340855, 9.163540228499187, 9.413349684609784, 9.613248189512888, 9.77987272694736, 9.896558726013609, 10.379626303012628, 10.529480411832992, 10.729648693524723, 10.829349019950314, 10.962846828375405, 11.046119961814838, 11.195972787510982, 11.412557997198746]",1.8329671084,1.04962545615,2017_Jan_30_1503,59.9505378905,famFaceFilter,001,7,
38,./img/edges5_GeorgeClooney11_1.png,0,13,13,37,,,None,None,1,None,None,None,None,None,None,1,george clooney,"['g', 'e', 'o', 'r', 'g', 'e', 'space', 'c', 'l', 'o', 'o', 'n', 'e', 'y', 'return']","[0.5169686712470138, 0.700125938605197, 0.8332670386007521, 0.9667751120159664, 1.1331879340159503, 1.2666822138507996, 1.3500281645683572, 1.5164817257500545, 1.6664647885154409, 1.8663786909055489, 1.9996843515345972, 2.1830687318106357, 2.283031457063771, 2.5327488490365795, 2.682779708165981]",1.1165252878,0.749993584381,2017_Jan_30_1503,59.9505378905,famFaceFilter,001,7,
47,./img/edges5_UrsulavonderLeyen5_1.png,0,14,14,46,,,None,None,1,None,None,None,None,None,None,4,ursula von der leyen,"['u', 'r', 's', 'u', 'l', 'a', 'space', 'v', 'o', 'n', 'space', 'd', 'e', 'r', 'space', 'e', 'backspace', 'l', 'e', 'y', 'e', 'n', 'return']","[0.6500084044600953, 0.8001557070783747, 0.99969365418292, 1.0665668610163266, 1.2665859795615688, 1.415693310305869, 1.4997780195753876, 1.6831011306876462, 1.7497311855549924, 2.1328078085789457, 2.5161243757593184, 2.6493216124235914, 2.79924950086388, 2.965949101042497, 3.0656433326312253, 3.3489760030170146, 3.7656169002802926, 3.965463438669758, 4.065264490316622, 4.315111798579892, 4.53186188968175, 4.6319192453174765, 4.881533666602991]",1.34981163742,1.18321981964,2017_Jan_30_1503,59.9505378905,famFaceFilter,001,7,
5,./img/edges5_AlysonHannigan(Lily)1_1.png,0,15,15,4,,,None,None,1,None,None,None,None,None,None,1,amercian pie,"['a', 'm', 'e', 'r', 'c', 'i', 'a', 'n', 'space', 'p', 'i', 'e', 'return']","[0.48358082653794554, 0.6001346638477116, 0.7668012235862989, 0.9333991362018423, 1.1666675220822071, 1.266580847066507, 1.3998473724186624, 1.4666509697854053, 1.6330766230239533, 1.7996941032761242, 2.016401851291448, 2.116606766168843, 2.2995959443032916]",1.46648672993,0.866674130171,2017_Jan_30_1503,59.9505378905,famFaceFilter,001,7,
72,./img/edges5_EmilyDeschanel6_12.png,0,16,16,71,,,None,None,1,None,None,None,None,None,None,1,nicole kidman,"['n', 'i', 'o', 'backspace', 'c', 'o', 'l', 'e', 'space', 'l', 'k', 'backspace', 'backspace', 'k', 'i', 'd', 'm', 'a', 'n', 'return']","[0.6335799283497181, 0.8667883281905233, 1.2498534031001327, 1.566443360346966, 1.6995257574271818, 1.8164626072048122, 2.032974999614453, 2.1660830591717968, 2.2661554915121087, 2.5994943850491836, 3.3989402038623666, 3.6822545897339296, 3.815723527870432, 4.298804577671035, 4.465263271349613, 4.565321910107741, 4.681925147686343, 4.815006261644157, 4.881702718168526, 5.1316754517865775]",1.4663946658,1.94951805869,2017_Jan_30_1503,59.9505378905,famFaceFilter,001,7,
7,./img/edges5_AngelaMerkel3_1.png,0,17,17,6,,,None,None,1,None,None,None,None,None,None,4,angela merkel,"['a', 'n', 'g', 'e', 'l', 'a', 'space', 'm', 'e', 'r', 'k', 'e', 'l', 'return']","[0.5834197303393012, 0.6501832300855312, 0.8167426489835634, 0.9168548581637879, 1.0834431473485893, 1.2167148051958065, 1.2998904212236084, 1.4833235602072818, 1.5828907625345892, 1.699818630444497, 1.8164026211652526, 1.9496473334129405, 2.0829145003262965, 2.8160157593265467]",1.01672327381,1.71600138834,2017_Jan_30_1503,59.9505378905,famFaceFilter,001,7,
49,./img/edges5_RobertSeanLeonard(Wilson)2_6.png,0,18,18,48,,,None,None,1,None,None,None,None,None,None,1,,['return'],[0.4334806145652692],2.99985051607,0.8663299322,2017_Jan_30_1503,59.9505378905,famFaceFilter,001,7,
60,./img/edges5_TomCruise1_1.png,0,19,19,59,,,None,None,1,None,None,None,None,None,None,1,tom cruise,"['o', 'm', 'backspace', 'backspace', 't', 'o', 'm', 'space', 'c', 'r', 'u', 'i', 's', 'e', 'return']","[0.6166908107807103, 0.8500936038835789, 1.1832807680257247, 1.3332747373442544, 1.498963235935662, 1.5495850377501483, 1.7497940586235927, 1.9329571000380383, 2.865672652011199, 3.015939605926178, 3.1659438402348314, 3.3489930044088396, 3.51582380400032, 3.665610548818222, 3.7988940755603835]",1.29985353141,0.566927098036,2017_Jan_30_1503,59.9505378905,famFaceFilter,001,7,
15,./img/edges5_LisaEdelstein(DrLisaCuddy)6_3.png,0,20,20,14,,,None,None,2,None,None,None,None,None,None,3,,['return'],[0.3171099431838229],2.01625108424,0.916686127379,2017_Jan_30_1503,59.9505378905,famFaceFilter,001,7,
10,./img/edges5_GuentherJauch4_1.png,0,21,21,9,,,None,None,1,None,None,None,None,None,None,3,günter jauch,"['g', u'\xfc', 'n', 't', 'e', 'r', 'space', 'j', 'a', 'u', 'c', 'h', 'return']","[0.73368411800584, 0.9170123616149795, 1.1335731919498357, 1.3834086313163425, 1.5832503579913464, 1.7332712729094055, 1.8832472784943093, 2.1991735399333265, 2.299665232989355, 2.399589143744379, 2.4995213948059245, 2.6329569717236154, 2.91612251522929]",1.01652182337,1.11635366999,2017_Jan_30_1503,59.9505378905,famFaceFilter,001,7,
50,./img/edges5_WillSmith5_1.png,0,22,22,49,,,None,None,1,None,None,None,None,None,None,1,will smith,"['w', 'i', 'l', 'l', 'space', 's', 'm', 'i', 't', 'h', 'return']","[0.41686672705873207, 0.516858643379237, 0.7002532886472181, 0.8331198001415032, 1.0166982528990047, 1.1166824704760074, 1.2329851362937916, 1.3665002668894886, 1.5165478066282958, 1.633167404035703, 1.8830708489658718]",1.01672776475,1.06636059886,2017_Jan_30_1503,59.9505378905,famFaceFilter,001,7,
29,./img/edges5_TomCruise4_1.png,0,23,23,28,,,None,None,1,None,None,None,None,None,None,1,tom cruise,"['t', 'o', 'm', 'space', 'c', 'r', 'u', 'i', 's', 'e', 'return']","[0.5668667912159435, 0.6502175536479626, 0.83354034398144, 1.016503538856341, 1.149986912138047, 1.316697739650408, 1.4161792934610276, 1.583236243630381, 1.6996845440044126, 1.8496862120646256, 2.0496549679992313]",1.46650373132,0.7833442185,2017_Jan_30_1503,59.9505378905,famFaceFilter,001,7,
13,./img/edges5_MariskaHargitay(Liv)6_5.png,0,24,24,12,,,None,None,1,None,None,None,None,None,None,3,,['return'],[0.8333113063745259],3.84896413412,0.999903124151,2017_Jan_30_1503,59.9505378905,famFaceFilter,001,7,
32,./img/edges5_Ice-T(OdafinFinTutuola)7_1.png,0,25,25,31,,,None,None,2,None,None,None,None,None,None,2,dr dre,"['d', 'r', 'space', 'r', 'backspace', 'd', 'r', 'e', 'return']","[0.46671416363460594, 0.6499384742110124, 0.7667325764614361, 1.0333708433190623, 1.6163138931515277, 1.7161803841154324, 1.8995381395725417, 2.066254420360565, 2.216135474780458]",2.16623446779,2.16589925168,2017_Jan_30_1503,59.9505378905,famFaceFilter,001,7,
16,./img/edges5_BritneySpears7_1.png,0,26,26,15,,,None,None,1,None,None,None,None,None,None,2,britney spears,"['b', 'r', 'i', 't', 'n', 'e', 'y', 'space', 's', 'p', 'e', 'a', 'r', 's', 'return']","[0.8670199320458778, 0.9833328628537856, 1.08335268711744, 1.199927695970473, 1.2832790999655117, 1.4164686378862825, 1.6494518494946533, 1.7497696792688657, 2.0327276774933125, 2.166242166527809, 2.366936528995211, 2.582737108454239, 2.8490436878000764, 3.06587172867512, 3.249548661187873]",1.21673790143,0.866449262718,2017_Jan_30_1503,59.9505378905,famFaceFilter,001,7,
1,./img/edges5_BastianSchweinsteiger6_2.png,0,27,27,0,,,None,None,1,None,None,None,None,None,None,5,bastian schweinsteiger,"['b', 'a', 's', 't', 'i', 'a', 'n', 'space', 's', 'c', 'h', 'w', 'e', 'i', 'n', 's', 't', 'e', 'i', 'g', 'e', 'r', 'return']","[0.6000817349886347, 0.7167452793873963, 0.8833739869733108, 1.0999402705856482, 1.18329905254177, 1.3998281255608163, 1.5664430395663658, 1.7329338113395352, 1.8330424919295183, 1.9829578699118429, 2.0830360763102362, 2.216147022894802, 2.3827587290907104, 2.4660989057520055, 2.649146145238774, 2.865867045273262, 3.082348001149512, 3.2992257630739914, 3.365752205689205, 3.5490288035634876, 3.6489421285477874, 3.8152099575545435, 3.99883524433244]",1.41652830315,1.1165573659,2017_Jan_30_1503,59.9505378905,famFaceFilter,001,7,
27,./img/edges5_OmarEpps(DrEricForeman)2_2.png,0,28,28,26,,,None,None,2,None,None,None,None,None,None,2,,['return'],[0.500073138058724],2.33290936783,1.36624332134,2017_Jan_30_1503,59.9505378905,famFaceFilter,001,7,
9,./img/edges5_RobertSeanLeonard(Wilson)8_1.png,0,29,29,8,,,None,None,1,None,None,None,None,None,None,1,,['return'],[5.464992852999785],2.86592638975,2.19926977422,2017_Jan_30_1503,59.9505378905,famFaceFilter,001,7,
2,./img/edges5_OmarEpps(DrEricForeman)1_5.png,0,30,30,1,,,None,None,2,None,None,None,None,None,None,2,,['return'],[0.7002481561503373],1.81643149145,0.983356279865,2017_Jan_30_1503,59.9505378905,famFaceFilter,001,7,
71,./img/edges5_HughLaurie(DrHouse)4_1.png,0,31,31,70,,,None,None,1,None,None,None,None,None,None,1,dr house,"['d', 'r', 'space', 'h', 'o', 'u', 's', 'e', 'return']","[0.6003900054911355, 1.249965034874549, 1.383254335674792, 1.7997322762093972, 1.8829726899912202, 2.132997710907148, 2.232869975927315, 2.3995602734594286, 2.5329682632145705]",0.966768054835,0.450291782361,2017_Jan_30_1503,59.9505378905,famFaceFilter,001,7,
3,./img/edges5_NicoleKidman5_1.png,0,32,32,2,,,None,None,1,None,None,None,None,None,None,1,nicole kidman,"['n', 'i', 'c', 'o', 'l', 'e', 'space', 'k', 'i', 'd', 'm', 'a', 'n', 'return']","[0.7500590236977587, 0.899973118555863, 1.1332360511605657, 1.1833814932488167, 1.366492247365386, 1.5163283924521238, 1.616388314334472, 1.766973162182694, 1.9162745654066384, 1.9996423292304826, 2.116038663087238, 2.266086844389065, 2.3327733567039104, 2.599348429714155]",1.49983736405,0.683422873992,2017_Jan_30_1503,59.9505378905,famFaceFilter,001,7,
26,./img/edges5_NicoleKidman7_1.png,0,33,33,25,,,None,None,1,None,None,None,None,None,None,1,nicole kidman,"['n', 'i', 'c', 'o', 'l', 'e', 'space', 'k', 'i', 'd', 'm', 'a', 'n', 'return']","[0.8335814039419347, 0.9666891427186783, 1.083385727555651, 1.1997958549964096, 1.3499964072525472, 1.4831464891158248, 1.5999498940127523, 1.783081178113207, 1.9327177974410006, 2.049732917772417, 2.1658283590895735, 2.5827079173868697, 2.732664355331508, 2.982652807217164]",1.71634526553,1.28309336779,2017_Jan_30_1503,59.9505378905,famFaceFilter,001,7,
46,./img/edges5_TomCruise5_1.png,0,34,34,45,,,None,None,1,None,None,None,None,None,None,1,tom cruise,"['o', 'backspace', 't', 'o', 'm', 'space', 'c', 'r', 'u', 'i', 's', 'e', 'return']","[0.9163159461495525, 1.2500259832577285, 1.3667722891441372, 1.483242081842036, 2.1497543459390727, 2.3495322372018563, 2.6495018913246895, 2.7994153446215932, 2.9494160503381863, 3.1492401340601646, 3.315886805379705, 3.465887511098117, 3.649141975085513]",1.33316406791,1.11657436729,2017_Jan_30_1503,59.9505378905,famFaceFilter,001,7,
63,./img/edges5_LisaEdelstein(DrLisaCuddy)2_2.png,0,35,35,62,,,None,None,2,None,None,None,None,None,None,3,,['return'],[0.41682823334303976],1.98292194244,0.99992942819,2017_Jan_30_1503,59.9505378905,famFaceFilter,001,7,
70,./img/edges5_BastianSchweinsteiger1_1.png,0,36,36,69,,,None,None,1,None,None,None,None,None,None,5,bastian schweinsteiger,"['b', 'a', 's', 't', 'i', 'a', 'n', 'space', 's', 'c', 'h', 'w', 'e', 'i', 'n', 's', 't', 'e', 'i', 'g', 'e', 'r', 'return']","[0.6836294569311576, 0.8169084927412769, 0.9499556039154413, 1.1666226127490518, 1.2497411297663348, 1.433169777814328, 1.5666037508290174, 1.6995658550495136, 1.7831122938659973, 1.9496505412225815, 2.049923782444239, 2.1828387318637397, 2.34969936408379, 2.399599729518741, 2.5662467216188816, 2.682835844834699, 2.8660835724222125, 3.0660969169111922, 3.1492176793944964, 3.3492133809286315, 3.415731162460361, 3.699083721265197, 3.8988680281472625]",1.34993898746,1.24960287317,2017_Jan_30_1503,59.9505378905,famFaceFilter,001,7,
34,./img/edges5_KatjaBurkard1_1.png,0,37,37,33,,,None,None,1,None,None,None,None,None,None,3,punkt 12,"['p', 'u', 'n', 'k', 't', 'space', '1', '2', 'return']","[1.3998557127233653, 1.6330791892705747, 1.799702443580827, 1.9161847467366897, 2.0162039294373244, 2.116232414786282, 2.3325943609270325, 2.499505997320739, 2.6651268111290847]",3.19918957898,1.46654094192,2017_Jan_30_1503,59.9505378905,famFaceFilter,001,7,
20,./img/edges5_JoshRadnor(Ted)1_2.png,0,38,38,19,,,None,None,1,None,None,None,None,None,None,1,ted mosby,"['d', 'backspace', 't', 'e', 'd', 'space', 'm', 'i', 'o', 'backspace', 'backspace', 'o', 's', 'b', 'y', 'return']","[0.333665448553802, 0.7335160287821054, 0.8833229827996547, 1.083163105569838, 1.249917238512353, 1.4164285402657697, 1.5996939108063088, 2.3661621637565986, 3.165824509718732, 3.5489303238082357, 4.015931265621475, 4.2820662271533365, 4.598505738129461, 4.715133675841571, 4.915078052423269]",1.38385259217,0.70015737514,2017_Jan_30_1503,59.9505378905,famFaceFilter,001,7,
64,./img/edges5_EmilyDeschanel3_1.png,0,39,39,63,,,None,None,1,None,None,None,None,None,None,1,,['return'],[0.5502891519572586],2.11652977874,0.716536450982,2017_Jan_30_1503,59.9505378905,famFaceFilter,001,7,
37,./img/edges5_JasonSegel(Marshall)9_1.png,0,40,40,36,,,None,None,1,None,None,None,None,None,None,1,Himym,"['lshift', 'h', 'i', 'm', 'y', 'm', 'return']","[1.0166998568038252, 1.1998786164840567, 1.4166688052064274, 1.6331523273292987, 2.049670365484417, 2.5661726212165377, 3.1325373902291176]",0.916735527646,0.550075832618,2017_Jan_30_1503,59.9505378905,famFaceFilter,001,7,
23,./img/edges5_UrsulavonderLeyen1_1.png,0,41,41,22,,,None,None,1,None,None,None,None,None,None,3,ursula von der leyen,"['u', 'r', 's', 'u', 'l', 'a', 'space', 'v', 'o', 'n', 'space', 'd', 'e', 'r', 'space', 'l', 'e', 'y', 'e', 'n', 'return']","[0.9332008935671183, 1.0666791343537625, 1.299869891241542, 1.3992876096435793, 1.6163536699914403, 1.6997554365952965, 1.8329562018516299, 1.9663920995499211, 2.0662095110274095, 2.232892430596621, 2.4160872293250577, 2.499326680763261, 2.6660840215154167, 2.782750452943219, 2.8990197575403727, 3.065836763551488, 3.165882891853471, 3.3823346566623513, 3.598858597186336, 3.699111629208346, 3.998964198279282]",1.91636502564,1.51643264626,2017_Jan_30_1503,59.9505378905,famFaceFilter,001,7,
52,./img/edges5_BarackObama4_1.png,0,42,42,51,,,None,None,1,None,None,None,None,None,None,4,barrack obama,"['b', 'a', 'r', 'r', 'a', 'c', 'k', 'space', 'o', 'b', 'a', 'comma', 'm', 'a', 'return']","[0.4669794494875532, 0.6168370868981583, 0.8002400724708423, 0.9164740911619447, 1.050181369553684, 1.2666228693724406, 1.3498857378217508, 1.5332855155847938, 1.699875729455016, 1.9830265170367056, 2.0996881367500464, 2.23303870671225, 2.9159893911310064, 3.0659054106763506, 3.199207863495758]",1.33326158533,1.36648936034,2017_Jan_30_1503,59.9505378905,famFaceFilter,001,7,
43,./img/edges5_BarackObama1_3.png,0,43,43,42,,,None,None,1,None,None,None,None,None,None,4,barrack obama,"['b', 'a', 'r', 'r', 'a', 'c', 'k', 'space', 'o', 'b', 'a', 'm', 'a', 'return']","[0.5835624778665078, 0.7335227651838068, 0.8666051622640225, 0.983342807065128, 1.1165503087195248, 1.3331637471328577, 1.4497801367306238, 1.6163738791910873, 1.816385940555847, 2.0659997202801605, 2.3993325189785537, 2.565890013191165, 2.7492731103448023, 2.9158726268633473]",1.29973548402,1.54958728322,2017_Jan_30_1503,59.9505378905,famFaceFilter,001,7,
41,./img/edges5_OmarEpps(DrEricForeman)3_1.png,0,44,44,40,,,None,None,2,None,None,None,None,None,None,2,,['return'],[0.36680885817440867],2.36607394899,0.983308483501,2017_Jan_30_1503,59.9505378905,famFaceFilter,001,7,
42,./img/edges5_JoachimLoew4_1.png,0,45,45,41,,,None,None,1,None,None,None,None,None,None,5,jogi löw,"['j', 'o', 'g', 'i', 'space', 'l', u'\xf6', 'w', 'return']","[0.8332805114023358, 1.0000596652589593, 1.1498970934680983, 1.233140394278962, 1.433158229699984, 1.899708153481697, 2.0662213799223537, 2.1828987179032993, 2.34948540318328]",1.24985404466,1.16671980938,2017_Jan_30_1503,59.9505378905,famFaceFilter,001,7,
59,./img/edges5_BastianSchweinsteiger3_1.png,0,46,46,58,,,None,None,1,None,None,None,None,None,None,5,bastian schweinsteiger,"['b', 'a', 's', 't', 'i', 'a', 'n', 'space', 's', 'c', 'h', 'w', 'e', 'i', 'n', 's', 't', 'e', 'i', 'g', 'e', 'r', 'return']","[0.8000565857619222, 0.88361906362843, 1.0501217042965436, 1.2498700837113574, 1.3333539702416601, 1.5165391455429926, 1.6165009084525082, 1.7831527122671105, 1.8497670488668518, 1.9995980614567088, 2.1164040326020768, 2.2495640586748777, 2.3828594543138024, 2.4828237834717584, 2.6328722855523665, 2.749156025292905, 2.9491270266953507, 3.1492125468994345, 3.232431147574971, 3.4323360680991755, 3.5324242187070922, 3.682269987220934, 3.9488902903467533]",1.18289968025,0.416866406278,2017_Jan_30_1503,59.9505378905,famFaceFilter,001,7,
11,./img/edges5_RobertSeanLeonard(Wilson)1_1.png,0,47,47,10,,,None,None,2,None,None,None,None,None,None,1,,['return'],[0.48347240257317026],2.48280998989,0.216709672701,2017_Jan_30_1503,59.9505378905,famFaceFilter,001,7,
66,./img/edges5_BritneySpears1_1.png,0,48,48,65,,,None,None,1,None,None,None,None,None,None,2,britney spears,"['b', 'r', 'i', 't', 'n', 'e', 'y', 'space', 's', 'o', 'backspace', 'p', 'e', 'r', 'backspace', 'a', 'r', 's', 'return']","[0.3670103086169547, 0.4835246898692276, 0.583511794475271, 0.700101559252289, 0.8333725755383057, 0.9333446034379449, 1.1664971873924515, 1.2998573807853973, 1.4329798754861258, 2.166127968506771, 2.5827088797304896, 3.4657502168483916, 3.6157515641280042, 3.7988960002458043, 4.1319808352618566, 4.2487698050172185, 4.465386772020793, 4.698562452203987, 4.831958893844785]",0.866696264056,0.866594576493,2017_Jan_30_1503,59.9505378905,famFaceFilter,001,7,
39,./img/edges5_AlysonHannigan(Lily)8_3.png,0,49,49,38,,,None,None,1,None,None,None,None,None,None,1,amercian pie,"['a', 'm', 'e', 'r', 'c', 'i', 'a', 'n', 'space', 'b', 'backspace', 'p', 'i', 'e', 'return']","[0.4502263430458697, 0.9168006461823097, 1.1999315453431336, 1.3330819479870115, 1.7165348470771278, 1.8661589559487766, 1.999767754585264, 2.1329329131531267, 2.3327714320184896, 2.9326318281437125, 3.2324699620712636, 3.5655778933160036, 3.7821701601860696, 3.8821755493063392, 4.0487965581487515]",1.21677671592,0.55015666942,2017_Jan_30_1503,59.9505378905,famFaceFilter,001,7,
14,./img/edges5_AngelaMerkel4_1.png,0,50,50,13,,,None,None,1,None,None,None,None,None,None,4,angela merke,"['a', 'n', 'g', 'e', 'a', 'backspace', u'\xf6', 'a', 'backspace', 'backspace', 'l', 'a', 'space', 'm', 'e', 'r', 'k', 'e', 'return']","[0.48358435512818687, 0.5501848981457442, 0.7666581552784919, 0.8501285690090299, 1.1999995509067958, 1.5331748461539974, 1.7164652376086451, 1.8496730600454612, 2.1995382678851456, 2.616196487320849, 2.8159490368871047, 2.965815335383013, 3.1158157203208248, 3.298341049185183, 3.4158546631279023, 3.565648465128106, 3.682245287085607, 3.7988950379040034, 3.9654967998885695]",1.166625179,1.3495963934,2017_Jan_30_1503,59.9505378905,famFaceFilter,001,7,
53,./img/edges5_KatjaBurkard4_1.png,0,51,51,52,,,None,None,1,None,None,None,None,None,None,3,punkt 12,"['p', 'u', 'n', 'k', 't', 'space', '1', '2', 'return']","[0.5170094104287273, 0.7001823960526963, 0.9000584462901315, 1.0499879386352404, 1.133222578358982, 1.2498655927774962, 1.4331678531270882, 1.583080344082191, 1.7163603422341112]",1.54973869183,0.966624024186,2017_Jan_30_1503,59.9505378905,famFaceFilter,001,7,
22,./img/edges5_JasonSegel(Marshall)6_1.png,0,52,52,21,,,None,None,1,None,None,None,None,None,None,1,Himym,"['lshift', 'h', 'i', 'm', 'y', 'm', 'return']","[0.8000293193799735, 1.099812920545446, 1.233249459804938, 1.3998759219248313, 1.816350013088595, 2.3162104733710294, 3.199192145229972]",1.46621534924,1.03334742631,2017_Jan_30_1503,59.9505378905,famFaceFilter,001,7,
33,./img/edges5_BarackObama2_1.png,0,53,53,32,,,None,None,1,None,None,None,None,None,None,4,barrack obama,"['b', 'a', 'r', 'r', 'a', 'c', 'k', 'space', 'o', 'b', 'a', 'm', 'a', 'return']","[0.43358615150100377, 0.5834681682645169, 0.7333421655021084, 0.833306173879464, 0.9666862556914566, 1.1331824807402882, 1.2658690341158945, 1.4156920271816489, 1.6162984956663422, 2.532769379020465, 2.6490842345137935, 2.749069093653816, 2.882630095926288, 3.032439936972878]",1.46648288056,1.39977295124,2017_Jan_30_1503,59.9505378905,famFaceFilter,001,7,
45,./img/edges5_WillSmith4_1.png,0,54,54,44,,,None,None,1,None,None,None,None,None,None,1,will smith,"['w', 'i', 'l', 'l', 'space', 's', 'm', 'i', 't', 'h', 'return']","[0.4501993974463403, 0.6334836940623063, 0.8500474114262033, 0.9833373537876469, 1.1665491539079085, 1.249933277560558, 1.3660049810878263, 1.4997950209672126, 1.632592885334816, 1.733112807116413, 2.0330436467411346]",0.933317016275,0.96645593496,2017_Jan_30_1503,59.9505378905,famFaceFilter,001,7,
31,./img/edges5_GeorgeClooney4_2.png,0,55,55,30,,,None,None,1,None,None,None,None,None,None,1,george clooney,"['g', 'e', 'o', 'r', 'h', 'e', 'space', 'backspace', 'backspace', 'backspace', 'backspace', 'g', 'backspace', 'r', 'g', 'e', 'space', 'c', 'l', 'o', 'o', 'n', 'e', 'y', 'return']","[1.799671648608637, 2.016321335269822, 2.182822051252515, 2.332897178153871, 2.4828218587845186, 2.6160944789753557, 2.766030707720347, 3.0491465301765857, 3.349065500906363, 3.4323774488420895, 3.582360511607476, 3.698984279166325, 4.165415513993139, 4.34881144238534, 4.948408798123637, 5.164993366250201, 5.315009790234399, 5.448256427167507, 5.548215303047982, 5.748203626621034, 5.898065754965501, 6.1146621919870086, 6.214571667598648, 6.480989237157701, 6.7478328038305335]",1.11661446491,1.83291129252,2017_Jan_30_1503,59.9505378905,famFaceFilter,001,7,
61,./img/edges5_NeilPatrickHarris(Barney)2_2.png,0,56,56,60,,,None,None,1,None,None,None,None,None,None,1,barney stinson,"['b', 'a', 'r', 'n', 'e', 'y', 'space', 's', 't', 'i', 'n', 's', 'o', 'n', 'return']","[0.6170449529599864, 0.7332225142035895, 0.9003375257252628, 1.0001440306514269, 1.1168659571849275, 1.3167641413074307, 1.4665008442952967, 1.549870853585162, 1.7498585355951946, 1.7999000446525315, 1.9663641916049528, 2.083158614635977, 2.2162888080802077, 2.332768865770049, 2.7828158922584407]",2.04973740871,0.583334081823,2017_Jan_30_1503,59.9505378905,famFaceFilter,001,7,
25,./img/edges5_JoachimLoew8_1.png,0,57,57,24,,,None,None,1,None,None,None,None,None,None,5,jogi löw,"['j', 'o', 'g', 'i', 'space', 'l', u'\xf6', 'w', 'return']","[0.7668069976425613, 0.933409401190147, 1.0332649856027274, 1.1501803430546715, 1.333387652241072, 1.8996789624143275, 2.1329954654393077, 2.2828399508307484, 2.466124889009734]",1.13329988657,1.36650892797,2017_Jan_30_1503,59.9505378905,famFaceFilter,001,7,
18,./img/edges5_JoshRadnor(Ted)6_2.png,0,58,58,17,,,None,None,1,None,None,None,None,None,None,1,ted mosby,"['t', 'e', 'd', 'space', 'm', 'o', 's', 'y', 'b', 'backspace', 'backspace', 'b', 'y', 'return']","[0.5835810831631534, 0.7834276215507998, 0.9667225039393088, 1.0998680948705442, 1.3333574988337205, 1.466584888907164, 1.5832452254962845, 1.8997174561300199, 2.066385940555847, 2.7326290694272757, 2.8827641823681915, 3.499127475788555, 3.7324176747752063, 4.515416091400766]",1.24975813116,0.533546631286,2017_Jan_30_1503,59.9505378905,famFaceFilter,001,7,
65,./img/edges5_LisaEdelstein(DrLisaCuddy)1_1.png,0,59,59,64,,,None,None,2,None,None,None,None,None,None,3,,['return'],[0.5002421896260785],2.09944755103,0.650180343056,2017_Jan_30_1503,59.9505378905,famFaceFilter,001,7,
12,./img/edges5_UrsulavonderLeyen4_1.png,0,60,60,11,,,None,None,1,None,None,None,None,None,None,4,ursula von der leyen,"['u', 'r', 's', 'u', 'l', 'a', 'space', 'v', 'o', 'n', 'space', 'd', 'e', 'r', 'space', 'l', 'e', 'y', 'e', 'n', 'return']","[0.5501258744498045, 1.0334356410749024, 1.316246080057681, 1.416620688063631, 1.6163212711144297, 1.749718995879448, 1.8497680112104717, 2.366157352043956, 2.432659736086862, 2.6326817416611448, 2.7825451531280123, 2.8659225403807795, 3.0490955260047485, 3.1491310685341887, 3.2822795464926457, 3.4657989755542076, 3.5322064084339218, 4.3319784614832315, 4.565227279726969, 4.6985502625284425, 4.915147020330551]",0.850056072513,1.13327903581,2017_Jan_30_1503,59.9505378905,famFaceFilter,001,7,
57,./img/edges5_BritneySpears5_1.png,0,61,61,56,,,None,None,1,None,None,None,None,None,None,2,britney spears,"['b', 'r', 'i', 't', 'n', 'e', 'y', 'space', 's', 'p', 'e', 'r', 'a', 'backspace', 'backspace', 'a', 'r', 's', 'return']","[1.0833408182224957, 1.2332504221467389, 1.3499531018223934, 1.5164531762438855, 1.6165384398227616, 1.7663919070801057, 1.9996397629802232, 2.132952160009154, 2.2495550768071553, 2.3660229448196333, 2.682340879811818, 2.932518913245076, 3.2324802270613873, 3.549148775642607, 3.732259529760995, 3.782222447480308, 3.9820850249179784, 4.232043964953846, 4.415041483392997]",1.21658360578,1.44961589688,2017_Jan_30_1503,59.9505378905,famFaceFilter,001,7,
40,./img/edges5_NicoleKidman3_1.png,0,62,62,39,,,None,None,1,None,None,None,None,None,None,1,nicole kidman,"['n', 'i', 'c', 'o', 'l', 'e', 'space', 'k', 'i', 'd', 'm', 'a', 'n', 'return']","[0.6503179580868164, 0.8000488870184199, 0.9503084629704972, 1.0168855889787665, 1.166842347705824, 1.2999571436630504, 1.3999997433747922, 1.5498551353175571, 1.716543508162431, 1.8331987122564897, 1.9329465142654954, 2.0996576625584567, 2.23285714469057, 2.482903978710965]",0.900007442118,1.06656269086,2017_Jan_30_1503,59.9505378905,famFaceFilter,001,7,
48,./img/edges5_GeorgeClooney3_1.png,0,63,63,47,,,None,None,1,None,None,None,None,None,None,1,george clooney,"['g', 'e', 'o', 'r', 'g', 'e', 'space', 'c', 'l', 'o', 'o', 'n', 'e', 'y', 'return']","[0.31709101710657706, 0.516914780047955, 0.6001904797340103, 0.7000034002794564, 0.9001428116844181, 1.0166924788409233, 1.083549967408544, 1.2833708433208812, 1.4166348024245963, 1.5667275722789782, 1.749553793684754, 2.882622397182786, 2.999413933184769, 3.3491902846999437, 3.848931093683859]",1.1334358977,0.782917259043,2017_Jan_30_1503,59.9505378905,famFaceFilter,001,7,
30,./img/edges5_MariskaHargitay(Liv)8_8.png,0,64,64,29,,,None,None,2,None,None,None,None,None,None,3,,['return'],[0.3337318502126436],2.24956053008,1.19966658027,2017_Jan_30_1503,59.9505378905,famFaceFilter,001,7,
56,./img/edges5_NeilPatrickHarris(Barney)1_1.png,0,65,65,55,,,None,None,1,None,None,None,None,None,None,1,barney stinson,"['b', 'a', 'r', 'n', 'e', 'y', 'space', 's', 't', 'i', 'n', 's', 'o', 'n', 'return']","[0.43332952673335967, 0.5167745987673698, 0.7166089474794717, 0.800058510447343, 0.9166065737008466, 1.1164399600693287, 1.2999988451883837, 1.3499094756134582, 1.5663535416788363, 1.6330708489658718, 1.8163079907826614, 2.049660100494293, 2.68237905274691, 2.8492316654446768, 3.1158872544747283]",1.21680686933,0.483445136191,2017_Jan_30_1503,59.9505378905,famFaceFilter,001,7,
54,./img/edges5_KatjaBurkard5_3.png,0,66,66,53,,,None,None,1,None,None,None,None,None,None,3,punkt 12,"['p', 'u', 'n', 'k', 't', 'space', '1', '2', 'return']","[1.6166442975409154, 1.8165537089971622, 1.9996994282391825, 2.166318512397993, 2.2828919173462054, 2.366302665817784, 2.5661418262443476, 2.7495152999690617, 2.8161469587394095]",1.00007057181,1.86645054584,2017_Jan_30_1503,59.9505378905,famFaceFilter,001,7,
36,./img/edges5_AngelaMerkel1_1.png,0,67,67,35,,,None,None,1,None,None,None,None,None,None,4,angela merkel,"['a', 'n', 'g', 'e', 'l', 'a', 'space', 'm', 'e', 'r', 'e', 'backspace', 'k', 'e', 'l', 'return']","[0.41701396551979997, 0.5502233918596175, 0.7167266740907507, 0.8001823318973038, 0.9666698958608322, 1.1833000148835708, 1.2075914738979918, 1.949587347371562, 2.066344559811114, 2.199469941540883, 2.4494510154636373, 2.7659424929552188, 3.0325249439265463, 3.3655090537213255, 3.515749703597976, 3.749006541365816]",0.799926990254,1.16660496979,2017_Jan_30_1503,59.9505378905,famFaceFilter,001,7,
51,./img/edges5_Ice-T(OdafinFinTutuola)6_1.png,0,68,68,50,,,None,None,2,None,None,None,None,None,None,2,,['return'],[0.7500609483813605],1.81627591269,1.0499616346,2017_Jan_30_1503,59.9505378905,famFaceFilter,001,7,
21,./img/edges5_JoshRadnor(Ted)3_1.png,0,69,69,20,,,None,None,1,None,None,None,None,None,None,1,ted mosby,"['t', 'e', 'd', 'space', 'm', 'o', 'd', 'backspace', 's', 'b', 'y', 'return']","[0.5336829631960427, 0.7834965894562629, 1.0164021720720484, 1.1492253781361796, 1.3825168602470512, 1.5490618440035178, 1.715738027171028, 2.6662203534233413, 2.816130598910604, 2.949255659859773, 3.2825249439283652, 3.682299499068904]",1.03317452537,0.416697354713,2017_Jan_30_1503,59.9505378905,famFaceFilter,001,7,
28,./img/edges5_Ice-T(OdafinFinTutuola)5_1.png,0,70,70,27,,,None,None,2,None,None,None,None,None,None,2,,"['2', 'backspace', 'return']","[0.6998782957034564, 1.2666716280800756, 1.5164194942444738]",5.81460239842,0.533406770788,2017_Jan_30_1503,59.9505378905,famFaceFilter,001,7,
55,./img/edges5_JoachimLoew1_1.png,0,71,71,54,,,None,None,1,None,None,None,None,None,None,5,jogi löw,"['j', 'o', 'g', 'i', 'space', 'l', u'\xf6', 'w', 'return']","[0.933764505714862, 1.0670117842091713, 1.2668547940065764, 1.3669535303870362, 1.5667891622233583, 2.416475695068584, 2.61638189871519, 2.7496221200290165, 3.4326510750015586]",0.800327966454,1.13318857558,2017_Jan_30_1503,59.9505378905,famFaceFilter,001,7,
35,./img/gray_JoachimLoew4_1.png,0,0,0,34,,,None,None,1,None,None,None,None,None,None,5,jogi löw,"['j', 'o', 'g', 'i', 'space', 'l', u'\xf6', 'w', 'return']","[0.7502004880989261, 0.9001033556251059, 1.2999815230159584, 1.4165026406681136, 1.6332148796172987, 1.949618142343752, 2.1327564836246893, 2.2662061749051645, 2.7494187448992307]",3.08245899136,1.7163170368,2017_Jan_30_1503,59.9505378905,famFaceFilter,001,7,
50,./img/gray_BastianSchweinsteiger3_1.png,0,1,1,49,,,None,None,1,None,None,None,None,None,None,5,bastian schweinsteiger,"['b', 'a', 's', 't', 'i', 'a', 'n', 'space', 's', 'c', 'h', 'w', 'e', 'i', 'n', 's', 't', 'e', 'i', 'g', 'e', 'r', 'return']","[0.28380197293154197, 0.43352327843240346, 0.6335901933416608, 0.8499332134033466, 0.9335515071579721, 1.1664057648195012, 1.2847617495644954, 1.4498827866373176, 1.5998199777241098, 1.783085348264649, 1.916351552836204, 2.032812042887599, 2.182987574229628, 2.2496519526575867, 2.349503046136306, 2.5163014468507754, 2.7161316254096164, 2.9327007960491756, 2.999220823046926, 3.19933842134742, 3.3324641238577897, 3.4824920959563315, 4.232109404270886]",1.14990062206,1.71637862675,2017_Jan_30_1503,59.9505378905,famFaceFilter,001,7,
14,./img/gray_JoshRadnor(Ted)6_2.png,0,2,2,13,,,None,None,1,None,None,None,None,None,None,1,ted mosby,"['t', 'e', 'd', 'space', 'm', 'o', 's', 'b', 'y', 'return']","[0.6168884118524147, 0.8167365541448817, 0.9666535360338457, 1.1330458280517632, 1.3164818540626584, 1.4831195435162954, 1.6163879935538716, 1.866379974029769, 1.9996378382966213, 2.232985457074392]",0.883130514225,0.849917815918,2017_Jan_30_1503,59.9505378905,famFaceFilter,001,7,
7,./img/gray_OmarEpps(DrEricForeman)1_5.png,0,3,3,6,,,None,None,2,None,None,None,None,None,None,2,,['return'],[0.38352250855859893],1.30013549788,0.949996984658,2017_Jan_30_1503,59.9505378905,famFaceFilter,001,7,
22,./img/gray_GuentherJauch4_1.png,0,4,4,21,,,None,None,1,None,None,None,None,None,None,3,günter jauch,"['g', u'\xfc', 'n', 't', 'e', 'r', 'space', 'j', 'a', 'u', 'c', 'h', 'return']","[0.7667399544243381, 0.9166460297583399, 1.216575265478241, 1.649705908015676, 1.8496833250355849, 2.0163091455942777, 2.116165692348659, 2.432675775135067, 2.5493085245616385, 2.699298002946307, 2.84880983848052, 2.915925555720605, 3.232483114090428]",0.850149419772,1.56617935762,2017_Jan_30_1503,59.9505378905,famFaceFilter,001,7,
39,./img/gray_UrsulavonderLeyen1_1.png,0,5,5,38,,,None,None,1,None,None,None,None,None,None,4,ursula von der leyen,"['u', 'r', 's', 'u', 'l', 'a', 'space', 'v', 'o', 'n', 'space', 'd', 'e', 'r', 'space', 'l', 'e', 'y', 'e', 'n', 'return']","[0.6672266432960896, 0.7671996335393487, 1.0169474997037469, 1.0837552672237507, 1.333342101346716, 1.4334636131734442, 1.5835374569505802, 1.7833050832232402, 2.633012787611733, 2.849661191148698, 2.999371590098235, 3.216118473390452, 3.38275840831011, 3.5154513773049985, 3.6494499248092325, 3.8158502363512525, 3.899188809105908, 4.148677484256041, 4.36567489747722, 4.515543762221569, 4.948742731103266]",1.09993930824,1.09998870851,2017_Jan_30_1503,59.9505378905,famFaceFilter,001,7,
69,./img/gray_OmarEpps(DrEricForeman)3_1.png,0,6,6,68,,,None,None,2,None,None,None,None,None,None,2,,['return'],[0.28362907199334586],1.28341703578,0.916685165035,2017_Jan_30_1503,59.9505378905,famFaceFilter,001,7,
9,./img/gray_RobertSeanLeonard(Wilson)8_1.png,0,7,7,8,,,None,None,2,None,None,None,None,None,None,1,,['return'],[0.6494556988654949],1.36666161971,1.18291539851,2017_Jan_30_1503,59.9505378905,famFaceFilter,001,7,
63,./img/gray_JoshRadnor(Ted)3_1.png,0,8,8,62,,,None,None,1,None,None,None,None,None,None,1,ted mosby,"['t', 'e', 'd', 'space', 'm', 'o', 's', 'b', 'y', 'return']","[0.5336188070032222, 0.7000896903555258, 0.8827936942161614, 1.000041380742914, 1.4997324686792126, 1.6829423441122344, 2.3827555212810694, 2.7159535919763584, 2.882445646873748, 3.148973565082997]",0.967194051951,0.816656038123,2017_Jan_30_1503,59.9505378905,famFaceFilter,001,7,
52,./img/gray_EmilyDeschanel5_1.png,0,9,9,51,,,None,None,2,None,None,None,None,None,None,3,,['return'],[0.41693665730963403],2.53281268445,0.999771603956,2017_Jan_30_1503,59.9505378905,famFaceFilter,001,7,
53,./img/gray_Ice-T(OdafinFinTutuola)5_1.png,0,10,10,52,,,None,None,2,None,None,None,None,None,None,2,,['return'],[0.2169653351247689],1.59972759281,1.49972059978,2017_Jan_30_1503,59.9505378905,famFaceFilter,001,7,
4,./img/gray_AngelaMerkel1_1.png,0,11,11,3,,,None,None,1,None,None,None,None,None,None,4,angela merkel,"['a', 'n', 'g', 'e', 'l', 'a', 'space', 'm', 'e', 'r', 'k', 'e', 'l', 'return']","[0.5001504462707089, 1.2165027689807175, 1.3832896215808432, 1.5831945421050477, 1.6497206639396609, 1.8497571046573285, 1.9663298680443404, 2.1329252144096245, 2.216231709069689, 2.3495145942506497, 2.4159627663120773, 2.532701694237403, 2.7327201712196256, 3.249037657118606]",0.8164812125,1.13275487972,2017_Jan_30_1503,59.9505378905,famFaceFilter,001,7,
16,./img/gray_JoshRadnor(Ted)1_2.png,0,12,12,15,,,None,None,1,None,None,None,None,None,None,1,ted mosby,"['r', 'backspace', 't', 'e', 'd', 'space', 'm', 'o', 's', 'b', 'y', 'return']","[0.5336855294426641, 0.950153525767746, 1.0665671817987459, 1.3166364704866282, 1.466487371495532, 1.83310793124474, 2.266107053588712, 2.466291053548048, 2.6494255454563245, 2.8826964975851297, 3.049297618008495, 3.315405633940827]",1.16683657365,0.516956481571,2017_Jan_30_1503,59.9505378905,famFaceFilter,001,7,
21,./img/gray_HughLaurie(DrHouse)4_1.png,0,13,13,20,,,None,None,1,None,None,None,None,None,None,1,dr house,"['d', 'r', 'space', 'h', 'o', 'u', 's', 'e', 'return']","[0.600147815866876, 0.7832296996966761, 0.9001473026164604, 1.1165926518060587, 1.183325677360699, 1.4165565318689914, 1.5331036327788752, 1.6831129995844094, 1.8330023943090055]",1.08382904685,1.38325401489,2017_Jan_30_1503,59.9505378905,famFaceFilter,001,7,
62,./img/gray_LisaEdelstein(DrLisaCuddy)1_1.png,0,14,14,61,,,None,None,2,None,None,None,None,None,None,3,,['return'],[0.4667824899788684],1.74957849382,0.966674386797,2017_Jan_30_1503,59.9505378905,famFaceFilter,001,7,
58,./img/gray_GeorgeClooney3_1.png,0,15,15,57,,,None,None,1,None,None,None,None,None,None,1,george clooney,"['g', 'e', 'o', 'r', 'g', 'e', 'space', 'c', 'l', 'o', 'o', 'n', 'e', 'y', 'return']","[0.3003927642075723, 0.4835625420219003, 0.6001917628564115, 0.7668782110158645, 0.8999051129903819, 1.016758880499765, 1.1332495239603304, 1.3164789670336177, 1.7997781478861725, 2.0495904910258105, 2.166253073080952, 2.349473534286517, 2.4994258020797133, 2.7827350554562145, 3.199233525972886]",1.13342851974,0.383494921396,2017_Jan_30_1503,59.9505378905,famFaceFilter,001,7,
32,./img/gray_MariskaHargitay(Liv)6_5.png,0,16,16,31,,,None,None,1,None,None,None,None,None,None,1,,['return'],[0.28373781673872145],2.38277027721,0.833038000996,2017_Jan_30_1503,59.9505378905,famFaceFilter,001,7,
11,./img/gray_EmilyDeschanel6_12.png,0,17,17,10,,,None,None,1,None,None,None,None,None,None,1,nicole kidman,"['n', 'i', 'c', 'o', 'l', 'space', 'e', 'space', 'backspace', 'backspace', 'backspace', 'e', 'space', 'k', 'i', 'd', 'a', 'backspace', 'm', 'a', 'n', 'return']","[1.1999225634754112, 1.3500243151956965, 1.483119222733876, 1.6165525541855459, 1.8164119238117564, 2.0997859749422787, 2.949434655634832, 3.2325450248154084, 3.5491122066123353, 3.732373086220832, 3.848734775734556, 4.0323238142646005, 4.5820727710852225, 4.8153180607368995, 5.148393593104629, 5.398294151007576, 5.614816808409159, 5.8815112119355035, 6.131341518806948, 6.2810846374140965, 6.347756073024357, 6.881111839638834]",4.54844754846,0.433559205901,2017_Jan_30_1503,59.9505378905,famFaceFilter,001,7,
38,./img/gray_MariskaHargitay(Liv)4_4.png,0,18,18,37,,,None,None,2,None,None,None,None,None,None,3,,['return'],[0.46673950533113384],2.14929755385,0.733136544908,2017_Jan_30_1503,59.9505378905,famFaceFilter,001,7,
65,./img/gray_KatjaBurkard5_3.png,0,19,19,64,,,None,None,1,None,None,None,None,None,None,3,punkt 12,"['p', 'backspace', 'p', 'u', 'n', 'k', 't', 'space', '1', '2', 'return']","[2.016274501249427, 2.5161561330751283, 3.1325922437736153, 3.415704858420213, 3.665642306134032, 3.765541837536148, 4.148751263877784, 4.332106453086453, 4.948423233267022, 5.198331169131052, 5.431422163141178]",1.48290397871,0.983422681524,2017_Jan_30_1503,59.9505378905,famFaceFilter,001,7,
55,./img/gray_Ice-T(OdafinFinTutuola)6_1.png,0,20,20,54,,,None,None,2,None,None,None,None,None,None,2,,['return'],[0.5834559785871534],1.11664301442,0.267022241669,2017_Jan_30_1503,59.9505378905,famFaceFilter,001,7,
47,./img/gray_HughLaurie(DrHouse)5_3.png,0,21,21,46,,,None,None,1,None,None,None,None,None,None,1,dr house,"['d', 'r', 'space', 'h', 'o', 'u', 's', 'e', 'return']","[0.3503274532031355, 0.5335860873437923, 0.716702615518443, 0.9497948926527897, 1.0832577359524294, 1.349664398958339, 1.466466199950446, 1.6664028777886415, 1.9496858271268138]",0.750009623429,0.933406514165,2017_Jan_30_1503,59.9505378905,famFaceFilter,001,7,
33,./img/gray_KatjaBurkard4_1.png,0,22,22,32,,,None,None,1,None,None,None,None,None,None,3,punkt 12,"['p', 'u', 'n', 'k', 't', 'space', '1', '2', 'return']","[0.816896944625114, 1.0168297730924678, 1.1834661794218846, 1.300118817267503, 1.366600350549561, 1.483259083233861, 1.6829500428557367, 1.8499556680708338, 2.016394152547946]",1.08275218516,0.550660937091,2017_Jan_30_1503,59.9505378905,famFaceFilter,001,7,
71,./img/gray_BritneySpears7_1.png,0,23,23,70,,,None,None,1,None,None,None,None,None,None,2,britney spears,"['b', 'o', 'backspace', 'i', 'backspace', 'r', 'i', 't', 'n', 'e', 'y', 'space', 's', 'p', 'e', 'r', 'backspace', 'a', 'r', 's', 'return']","[0.36712643132341327, 0.5170892848891526, 0.9501098995569919, 1.166663031148346, 1.549810546765002, 1.666605932137827, 1.7832197554871527, 2.2826978448647424, 2.4994819387484313, 3.032696561740522, 3.549078845393524, 3.7157447635709104, 3.8821409049614886, 3.9655911094905605, 4.148837874736273, 4.348678318287057, 4.798752931937997, 4.931954338753712, 5.115163251846752, 5.415039558707576, 5.98141491349088]",1.38312024923,1.13360013755,2017_Jan_30_1503,59.9505378905,famFaceFilter,001,7,
36,./img/gray_TomCruise5_1.png,0,24,24,35,,,None,None,1,None,None,None,None,None,None,1,tom cruise,"['t', 'o', 'm', 'space', 'c', 'r', 'u', 's', 'backspace', 'i', 's', 'e', 'return']","[0.33376232440423337, 0.4668174551043194, 0.6337464136686322, 0.81688635885439, 0.9003756986621738, 1.100093603885398, 1.2332969353865337, 1.516666816365614, 1.8165668610181456, 2.099644189758692, 2.1994215036156675, 2.382926818314445, 2.5328431586403894]",9.28033336841,1.74966285921,2017_Jan_30_1503,59.9505378905,famFaceFilter,001,7,
70,./img/gray_WillSmith5_1.png,0,25,25,69,,,None,None,1,None,None,None,None,None,None,1,will smith,"['i', 'backspace', 'w', 'o', 'backspace', 'i', 'l', 'l', 'space', 's', 'm', 'i', 't', 'h', 'return']","[0.6167251343431417, 0.949927695970473, 1.0832975127923419, 1.1831758726530097, 1.6331083803379443, 2.1163536699896213, 2.332901027524713, 2.482788497563888, 2.649303969472385, 2.8160847272338287, 2.8660043395248067, 3.032342419561246, 3.149047665483522, 3.2490889820710436, 3.848729643239494]",1.26663537983,0.783294818233,2017_Jan_30_1503,59.9505378905,famFaceFilter,001,7,
45,./img/gray_NicoleKidman7_1.png,0,26,26,44,,,None,None,1,None,None,None,None,None,None,1,nicole kidman,"['n', 'i', 'c', 'o', 'e', 'l', 'space', 'backspace', 'backspace', 'backspace', 'l', 'e', 'space', 'k', 'i', 'd', 'm', 'a', 'n', 'return']","[0.4668094355783978, 0.6502172328655433, 0.7501658437558945, 0.8668986768425384, 1.0167524648804829, 1.1166494300359773, 1.366729625277003, 1.7331012590002501, 1.8662535863313678, 2.0997856541616784, 2.316201812283907, 2.499575927569822, 2.616119179108864, 2.8661130842701823, 3.049016613887943, 3.1658100745753472, 3.3658461945105955, 3.482413183841345, 3.565788004845672, 3.8156106129736145]",1.18357556573,0.483419794495,2017_Jan_30_1503,59.9505378905,famFaceFilter,001,7,
18,./img/gray_JasonSegel(Marshall)7_1.png,0,27,27,17,,,None,None,1,None,None,None,None,None,None,1,Himym,"['lshift', 'h', 'i', 'm', 'y', 'm', 'return']","[1.1998029121768923, 1.3332814737441367, 1.4997841144122503, 1.6829182855399267, 2.066327558419289, 2.4660722809312574, 2.7494164994313905]",1.13334864528,0.31678852066,2017_Jan_30_1503,59.9505378905,famFaceFilter,001,7,
31,./img/gray_AngelaMerkel3_1.png,0,28,28,30,,,None,None,1,None,None,None,None,None,None,3,angela merkel,"['a', 'n', 'g', 'e', 'l', 'a', 'space', 'm', 'e', 'r', 'k', 'e', 'l', 'return']","[0.6833760399731545, 0.7834619451132312, 1.0167319349002355, 1.1831543803291424, 1.3165392738555965, 1.450252005522998, 1.5665488972845196, 1.7663810005287814, 1.883029789003558, 2.0662306825706764, 2.166231901539504, 2.2828191000680818, 2.399467567762258, 2.6658453604813985]",1.11657500885,1.49973728039,2017_Jan_30_1503,59.9505378905,famFaceFilter,001,7,
25,./img/gray_MariskaHargitay(Liv)8_8.png,0,29,29,24,,,None,None,2,None,None,None,None,None,None,3,,['return'],[0.5500492077990202],2.91597848458,0.966424177645,2017_Jan_30_1503,59.9505378905,famFaceFilter,001,7,
26,./img/gray_BarackObama1_3.png,0,30,30,25,,,None,None,1,None,None,None,None,None,None,4,Barrack obama,"['lshift', 'b', 'a', 'r', 'r', 'a', 'c', 'k', 'space', 'o', 'b', 'a', 'm', 'a', 'return']","[0.6500359916244633, 0.766761125967605, 0.950101559252289, 1.3329728824610356, 1.48288793966276, 1.7661195640466758, 2.099495988955823, 2.2494556347101025, 2.4161420828695555, 2.6660246770370577, 2.899261947166451, 3.0491535873570683, 3.1658485682910396, 3.382420305179039, 3.5322561294833577]",1.09980554258,1.16667746629,2017_Jan_30_1503,59.9505378905,famFaceFilter,001,7,
1,./img/gray_JoachimLoew8_1.png,0,31,31,0,,,None,None,1,None,None,None,None,None,None,5,jogi löw,"['j', 'o', 'g', 'i', 'space', 'l', u'\xf6', 'w', 'return']","[0.4501977935397008, 0.6167899320971628, 0.7502845327126124, 0.9501070125279512, 1.2166609139949287, 1.4998453835778491, 1.8496650405213586, 1.999659651401089, 2.3495261423649936]",1.0333525588,0.916358930799,2017_Jan_30_1503,59.9505378905,famFaceFilter,001,7,
72,./img/gray_WillSmith4_1.png,0,32,32,71,,,None,None,1,None,None,None,None,None,None,1,will smith,"['w', 'i', 'l', 'l', 'space', 's', 'm', 'i', 't', 'h', 'return']","[1.0164624788922083, 1.0832824360859377, 1.2999173668231379, 1.4165414551644062, 1.6166070869494433, 1.749718995877629, 1.8163862613346282, 1.9662900912044279, 2.1330852841092565, 2.849426058704921, 2.949285492488343]",1.0334773426,0.300284019462,2017_Jan_30_1503,59.9505378905,famFaceFilter,001,7,
12,./img/gray_BarackObama2_1.png,0,33,33,11,,,None,None,1,None,None,None,None,None,None,4,barrack obama,"['b', 'a', 'r', 'r', 'c', 'k', 'backspace', 'backspace', 'a', 'c', 'k', 'space', 'o', 'a', 'backspace', 'b', 'a', 'm', 'a', 'return']","[0.3502879971474613, 0.48369021284634073, 0.6836185503780143, 0.7834067707881331, 1.3498081088309846, 1.7331346202226996, 2.14965811165348, 2.316219455236933, 2.982642221448259, 3.2158647356518486, 3.348997816123301, 3.582244068118598, 3.7490912275407027, 3.948990694787426, 4.415103714900397, 4.631938812957742, 4.798588371306323, 4.898503941756644, 5.031720425278763, 5.7981107284558675]",1.13326139286,1.26650835057,2017_Jan_30_1503,59.9505378905,famFaceFilter,001,7,
28,./img/gray_GeorgeClooney4_2.png,0,34,34,27,,,None,None,1,None,None,None,None,None,None,1,george clooney,"['g', 'e', 'o', 'r', 'g', 'e', 'space', 'c', 'l', 'o', 'o', 'm', 'backspace', 'n', 'e', 'y', 'return']","[1.1664705625717033, 1.3832094263416366, 1.4995922873986274, 1.5997160446931957, 1.7831126146465976, 1.9331319256598363, 2.0828432869529934, 2.2328494459470676, 2.349472571944716, 2.549302750503557, 2.6993461200891034, 2.8659902251620224, 3.265799745428012, 3.5322083331193426, 3.649039325178819, 3.931913599571999, 4.148909729670777]",1.149648809,1.06706952478,2017_Jan_30_1503,59.9505378905,famFaceFilter,001,7,
34,./img/gray_RobertSeanLeonard(Wilson)2_6.png,0,35,35,33,,,None,None,2,None,None,None,None,None,None,1,,['return'],[0.534814357642972],1.66635187362,0.433320224085,2017_Jan_30_1503,59.9505378905,famFaceFilter,001,7,
49,./img/gray_NeilPatrickHarris(Barney)1_1.png,0,36,36,48,,,None,None,1,None,None,None,None,None,None,1,barney stinson,"['b', 'a', 'r', 'n', 'e', 'y', 'space', 's', 't', 'i', 'n', 's', 'o', 'n', 'return']","[0.5334167149976565, 0.6335674178917543, 0.8668435025174404, 1.0166607215251133, 1.1500847503302793, 1.466462029799004, 2.016268085630145, 2.167066894378877, 2.382883512884291, 2.4825822354068805, 2.6659130452626414, 2.7661035249966517, 2.882906929895398, 3.032640104291204, 3.3656774637256603]",1.3996725468,0.266606188763,2017_Jan_30_1503,59.9505378905,famFaceFilter,001,7,
8,./img/gray_BastianSchweinsteiger6_2.png,0,37,37,7,,,None,None,1,None,None,None,None,None,None,5,bastian schweinsteiger,"['b', 'a', 's', 't', 'i', 'a', 'n', 'space', 's', 'c', 'h', 'w', 'e', 'i', 'n', 's', 't', 'e', 'i', 'g', 'e', 'r', 'return']","[0.7335602965558792, 0.8501349846283119, 1.0167354634904768, 1.2333187484928203, 1.31664160298169, 1.4998415342051885, 1.633163233882442, 1.7830372311218525, 1.8159993994977413, 2.3495325579842756, 2.499415857872009, 2.63291302473408, 2.7994134199361724, 2.865967449713935, 3.032512112689801, 3.1493905803308735, 3.34927015915855, 3.5658216868469026, 3.649112142458762, 4.132194154601166, 4.265443037000296, 4.398876689232566, 4.6653375642199535]",1.01669504509,0.317039050591,2017_Jan_30_1503,59.9505378905,famFaceFilter,001,7,
23,./img/gray_TomCruise4_1.png,0,38,38,22,,,None,None,1,None,None,None,None,None,None,1,tom cruise,"['t', 'o', 'm', 'space', 'c', 'r', 'u', 'i', 's', 'e', 'return']","[0.5835037749493495, 0.7331894737653784, 0.8834984499862912, 1.04995778522607, 1.074175143838147, 1.2999192915103777, 1.4166331985197758, 1.5831146676446224, 1.716439575131517, 1.866391522144113, 2.0495577713681996]",1.23317471784,0.600129852133,2017_Jan_30_1503,59.9505378905,famFaceFilter,001,7,
59,./img/gray_AlysonHannigan(Lily)5_4.png,0,39,39,58,,,None,None,1,None,None,None,None,None,None,1,amercian pie,"['a', 'm', 'e', 'r', 'c', 'i', 'a', 'n', 'space', 'p', 'i', 'e', 'return']","[0.35159229253076774, 0.4501230515761563, 0.566994462036746, 0.7167362975196738, 0.9667058233280841, 1.0500960418194154, 1.1832384249391907, 1.2498668759017164, 1.5828509856946766, 1.7663864538044436, 1.983352430492232, 2.099231023881657, 2.3160548946034396]",1.14986758162,0.266736746613,2017_Jan_30_1503,59.9505378905,famFaceFilter,001,7,
2,./img/gray_BastianSchweinsteiger1_1.png,0,40,40,1,,,None,None,1,None,None,None,None,None,None,5,bastian schweinsteiger,"['b', 'a', 's', 't', 'i', 'a', 'n', 'space', 's', 'c', 'h', 'w', 'e', 'i', 'n', 's', 't', 'e', 'i', 'g', 'e', 'r', 'return']","[0.43350114454733557, 0.5501903514232254, 0.7000855202040839, 0.9166348024245963, 1.0167107633569685, 1.1660272432854981, 1.2498697629307571, 1.4164869224023278, 1.4998235704715626, 1.6664516364962765, 1.7663941525479459, 1.8830442241469427, 2.016234403630733, 2.082904235336173, 2.2329245086930314, 2.349444022440366, 2.5827351837688184, 3.0658775027332013, 3.16584888907164, 3.399182072707845, 3.4988294702761777, 3.632204098810689, 3.78226286588324]",1.08334659228,0.966613438413,2017_Jan_30_1503,59.9505378905,famFaceFilter,001,7,
5,./img/gray_OmarEpps(DrEricForeman)2_2.png,0,41,41,4,,,None,None,2,None,None,None,None,None,None,2,,['return'],[0.6002649009187735],1.21666957508,0.816521630901,2017_Jan_30_1503,59.9505378905,famFaceFilter,001,7,
41,./img/gray_RobertSeanLeonard(Wilson)1_1.png,0,42,42,40,,,None,None,2,None,None,None,None,None,None,1,,['return'],[0.450282800493369],1.73295626601,0.949985757326,2017_Jan_30_1503,59.9505378905,famFaceFilter,001,7,
27,./img/gray_LeonardoDiCaprio1_1.png,0,43,43,26,,,None,None,1,None,None,None,None,None,None,1,leonarco di caprio,"['l', 'e', 'o', 'n', 'a', 'r', 'c', 'o', 'space', 'd', 'i', 'space', 'c', 'a', 'p', 'r', 'i', 'o', 'return']","[0.7501058577181539, 0.8668248972226138, 0.9999217294462142, 1.199954320791221, 1.316339427316052, 1.5164332878266578, 1.8829486314207315, 2.216093131695743, 2.3994480001238117, 2.5160724092456803, 2.582784584037654, 2.782601931357931, 2.89923018985246, 3.0824224223324563, 3.798810030950335, 3.965570579510313, 4.098826839872345, 4.248622566556151, 4.56498509010089]",1.13334511669,0.450036761498,2017_Jan_30_1503,59.9505378905,famFaceFilter,001,7,
43,./img/gray_LisaEdelstein(DrLisaCuddy)6_3.png,0,44,44,42,,,None,None,2,None,None,None,None,None,None,3,,['return'],[0.40027946437294304],1.46652297818,1.01673738818,2017_Jan_30_1503,59.9505378905,famFaceFilter,001,7,
10,./img/gray_HughLaurie(DrHouse)2_1.png,0,45,45,9,,,None,None,1,None,None,None,None,None,None,1,dr house,"['d', 'r', 'space', 'h', 'o', 'u', 's', 'e', 'return']","[0.5835406647602213, 0.932845468261803, 1.0667436113253643, 1.3331871641421458, 1.4497968173382105, 1.7164107048447477, 1.8330662297194067, 2.0329714710242115, 2.1828544501295255]",1.11661029476,0.200039327747,2017_Jan_30_1503,59.9505378905,famFaceFilter,001,7,
29,./img/gray_UrsulavonderLeyen4_1.png,0,46,46,28,,,None,None,1,None,None,None,None,None,None,4,ursula von der leyen,"['u', 'r', 's', 'u', 'l', 'a', 'space', 'o', 'v', 'backspace', 'backspace', 'v', 'o', 'n', 'space', 'd', 'e', 'r', 'space', 'l', 'e', 'y', 'e', 'n', 'return']","[0.7001368451583403, 0.7834827958758979, 1.0331106899611768, 1.1165775751014735, 1.3665467801292834, 1.4997918131575716, 1.633194028854632, 1.899628599803691, 1.9664228945221112, 2.4329474766091153, 2.599460703049772, 2.749395969451143, 2.8412323506327084, 3.0326324055495206, 3.215968989463363, 3.3326094376334368, 3.5156412796332006, 3.6824335855108075, 3.848925640408197, 4.015415129057146, 4.148908446548376, 4.481980450325864, 4.68188922022091, 4.798442736750076, 5.048205358838459]",1.28330155463,0.650140566217,2017_Jan_30_1503,59.9505378905,famFaceFilter,001,7,
56,./img/gray_GuentherJauch2_1.png,0,47,47,55,,,None,None,1,None,None,None,None,None,None,3,günter jauch,"['g', u'\xfc', 'n', 't', 'e', 'r', 'space', 'j', 'a', 'u', 'c', 'h', 'return']","[0.8335397024184203, 1.0000336820012308, 1.2831854319247213, 1.4331117164601892, 1.632895061000454, 1.766423985178335, 1.8664900018993649, 2.082961655127292, 2.1995552692769706, 2.3162646853525075, 2.432472079224681, 2.5994129066857568, 3.0827185031594126]",0.899929171565,1.38287100243,2017_Jan_30_1503,59.9505378905,famFaceFilter,001,7,
24,./img/gray_JoachimLoew1_1.png,0,48,48,23,,,None,None,1,None,None,None,None,None,None,5,jogi löw,"['j', 'o', 'g', 'i', 'space', 'l', 'w', 'backspace', u'\xf6', 'w', 'return']","[0.949935073933375, 1.3164988554544834, 1.932765914585616, 1.9829232255688112, 2.199442033597734, 2.432645942506497, 2.7827180540662084, 3.2491313251593965, 3.482340045782621, 3.665593547426397, 4.1987876404382405]",1.48325202605,1.44978687313,2017_Jan_30_1503,59.9505378905,famFaceFilter,001,7,
3,./img/gray_KatjaBurkard1_1.png,0,49,49,2,,,None,None,1,None,None,None,None,None,None,3,punkt 12,"['p', 'u', 'n', 'k', 't', 'space', '1', '2', 'return']","[0.8164731929755362, 1.050116892582082, 1.2163734942532756, 1.333198070695289, 1.4499238465996314, 1.5332774960606912, 1.7498415342051885, 1.9330700149348559, 2.0828718364573433]",1.58281505823,1.26640120973,2017_Jan_30_1503,59.9505378905,famFaceFilter,001,7,
64,./img/gray_LisaEdelstein(DrLisaCuddy)2_2.png,0,50,50,63,,,None,None,2,None,None,None,None,None,None,3,,['return'],[0.33372126444191963],1.66651964206,0.450147430931,2017_Jan_30_1503,59.9505378905,famFaceFilter,001,7,
48,./img/gray_LeonardoDiCaprio2_1.png,0,51,51,47,,,None,None,1,None,None,None,None,None,None,1,leonardo di caprio,"['l', 'e', 'o', 'n', 'a', 'r', 'c', 'o', 'space', 'backspace', 'backspace', 'backspace', 'd', 'o', 'space', 'd', 'i', 'space', 'c', 'a', 'p', 'r', 'i', 'o', 'return']","[0.5668244481294096, 0.6500860334544996, 0.7334611752394267, 0.9333555099910882, 1.0335014011707244, 1.2333537136164523, 1.7330986927536287, 1.8492791410262726, 2.0329801321113337, 2.466196102383037, 2.6493568983314617, 2.6993230238604156, 3.0655618542677985, 3.1491285022875672, 3.4157253884022793, 3.598939113207962, 3.6990378495866025, 3.9655580690523493, 4.182044798986681, 4.415306769247763, 5.098366519192496, 5.231639139383333, 5.348390256984203, 5.498273236089517, 5.748230572222383]",1.1334577108,0.716748487197,2017_Jan_30_1503,59.9505378905,famFaceFilter,001,7,
57,./img/gray_UrsulavonderLeyen5_1.png,0,52,52,56,,,None,None,1,None,None,None,None,None,None,4,ursula von der leyen,"['u', 'r', 's', 'u', 'l', 'a', 'space', 'v', 'o', 'n', 'space', 'd', 'e', 'r', 'space', 'l', 'e', 'y', 'e', 'n', 'return']","[0.7168578735036135, 0.8332766620296752, 1.016826886063427, 1.1002106889336574, 1.2831530330477108, 1.383324265923875, 1.4999698465890106, 1.6324706677878567, 1.6996893557170552, 1.866409485877739, 2.0493043544083775, 2.099477704439778, 2.266281879212329, 2.4160872293250577, 2.5328463664500305, 2.7161601749157853, 2.79937460543988, 3.01597649573705, 3.2490103907366574, 3.3491732833081187, 3.5991200336684415]",1.26640537988,1.13290981692,2017_Jan_30_1503,59.9505378905,famFaceFilter,001,7,
67,./img/gray_AngelaMerkel4_1.png,0,53,53,66,,,None,None,1,None,None,None,None,None,None,3,angela merkel,"['a', 'n', 'g', 'e', 'l', 'a', 'space', 'm', 'e', 'r', 'k', 'e', 'l', 'return']","[0.3170005568754277, 0.45041047131599043, 0.667065932035257, 0.7668817396079248, 0.9170085122423188, 1.0666948526195483, 1.1666623895871453, 1.3499989735009876, 1.4501166359568742, 1.5665200269959314, 1.6333544193348644, 1.7832229632967938, 1.8662218290155579, 2.1165403645100014]",1.03338944862,1.06683343,2017_Jan_30_1503,59.9505378905,famFaceFilter,001,7,
17,./img/gray_JasonSegel(Marshall)6_1.png,0,54,54,16,,,None,None,1,None,None,None,None,None,None,1,Himym,"['lshift', 'h', 'i', 'm', 'y', 'm', 'return']","[0.5169295359701209, 0.733409529502751, 0.8832973203225265, 1.0666194690929842, 1.4657476505999512, 1.882500821198846, 2.5494868787754967]",1.43255644462,0.367168453629,2017_Jan_30_1503,59.9505378905,famFaceFilter,001,7,
68,./img/gray_Ice-T(OdafinFinTutuola)7_1.png,0,55,55,67,,,None,None,2,None,None,None,None,None,None,2,,['return'],[0.28372723096799746],1.30001360111,0.250247001339,2017_Jan_30_1503,59.9505378905,famFaceFilter,001,7,
