num,pic,trials.thisRepN,trials.thisTrialN,trials.thisN,trials.thisIndex,key_resp_2.keys,key_resp_2.rt,ratingBekannt.response,ratingBekannt.rt,key_resp_5.keys,key_resp_5.rt,ratingK1.response,ratingK1.rt,ratingK2.response,ratingK2.rt,ratingK3.response,ratingK3.rt,key_resp_6.keys,key_resp_6.rt,inputText,key_resp_4.keys,key_resp_4.rt,date,frameRate,expName,session,participant,
,,,,,,space,26.4774349841,,,,,,,,,,,,,,,,2017_Feb_01_1709,59.8946739443,famFaceFilter,001,8,
31,./img/smoo15_BritneySpears1_1.png,0,0,0,30,,,None,None,1,3.55868783907,None,None,None,None,None,None,2,11.0270527415,Britney Spears,"['lshift', 'b', 'r', 'i', 't', 'n', 'e', 'y', 'space', 'lshift', 's', 'p', 'a', 'backspace', 'e', 'a', 'r', 's', 'return']","[0.6852808373150765, 0.9025371207717399, 1.253390975532966, 1.4203937137190223, 2.055288844007009, 2.289216755543748, 2.3893902338877524, 2.606489013893224, 2.857143727833318, 3.1243738355642563, 3.2081730497793615, 3.3917062724231073, 3.5756058269216737, 4.3773824401923775, 4.945531392908379, 5.062409860549451, 5.246181744227215, 5.346455306229473, 5.697392243258946]",2017_Feb_01_1709,59.8946739443,famFaceFilter,001,8,
70,./img/smoo15_JasonSegel(Marshall)7_1.png,0,1,1,69,,,None,None,1,1.92163866463,None,None,None,None,None,None,1,0.367650587414,,['return'],[1.3703881321307563],2017_Feb_01_1709,59.8946739443,famFaceFilter,001,8,
33,./img/smoo15_Ice-T(OdafinFinTutuola)7_1.png,0,2,2,32,,,None,None,2,3.29155011625,None,None,None,None,None,None,2,1.25316161715,,['return'],[0.8191953402074432],2017_Feb_01_1709,59.8946739443,famFaceFilter,001,8,
57,./img/smoo15_UrsulavonderLeyen5_1.png,0,3,3,56,,,None,None,1,2.42258336456,None,None,None,None,None,None,4,1.10305986543,Ursula von der Leyen,"['lshift', 'u', 'r', 's', 'u', 'l', 'a', 'space', 'v', 'o', 'n', 'space', 'd', 'e', 'r', 'space', 'lshift', 'l', 'e', 'y', 'e', 'n', 'return']","[1.7213276354086702, 2.5231866893864208, 2.723708471696227, 2.9408935417814064, 3.558873571240838, 3.758696371838596, 3.9089511360780307, 4.043019293050747, 4.4612259221812565, 4.561376625075354, 4.727624244880644, 4.912243631855745, 4.978923407770708, 5.079194724306944, 5.663918429250771, 5.847658876393325, 6.0981872026350175, 6.248689930556793, 6.4154139100883185, 6.6496555454050394, 6.816664378429778, 6.983884285325985, 7.284506087138652]",2017_Feb_01_1709,59.8946739443,famFaceFilter,001,8,
19,./img/smoo15_NicoleKidman7_1.png,0,4,4,18,,,None,None,1,1.95511536566,None,None,None,None,None,None,1,2.99078364222,Nicole Kidman,"['lshift', 'n', 'i', 'c', 'o', 'l', 'e', 'space', 'lshift', 'k', 'i', 'd', 'm', 'a', 'n', 'return']","[0.4681445259375323, 0.8356764243962971, 1.0194210416921123, 1.2366737965585344, 1.353559962943109, 1.53735301816414, 1.6878008925414179, 1.8046328469445143, 1.9383943373177317, 2.0719296771148947, 2.305880364099721, 2.4061260181588295, 2.5396780385653983, 2.623372678188389, 2.7569163582902547, 3.0243238578914315]",2017_Feb_01_1709,59.8946739443,famFaceFilter,001,8,
2,./img/smoo15_WillSmith5_1.png,0,5,5,1,,,None,None,1,1.87149546801,None,None,None,None,None,None,1,0.21692652063,Will Smith,"['lshift', 'w', 'i', 'l', 'l', 'space', 'lshift', 's', 'm', 'i', 'h', 'backspace', 't', 'h', 'return']","[0.4851340479472128, 0.6021494890592294, 0.7853154175027157, 0.9858628622896504, 1.1194171281622403, 1.2867098523365712, 1.4033393939535017, 1.520786927019799, 1.571254753973335, 1.7549849361257657, 2.2728983073029667, 2.539936267237863, 2.6404449616857164, 2.7406107412862184, 2.9411681302826764]",2017_Feb_01_1709,59.8946739443,famFaceFilter,001,8,
45,./img/smoo15_RobertSeanLeonard(Wilson)2_6.png,0,6,6,44,,,None,None,2,4.07691685871,None,None,None,None,None,None,1,1.18648633216,,['return'],[0.36837394848043914],2017_Feb_01_1709,59.8946739443,famFaceFilter,001,8,
35,./img/smoo15_KatjaBurkard1_1.png,0,7,7,34,,,None,None,1,4.89544721998,None,None,None,None,None,None,3,0.835690217977,,['return'],[1.9379753973826155],2017_Feb_01_1709,59.8946739443,famFaceFilter,001,8,
34,./img/smoo15_EmilyDeschanel5_1.png,0,8,8,33,,,None,None,1,4.54483395094,None,None,None,None,None,None,1,1.37007889928,,['return'],[0.8858225080457487],2017_Feb_01_1709,59.8946739443,famFaceFilter,001,8,
46,./img/smoo15_NeilPatrickHarris(Barney)1_1.png,0,9,9,45,,,None,None,1,1.6543444007,None,None,None,None,None,None,1,1.25352153338,Barney Stinson,"['lshift', 'b', 'a', 'r', 'n', 'backspace', 'e', 'backspace', 'n', 'e', 'y', 'space', 'lshift', 's', 't', 'i', 'n', 's', 'o', 'n', 'return']","[0.7688009720932314, 1.1197279649131815, 1.2534381303339615, 1.4036880828589346, 1.5875096875843155, 1.955128196901569, 2.1388400945397734, 2.573085450914732, 2.823868798019248, 2.8906367886993394, 3.024396354387136, 3.2248652078396844, 3.324957207818443, 3.4420287855991774, 3.6757225270339404, 3.7426961383098387, 3.9098660033760098, 4.009892564039546, 4.0934733264202805, 4.277214735906455, 4.5778920328266395]",2017_Feb_01_1709,59.8946739443,famFaceFilter,001,8,
52,./img/smoo15_BastianSchweinsteiger3_1.png,0,10,10,51,,,None,None,1,2.63990316264,None,None,None,None,None,None,4,1.13615900727,Bastian Scweinsteiger,"['lshift', 'b', 'a', 's', 't', 'i', 'a', 'n', 'space', 'lshift', 's', 'c', 'w', 'e', 'i', 'n', 's', 't', 'e', 'i', 'g', 'e', 'r', 'return']","[2.356107284551399, 5.045780254777128, 5.246155119408286, 5.396484304830665, 5.597388137264716, 5.730661078236153, 5.9311796527363185, 6.933670516893471, 7.451481879725179, 7.568467808989226, 7.651705977305028, 7.768901055755123, 8.002660236505108, 8.052916989587175, 8.203398866746284, 8.386891670987097, 8.417839655712669, 8.537393436565253, 8.67100448066958, 8.787949029188894, 8.904943940320663, 9.072078840261383, 9.171971956046036, 9.372863278022123]",2017_Feb_01_1709,59.8946739443,famFaceFilter,001,8,
72,./img/smoo15_HughLaurie(DrHouse)2_1.png,0,11,11,71,,,None,None,1,2.12141046105,None,None,None,None,None,None,1,0.267568852425,Dr House,"['lshift', 'c', 'backspace', 'lshift', 'd', 'r', 'space', 'lshift', 'h', 'o', 'i', 'backspace', 'u', 's', 'e', 'return']","[1.0534671289333346, 1.220602349656474, 1.6046637702274893, 1.7050521718156233, 1.805208007206602, 2.022333732811603, 2.1895834723381995, 2.4234613420449023, 2.5904990453564096, 2.790978163797263, 2.9577797723213735, 3.509359105302792, 3.7432421075045568, 3.8268244737901114, 3.9604021566738083, 4.160752321171458]",2017_Feb_01_1709,59.8946739443,famFaceFilter,001,8,
66,./img/smoo15_NicoleKidman3_1.png,0,12,12,65,,,None,None,1,1.87156186967,None,None,None,None,None,None,1,0.184149122088,Nicole Kidman,"['lshift', 'n', 'i', 'c', 'o', 'l', 'e', 'space', 'lshift', 'k', 'i', 'd', 'm', 'a', 'n', 'return']","[0.6853542961544008, 0.9360054815042531, 1.169885596678796, 1.303591591946315, 1.403816716023357, 1.5875051966504543, 1.6878406693795114, 1.8548289724221831, 1.971732460979183, 2.2391098071711895, 2.439667837730667, 3.1747274644949357, 3.391848057606694, 3.508683861380632, 3.6592286116083415, 4.310747894392989]",2017_Feb_01_1709,59.8946739443,famFaceFilter,001,8,
64,./img/smoo15_JoachimLoew8_1.png,0,13,13,63,,,None,None,1,1.95508007976,None,None,None,None,None,None,5,1.78784670006,Joachim Loew,"['lshift', 'j', 'o', 'a', 'c', 'h', 'i', 'm', 'space', 'lshift', 'l', 'o', 'e', 'w', 'return']","[0.6851445054071519, 0.8691236135855434, 1.2869042456004536, 1.403746785774274, 1.671045219851294, 2.255922258093051, 2.422939752203092, 2.589904638236476, 2.790319921266928, 2.890551781745671, 2.9909161247614975, 3.191114880642999, 3.325021043230663, 3.4754718046369817, 3.7928146347967413]",2017_Feb_01_1709,59.8946739443,famFaceFilter,001,8,
27,./img/smoo15_JasonSegel(Marshall)9_1.png,0,14,14,26,,,None,None,1,2.17217468961,None,None,None,None,None,None,1,0.434877936428,,['return'],[1.0696062606166379],2017_Feb_01_1709,59.8946739443,famFaceFilter,001,8,
21,./img/smoo15_NeilPatrickHarris(Barney)3_7.png,0,15,15,20,,,None,None,1,4.9121098662,None,None,None,None,None,None,1,0.568268604013,Barney Stinson,"['lshift', 'b', 'a', 'r', 'n', 'e', 'y', 'space', 'lshift', 's', 't', 'i', 'n', 'd', 'backspace', 's', 'o', 'n', 'return']","[0.5853216406540014, 0.8024601974975667, 0.9694366316452943, 1.1699430164699152, 1.3367212079847377, 1.4539968024546397, 1.6877255090148537, 1.871571813875562, 2.1387618239859876, 2.2726031888196303, 2.5900133829818515, 2.9908567802831385, 3.1913612404205196, 3.3919600101617107, 3.909907384120743, 4.043739767086663, 4.9121554170924355, 5.14597811247404, 10.625800348496341]",2017_Feb_01_1709,59.8946739443,famFaceFilter,001,8,
56,./img/smoo15_MariskaHargitay(Liv)6_5.png,0,16,16,55,,,None,None,2,6.165058164,None,None,None,None,None,None,1,2.07196785005,,['return'],[0.5348008848413883],2017_Feb_01_1709,59.8946739443,famFaceFilter,001,8,
28,./img/smoo15_HughLaurie(DrHouse)5_3.png,0,17,17,27,,,None,None,1,1.0696521323,None,None,None,None,None,None,1,0.91930177533,Dr House,"['lshift', 'd', 'r', 'period', 'space', 'lshift', 'h', 'o', 'u', 's', 'e', 'return']","[0.5852366336985142, 0.8525270482496126, 1.0531280634586437, 1.3035761944593105, 1.5041031092659978, 1.6374504714185605, 1.7881844824132713, 1.9886892633330717, 2.205840651415201, 2.306114213419278, 2.4062735774004977, 2.6401315586863348]",2017_Feb_01_1709,59.8946739443,famFaceFilter,001,8,
1,./img/smoo15_Ice-T(OdafinFinTutuola)6_1.png,0,18,18,0,,,None,None,2,1.5540775751,None,None,None,None,None,None,2,0.401024317764,,['return'],[0.6519494500516885],2017_Feb_01_1709,59.8946739443,famFaceFilter,001,8,
51,./img/smoo15_LeonardoDiCaprio1_1.png,0,19,19,50,,,None,None,1,1.03681250225,None,None,None,None,None,None,1,0.267689466067,Leonardo diCaprio,"['lshift', 'l', 'e', 'o', 'n', 'a', 'r', 'd', 'o', 'space', 'd', 'i', 'lshift', 'c', 'a', 'p', 'r', 'i', 'o', 'return']","[0.7020547945212456, 1.7713030635877658, 1.955006300138848, 2.072023345155685, 2.289311065147558, 2.5397691403595672, 2.7569436246722034, 2.9407684372072254, 3.5087361486785085, 4.026645028921848, 4.644880079245922, 4.8452870219734905, 5.045735666224573, 5.162765542479974, 5.3465082350885496, 5.881045437981811, 6.015997988062736, 6.198522033802874, 6.415722501373239, 6.950241419750455]",2017_Feb_01_1709,59.8946739443,famFaceFilter,001,8,
42,./img/smoo15_OmarEpps(DrEricForeman)1_5.png,0,20,20,41,,,None,None,2,4.66152540329,None,None,None,None,None,None,1,0.785645180331,,['return'],[0.9358810184930917],2017_Feb_01_1709,59.8946739443,famFaceFilter,001,8,
48,./img/smoo15_JoshRadnor(Ted)6_2.png,0,21,21,47,,,None,None,1,3.05752564964,None,None,None,None,None,None,1,0.384659677064,Ted Mosby,"['lshift', 't', 'e', 'd', 'space', 'lshift', 'm', 'o', 's', 'b', 'y', 'return']","[0.5515543120654911, 0.8189563583928248, 0.96945652006616, 1.220034246574869, 1.4038054886914324, 1.5374944825671264, 1.68762189676454, 1.971716421932797, 2.406213591360938, 2.6401184066689893, 2.7733528539247345, 3.341743033921375]",2017_Feb_01_1709,59.8946739443,famFaceFilter,001,8,
29,./img/smoo15_GuentherJauch3_1.png,0,22,22,28,,,None,None,1,1.37034931763,None,None,None,None,None,None,3,1.31994147672,G端nther Jauch,"['lshift', 'g', u'\xfc', 'n', 't', 'h', 'e', 'r', 'space', 'lshift', 'j', 'a', 'c', 'backspace', 'u', 'c', 'h', 'return']","[0.6518852938625059, 0.8856868176990247, 1.1530911094923795, 1.386968658418482, 1.8046014104111237, 1.904639198408404, 2.105350562265812, 2.2224208569223265, 2.4061375662749924, 2.589902713551055, 2.690072663304818, 2.840535293606081, 3.0074225506450603, 3.391864096656718, 3.625815104422145, 3.7425822610712203, 3.8427570225376257, 4.143428224619129]",2017_Feb_01_1709,59.8946739443,famFaceFilter,001,8,
54,./img/smoo15_LisaEdelstein(DrLisaCuddy)6_3.png,0,23,23,53,,,None,None,2,3.4085902575,None,None,None,None,None,None,3,0.418070618003,,['return'],[0.5350446783722873],2017_Feb_01_1709,59.8946739443,famFaceFilter,001,8,
3,./img/smoo15_JoshRadnor(Ted)3_1.png,0,24,24,2,,,None,None,1,2.47297324174,None,None,None,None,None,None,1,0.267429312707,Ted Mosby,"['lshift', 't', 'e', 'd', 'space', 'lshift', 'm', 'o', 's', 'b', 'y', 'return']","[0.40131975702752243, 0.6520431180924788, 1.0362937994323147, 1.2367219137013308, 1.4037416532792122, 1.5709310859838297, 1.7711510134104174, 2.005417990421847, 2.356154760132995, 2.706960818530206, 2.890419940769789, 3.3249491882961593]",2017_Feb_01_1709,59.8946739443,famFaceFilter,001,8,
13,./img/smoo15_GeorgeClooney3_1.png,0,25,25,12,,,None,None,1,1.48751424267,None,None,None,None,None,None,1,0.150663439183,George Clooney,"['lshift', 'g', 'e', 'o', 'r', 'g', 'e', 'space', 'lshift', 'c', 'l', 'o', 'o', 'n', 'e', 'y', 'return']","[0.5182893264627637, 0.7522624681150774, 0.919227354148461, 1.1531533409979602, 1.269977275876954, 1.52064193402839, 1.8715615488854382, 2.055229499530469, 2.3558140907534835, 2.506282815893428, 2.6899982421218738, 2.873960990469641, 3.024342142407477, 3.2247445941993647, 3.3583729604761174, 3.809507755200684, 4.226885486330502]",2017_Feb_01_1709,59.8946739443,famFaceFilter,001,8,
8,./img/smoo15_AngelaMerkel4_1.png,0,26,26,7,,,None,None,1,1.13641114111,None,None,None,None,None,None,4,1.38683874213,Angela Merkel,"['lshift', 'a', 'n', 'g', 'e', 'l', 'a', 'space', 'lshift', 'm', 'e', 'r', 'k', 'e', 'l', 'return']","[0.7688006513144501, 0.9376093863083952, 1.119914017872361, 1.1867121619616228, 1.2870835621579317, 1.4039530479331006, 1.704664989196317, 1.8550073266378604, 1.9717924470205617, 2.1056424729395076, 2.3393570651369373, 2.473023283566363, 2.7235612332369783, 2.8739382150215533, 3.0076281712408672, 3.308413571345227]",2017_Feb_01_1709,59.8946739443,famFaceFilter,001,8,
60,./img/smoo15_LeonardoDiCaprio2_1.png,0,27,27,59,,,None,None,1,1.15313762273,None,None,None,None,None,None,1,0.150745879888,Leonardo diCaprio,"['lshift', 'l', 'e', 'o', 'n', 'a', 'r', 'd', 'o', 'space', 'd', 'i', 'lshift', 'c', 'a', 'p', 'r', 'i', 'o', 'return']","[1.286784915082535, 1.6711225280614599, 1.8215899700771843, 1.921779808249994, 2.105180548354838, 2.222450047987877, 2.389478769431662, 2.5733773615884274, 2.6736897380887967, 2.857277493494621, 3.291638651795438, 3.442125982230209, 3.976687885256979, 4.127123249176293, 4.3274214471584855, 4.711577177331492, 4.895502073528405, 5.129472969712879, 5.34666317229312, 5.747634881978229]",2017_Feb_01_1709,59.8946739443,famFaceFilter,001,8,
44,./img/smoo15_GuentherJauch2_1.png,0,28,28,43,,,None,None,1,1.30349632,None,None,None,None,None,None,3,0.985652429979,G端nther Jauch,"['lshift', 'g', u'\xfc', 'n', 't', 'h', 'e', 'r', 'space', 'lshift', 'j', 'a', 'u', 'c', 'h', 'return']","[0.6017892520412715, 0.8189723974392109, 1.1531940801796736, 1.403828264137701, 1.6377597042646812, 1.737815135214987, 1.88812635690374, 2.038509754307597, 2.20538065151959, 2.656701178420917, 2.8238934981545754, 3.224794636029401, 3.3748213250055414, 3.52554442944529, 3.6591987789797713, 4.026828194850168]",2017_Feb_01_1709,59.8946739443,famFaceFilter,001,8,
71,./img/smoo15_AngelaMerkel1_1.png,0,29,29,70,,,None,None,1,0.885868058942,None,None,None,None,None,None,4,1.58741569876,Angela Merkel,"['lshift', 'a', 'n', 'g', 'e', 'l', 'a', 'space', 'lshift', 'm', 'e', 'r', 'k', 'e', 'l', 'return']","[1.6711016772987932, 1.888321391727004, 2.5063562747309334, 2.6566857809339126, 2.773817665534807, 2.990906180550155, 3.5086918809047347, 3.709288725960505, 4.260542145484578, 4.444289329028834, 4.628047739905014, 4.728115039750264, 4.7951489578463224, 4.962428850782089, 5.212867999916853, 5.563713514373376]",2017_Feb_01_1709,59.8946739443,famFaceFilter,001,8,
23,./img/smoo15_JoachimLoew4_1.png,0,30,30,22,,,None,None,1,5.21268675868,None,None,None,None,None,None,5,1.1533807747,Joachim Loew,"['lshift', 'j', 'o', 'a', 'c', 'h', 'i', 'm', 'space', 'lshift', 'l', 'o', 'e', 'w', 'return']","[0.6351915318955434, 0.8692211309953564, 1.5207885309246194, 1.6874149930445128, 1.888273595362989, 2.022050483223211, 2.1388391321961535, 2.372742022818784, 2.556521605238231, 2.8067657195497304, 2.940858255875355, 3.157991038662658, 3.2915045653535344, 3.4085925029630744, 3.6424270672396233]",2017_Feb_01_1709,59.8946739443,famFaceFilter,001,8,
59,./img/smoo15_JoshRadnor(Ted)1_2.png,0,31,31,58,,,None,None,1,2.05530873243,None,None,None,None,None,None,1,0.551499779302,Ted Mosby,"['lshift', 'r', 'backspace', 'lshift', 't', 'e', 'd', 'space', 'lshift', 'm', 'o', 's', 'b', 'y', 'return']","[1.0027936813839915, 1.5208562157076813, 2.2557429415355728, 2.456247401672954, 2.6567749580408417, 2.823824209466693, 3.0743608760130883, 3.2576984222705505, 3.3583540343970526, 3.5086302909603546, 3.725850326169166, 4.293957256577414, 4.76183874212802, 4.8787444761510415, 5.095719755487153]",2017_Feb_01_1709,59.8946739443,famFaceFilter,001,8,
20,./img/smoo15_NicoleKidman5_1.png,0,32,32,19,,,None,None,1,1.35390159467,None,None,None,None,None,None,1,0.200713609323,Nicole Kidman,"['lshift', 'n', 'i', 'c', 'o', 'l', 'e', 'space', 'lshift', 'k', 'i', 'd', 'm', 'a', 'n', 'return']","[0.585218349184288, 1.0528839491471444, 1.320469161400979, 1.6711436996047269, 1.804748007309172, 1.9886526943028002, 2.0886872744904394, 2.188975592418501, 2.3227454230964213, 2.406352168734884, 2.6066760291942046, 2.7069297027774155, 2.8404531736778154, 2.940725773338272, 3.0744779610649857, 4.511239202513025]",2017_Feb_01_1709,59.8946739443,famFaceFilter,001,8,
39,./img/smoo15_BarackObama2_1.png,0,33,33,38,,,None,None,1,1.1029254582,None,None,None,None,None,None,4,1.37025019632,Barack Obama,"['lshift', 'b', 'a', 'r', 'a', 'c', 'k', 'space', 'lshift', 'o', 'b', 'a', 'm', 'a', 'return']","[0.7855723630527791, 1.2199312758875749, 1.7378940473317925, 1.9383786190501269, 2.0552882024458086, 2.539842919979492, 2.773727526086077, 3.208053719263262, 3.4417692738043115, 3.775956953761124, 3.9431951451733767, 4.561299958426389, 4.711554081104623, 4.845249169818999, 5.31296128302165]",2017_Feb_01_1709,59.8946739443,famFaceFilter,001,8,
36,./img/smoo15_BastianSchweinsteiger6_2.png,0,34,34,35,,,None,None,1,1.37022774165,None,None,None,None,None,None,5,1.85466377023,Bastian Schweinsteiger,"['lshift', 'b', 'a', 's', 't', 'i', 'a', 'n', 'space', 'lshift', 's', 'h', 'c', 'w', 'e', 'i', 'n', 's', 'backspace', 'backspace', 'backspace', 'backspace', 'backspace', 'backspace', 'backspace', 'c', 'h', 'w', 'e', 'i', 'n', 's', 't', 'e', 'i', 'g', 'e', 'r', 'return']","[0.4680591982014448, 0.6353657159579598, 0.7687028131203988, 1.002831212757883, 1.169611008175707, 1.336936772790068, 1.654205823329903, 1.7714413201811112, 1.9383305019073305, 2.1889030959209776, 2.289157090286608, 2.439774978573041, 2.6069041044574988, 2.7068854350054607, 2.8070595549106656, 2.990613628315259, 3.141123092636917, 3.5255960751819657, 3.6925789249471563, 3.8429219039517193, 3.976579782074623, 4.14367618830147, 4.2772590036802285, 4.728229237773121, 4.895443691393666, 5.346488667450103, 5.613782931373862, 5.7140064515479025, 5.964599896324216, 6.181788494999637, 6.382108185303878, 6.499281129867086, 6.632933554716146, 6.816544085570058, 6.950360108707173, 7.117399415921682, 7.217621011410301, 7.418175192597118]",2017_Feb_01_1709,59.8946739443,famFaceFilter,001,8,
6,./img/smoo15_AlysonHannigan(Lily)1_1.png,0,35,35,5,,,None,None,1,2.05514385101,None,None,None,None,None,None,1,0.20077904864,Lilly,"['lshift', 'l', 'i', 'l', 'l', 'y', 'return']","[0.5850018220371567, 0.6520055867222254, 0.8524689868972928, 1.0696460374583694, 1.2031569979008054, 1.3870623264574533, 1.5874567587270576]",2017_Feb_01_1709,59.8946739443,famFaceFilter,001,8,
32,./img/smoo15_TomCruise1_1.png,0,36,36,31,,,None,None,1,2.20557825259,None,None,None,None,None,None,1,0.167414620939,Tom Cruise,"['lshift', 't', 'o', 'm', 'space', 'lshift', 'c', 'r', 'u', 'i', 's', 'e', 'return']","[0.3512837012476666, 0.6017966300041735, 0.8522794053496909, 1.0361475233148667, 1.2363000867389928, 1.4036357955628773, 1.5873842622295342, 1.8380896595608647, 2.1054188886100746, 2.3059826932258147, 2.3891307220910676, 2.4729623351831833, 2.706870679079657]",2017_Feb_01_1709,59.8946739443,famFaceFilter,001,8,
18,./img/smoo15_HughLaurie(DrHouse)4_1.png,0,37,37,17,,,None,None,1,2.89061593794,None,None,None,None,None,None,1,0.134033191847,Dr House,"['lshift', 'd', 'r', 'space', 'lshift', 'h', 'o', 'u', 's', 'e', 'return']","[0.46818847292888677, 0.7520613384531316, 1.019330581460963, 1.2867486668346828, 1.503859636517518, 1.6041954300271755, 1.8380797153531603, 2.038499168536873, 2.205481376740863, 2.339229715094916, 2.5560968912486715]",2017_Feb_01_1709,59.8946739443,famFaceFilter,001,8,
10,./img/smoo15_KatjaBurkard5_3.png,0,38,38,9,,,None,None,1,2.62351029322,None,None,None,None,None,None,3,0.451389494809,,['return'],[0.6853854119090101],2017_Feb_01_1709,59.8946739443,famFaceFilter,001,8,
14,./img/smoo15_BritneySpears7_1.png,0,39,39,13,,,None,None,1,1.65460327094,None,None,None,None,None,None,2,1.52065957698,Britney Spears,"['lshift', 'b', 'r', 'i', 't', 'e', 'n', 'y', 'space', 'backspace', 'backspace', 'backspace', 'backspace', 'n', 'e', 'y', 'space', 'lshift', 's', 'p', 'e', 'a', 'r', 's', 'return']","[0.6853812417557492, 0.8524497400394466, 1.0697169300492533, 1.2032952544941509, 1.3537713575969974, 1.5541038791398023, 1.7212131166052131, 1.9049343168899213, 2.1054041326860897, 2.5732628427867894, 2.7235795177512045, 2.873752162064193, 3.040951859760753, 3.558790809753191, 3.759347236407848, 4.394358168623512, 4.5776376535268355, 4.7951342019223375, 4.97850414705681, 5.1293985485299345, 5.713674764034295, 5.914227982877492, 6.131698227236484, 6.28213968599448, 7.134094781791646]",2017_Feb_01_1709,59.8946739443,famFaceFilter,001,8,
5,./img/smoo15_BarackObama1_3.png,0,40,40,4,,,None,None,1,1.92182471758,None,None,None,None,None,None,4,1.58750295118,Barack Obama,"['lshift', 'b', 'a', 'r', 'a', 'c', 'k', 'space', 'lshift', 'o', 'b', 'm', 'backspace', 'a', 'm', 'a', 'return']","[0.9360558441148896, 1.2536533743586915, 1.8214831500172295, 2.005258883065835, 2.1220443242291367, 2.4063399790593394, 2.539931134742801, 2.773647972408071, 3.0243386138154165, 3.2248761143928277, 3.4253876317125105, 3.9935048271108826, 4.36076919424886, 4.494598048624539, 4.628210375853087, 4.761811796526672, 4.979144105072919]",2017_Feb_01_1709,59.8946739443,famFaceFilter,001,8,
50,./img/smoo15_OmarEpps(DrEricForeman)2_2.png,0,41,41,49,,,None,None,2,2.67365765999,None,None,None,None,None,None,2,1.28679485929,,['return'],[1.1030653187026473],2017_Feb_01_1709,59.8946739443,famFaceFilter,001,8,
53,./img/smoo15_GuentherJauch4_1.png,0,42,42,52,,,None,None,1,1.13651090399,None,None,None,None,None,None,3,1.06961043077,G端nther Jauch,"['lshift', 'g', u'\xfc', 'n', 't', 'h', 'e', 'r', 'space', 'lshift', 'j', 'a', 'u', 'c', 'h', 'return']","[1.5708107931259292, 1.7211656410236174, 2.105442626401782, 2.3394112771202344, 2.5898809004447685, 3.191199566817886, 3.341699407710621, 3.4586022547064204, 3.6424588245572522, 3.876282803061258, 4.0598635012866, 4.2939649553227355, 4.861952875993666, 5.012328253875239, 5.496783529310051, 6.38220666505913]",2017_Feb_01_1709,59.8946739443,famFaceFilter,001,8,
25,./img/smoo15_JasonSegel(Marshall)6_1.png,0,43,43,24,,,None,None,1,5.36329277807,None,None,None,None,None,None,1,2.59007080277,,['return'],[1.8047964452343876],2017_Feb_01_1709,59.8946739443,famFaceFilter,001,8,
62,./img/smoo15_RobertSeanLeonard(Wilson)1_1.png,0,44,44,61,,,None,None,2,3.692594964,None,None,None,None,None,None,1,5.07890666301,,['return'],[0.6687054435242317],2017_Feb_01_1709,59.8946739443,famFaceFilter,001,8,
63,./img/smoo15_RobertSeanLeonard(Wilson)8_1.png,0,45,45,62,,,None,None,2,2.05533631959,None,None,None,None,None,None,1,2.84065366178,,['return'],[0.9193437976355199],2017_Feb_01_1709,59.8946739443,famFaceFilter,001,8,
47,./img/smoo15_BarackObama4_1.png,0,46,46,46,,,None,None,1,0.969358681874,None,None,None,None,None,None,4,1.67092685168,Barack Obama,"['lshift', 'b', 'a', 'r', 'a', 'c', 'k', 'space', 'lshift', 'o', 'b', 'a', 'm', 'a', 'return']","[0.6686826680761442, 1.7213266730650503, 2.2392560832904564, 2.4396607805501844, 2.5231430631756666, 2.790411343841697, 2.8741579499783256, 3.0908146938218124, 3.2078776105154247, 3.3586048851102532, 3.5924420156334236, 3.742844659895127, 3.8430502163355413, 4.026825628603547, 4.711693300041588]",2017_Feb_01_1709,59.8946739443,famFaceFilter,001,8,
22,./img/smoo15_WillSmith1_1.png,0,47,47,21,,,None,None,1,1.62094276241,None,None,None,None,None,None,1,0.217718528822,Will Smith,"['lshift', 'w', 'i', 'l', 'l', 'space', 'lshift', 's', 'd', 'm', 'backspace', 'backspace', 'm', 'i', 't', 'h', 'return']","[0.4013155868760805, 0.5848683771564538, 0.8023091096656572, 1.0026656897825887, 1.1532595194967143, 1.3537367132521467, 1.420437981492796, 1.5710160929393169, 1.6543694216197764, 2.072042271231112, 2.2222758639272797, 2.4225458331839036, 2.639952883691876, 2.790334035629712, 2.8902534554526937, 3.2582716578472173]",2017_Feb_01_1709,59.8946739443,famFaceFilter,001,8,
61,./img/smoo15_OmarEpps(DrEricForeman)3_1.png,0,48,48,60,,,None,None,1,2.94087846508,None,None,None,None,None,None,1,0.384476190353,,['return'],[0.6018912603867648],2017_Feb_01_1709,59.8946739443,famFaceFilter,001,8,
12,./img/smoo15_MariskaHargitay(Liv)8_8.png,0,49,49,11,,,None,None,2,12.2464707679,None,None,None,None,None,None,3,0.518230623547,,['return'],[0.7688888660777593],2017_Feb_01_1709,59.8946739443,famFaceFilter,001,8,
67,./img/smoo15_GeorgeClooney4_2.png,0,50,50,66,,,None,None,1,1.48724735291,None,None,None,None,None,None,1,0.284363660392,George Clooney,"['lshift', 'g', 'e', 'o', 'r', 'g', 'e', 'space', 'lshift', 'c', 'l', 'o', 'o', 'n', 'e', 'y', 'return']","[0.41766354696483177, 0.6351950604876038, 0.8022231403683691, 0.9359692332564009, 1.052704311810885, 1.1697123749599996, 1.5541805457905866, 1.7546561356430175, 2.071942829134059, 2.1719796547895385, 2.439575452815916, 2.6566328520766547, 2.8070650081863278, 3.007569789106128, 3.0911595333545847, 3.324993456069933, 3.8261396064408473]",2017_Feb_01_1709,59.8946739443,famFaceFilter,001,8,
4,./img/smoo15_UrsulavonderLeyen1_1.png,0,51,51,3,,,None,None,1,1.53754099581,None,None,None,None,None,None,4,1.53762247417,Ursula von der Leyen,"['lshift', 'u', 'r', 's', 'u', 'l', 'a', 'space', 'v', 'o', 'n', 'd', 'e', 'backspace', 'backspace', 'space', 'd', 'e', 'r', 'space', 'lshift', 'l', 'e', 'y', 'e', 'n', 'return']","[0.3679380071553169, 1.0696110723329184, 1.2867977463210991, 1.5039128861571953, 1.6874307113121176, 1.8548809389394592, 2.038574231281018, 2.2056331061357923, 2.8572056385601172, 2.974255403234565, 3.1246391214190226, 3.358434871201098, 3.4921180910205294, 4.110232206921864, 4.243981507619537, 4.577935979819813, 4.711400747804873, 4.795117521312932, 4.962377846610252, 5.0959484723134665, 5.296263350903246, 5.413324022130837, 5.580313287517129, 5.797552890364386, 6.014722242181961, 6.1981823267651635, 6.532718695627409]",2017_Feb_01_1709,59.8946739443,famFaceFilter,001,8,
30,./img/smoo15_KatjaBurkard4_1.png,0,52,52,29,,,None,None,1,4.84524467889,None,None,None,None,None,None,3,1.05288074134,,['return'],[0.7021231208655081],2017_Feb_01_1709,59.8946739443,famFaceFilter,001,8,
58,./img/smoo15_EmilyDeschanel3_1.png,0,53,53,57,,,None,None,1,2.87392795003,None,None,None,None,None,None,1,0.351115932805,,['return'],[0.3847090773306263],2017_Feb_01_1709,59.8946739443,famFaceFilter,001,8,
40,./img/smoo15_NeilPatrickHarris(Barney)2_2.png,0,54,54,39,,,None,None,1,1.98863440979,None,None,None,None,None,None,1,0.284448667348,Barney Stinson,"['lshift', 'b', 'a', 'r', 'n', 'e', 'y', 'space', 'lshift', 's', 't', 'i', 'n', 'd', 'backspace', 's', 'o', 'n', 'return']","[0.43467488208079885, 0.6345775571371632, 0.8023360552670056, 0.9360311439813813, 1.069719817078294, 1.1697951364476467, 1.2867942177308578, 1.503943360346966, 1.5873371074285387, 1.6877158855859307, 1.9716513033981755, 2.1221139336994383, 2.28922285038243, 2.4060313877762383, 2.8739372526779334, 3.0910238430078607, 3.9432275440503872, 4.160274999101603, 4.444373373640701]",2017_Feb_01_1709,59.8946739443,famFaceFilter,001,8,
41,./img/smoo15_AngelaMerkel3_1.png,0,55,55,40,,,None,None,1,1.21965957441,None,None,None,None,None,None,4,0.902528138906,Angela Merkel,"['lshift', 'a', 'n', 'g', 'e', 'l', 'a', 'space', 'lshift', 'm', 'e', 'r', 'k', 'e', 'l', 'return']","[0.5514824571309873, 0.9357090798985155, 1.1197594014483911, 1.253386805381524, 1.3198539035201975, 1.4203401432987448, 1.5875860334544996, 1.7045171091740485, 1.8547891955840896, 1.9551763140480034, 2.4228342152673576, 2.556510698686907, 2.7235211356164655, 2.8238546836582827, 2.957303412596957, 3.2747639693698147]",2017_Feb_01_1709,59.8946739443,famFaceFilter,001,8,
37,./img/smoo15_Ice-T(OdafinFinTutuola)5_1.png,0,56,56,36,,,None,None,2,2.77373971576,None,None,None,None,None,None,2,1.33685272818,,['return'],[0.46821990946227743],2017_Feb_01_1709,59.8946739443,famFaceFilter,001,8,
16,./img/smoo15_WillSmith4_1.png,0,57,57,15,,,None,None,1,0.969789490702,None,None,None,None,None,None,1,0.334524179185,Will Smith,"['lshift', 'w', 'i', 'l', 'l', 'space', 'lshift', 's', 'm', 'i', 't', 'h', 'return']","[0.36794698902122036, 0.5349667285972828, 0.7688888660777593, 0.9359390798454115, 1.0861316125774465, 1.3533784009196097, 1.5372859749422787, 1.6375659525656374, 1.754528464818577, 1.9550829667859944, 2.071861029988213, 2.172251677042368, 2.4728895179032406]",2017_Feb_01_1709,59.8946739443,famFaceFilter,001,8,
65,./img/smoo15_UrsulavonderLeyen4_1.png,0,58,58,64,,,None,None,1,1.53745438495,None,None,None,None,None,None,4,1.98841563717,Ursula von der Leyen,"['lshift', 'u', 'r', 's', 'u', 'l', 'a', 'space', 'v', 'o', 'n', 'space', 'd', 'e', 'r', 'space', 'lshift', 'l', 'e', 'y', 'e', 'n', 'return']","[0.40134766497067176, 0.6352050046953082, 0.8358769124952232, 1.0195637892175, 1.1365561341008288, 1.3535702279332327, 1.4707139814290713, 1.604413240296708, 1.8381775535435736, 1.9050433824158972, 2.071557891980774, 2.2392817457657657, 2.3227210437435133, 2.4063091840871493, 2.5566630696412176, 2.6736149961234332, 2.823933274992669, 2.9408451038543717, 3.0745126054080174, 3.308320544865637, 3.6591625307301, 3.8263785882554657, 4.143689981881835]",2017_Feb_01_1709,59.8946739443,famFaceFilter,001,8,
43,./img/smoo15_JoachimLoew1_1.png,0,59,59,42,,,None,None,1,1.06977755765,None,None,None,None,None,None,5,0.835675782833,Joachim Loew,"['lshift', 'j', 'o', 'a', 'c', 'h', 'i', 'm', 'space', 'lshift', 'l', 'o', 'e', 'w', 'return']","[0.30122968173418485, 0.5850833004005835, 1.103078791502412, 1.253428186124438, 1.454085017219768, 1.5541298623975308, 1.7045437339929776, 1.905017719940588, 2.0887934529891936, 2.189013765353593, 2.28925460769824, 2.673370881813753, 2.8907480996931554, 3.007678854632104, 3.5757148924494686]",2017_Feb_01_1709,59.8946739443,famFaceFilter,001,8,
26,./img/smoo15_TomCruise4_1.png,0,60,60,25,,,None,None,1,1.26992595092,None,None,None,None,None,None,1,0.200867263406,Tom Cruise,"['lshift', 't', 'o', 'm', 'space', 'lshift', 'c', 'r', 'u', 'i', 's', 'e', 'return']","[0.35108962876620353, 0.5516835867929331, 0.685421339376262, 0.8689834323049581, 1.0360448734063539, 1.1196188993872056, 1.2033119351035566, 1.4037204817359452, 1.6042194885976642, 1.8046896251744329, 1.9047873992094537, 2.0551050365174888, 2.4060262552793574]",2017_Feb_01_1709,59.8946739443,famFaceFilter,001,8,
7,./img/smoo15_LisaEdelstein(DrLisaCuddy)2_2.png,0,61,61,6,,,None,None,2,2.74043944425,None,None,None,None,None,None,1,0.568056567798,,['return'],[0.284452837500794],2017_Feb_01_1709,59.8946739443,famFaceFilter,001,8,
15,./img/smoo15_LisaEdelstein(DrLisaCuddy)1_1.png,0,62,62,14,,,None,None,2,2.70670258986,None,None,None,None,None,None,1,1.50391416928,,['return'],[0.6850899726432544],2017_Feb_01_1709,59.8946739443,famFaceFilter,001,8,
55,./img/smoo15_MariskaHargitay(Liv)4_4.png,0,63,63,54,,,None,None,2,4.19357302514,None,None,None,None,None,None,3,2.65678458147,,['return'],[0.5015480889142054],2017_Feb_01_1709,59.8946739443,famFaceFilter,001,8,
24,./img/smoo15_BastianSchweinsteiger1_1.png,0,64,64,23,,,None,None,1,1.88830150331,None,None,None,None,None,None,5,1.88797976,Bastian Schweinsteiger,"['lshift', 'b', 'a', 's', 't', 'i', 'a', 'n', 'space', 'lshift', 's', 'c', 'h', 'w', 'e', 'i', 'n', 's', 't', 'e', 'i', 'g', 'e', 'r', 'return']","[0.4349366393453238, 0.6522195476209163, 0.7858023630014941, 1.0698234293286077, 1.2370426946617954, 1.3539471455624152, 1.5543691649945686, 1.6879805298776773, 1.871739261536277, 2.0555448272134527, 2.239092485000583, 2.4063970780698583, 2.557241437714765, 2.673626544239596, 2.7405036004456633, 2.857462904888962, 3.024641431042255, 3.074596970800485, 3.2083924639573524, 3.3085422045096493, 3.442280598654179, 3.5758451295187115, 3.7427115357968432, 3.82639045715041, 3.9933989693945477]",2017_Feb_01_1709,59.8946739443,famFaceFilter,001,8,
49,./img/smoo15_TomCruise5_1.png,0,65,65,48,,,None,None,1,1.48725890103,None,None,None,None,None,None,1,0.284560940683,Tom Cruise,"['lshift', 't', 'o', 'm', 'space', 'lshift', 'c', 'r', 'u', 'i', 's', 'e', 'return']","[0.5853120172250783, 0.9194964893740689, 1.070035786324297, 1.2699827291544352, 1.4207138531182864, 1.470754079051403, 1.5042788972332346, 1.7381554838157172, 1.9553100797074876, 2.1222977411889588, 2.2394671571619256, 2.372944756387369, 3.3586847595688596]",2017_Feb_01_1709,59.8946739443,famFaceFilter,001,8,
17,./img/smoo15_GeorgeClooney11_1.png,0,66,66,16,,,None,None,1,1.55410837007,None,None,None,None,None,None,1,0.150714443354,George Clooney,"['lshift', 'g', 'e', 'o', 'r', 'g', 'e', 'space', 'lshift', 'c', 'l', 'o', 'o', 'n', 'e', 'y', 'return']","[0.6019547750183847, 0.8023957205259649, 1.0027170147368452, 1.1866178523596318, 1.3036740326533618, 1.437328382186024, 1.571085060846599, 1.771340274179238, 1.9718149016880488, 2.138561015106461, 2.3560322218072542, 2.5565135857159476, 2.707032994247129, 2.8904978905447933, 3.0076952144627285, 3.2582941125147045, 3.6421313071950863]",2017_Feb_01_1709,59.8946739443,famFaceFilter,001,8,
68,./img/smoo15_AlysonHannigan(Lily)8_3.png,0,67,67,67,,,None,None,1,1.87166676504,None,None,None,None,None,None,1,0.184196597669,Lilly,"['lshift', 'l', 'i', 'l', 'l', 'y', 'return']","[0.3846208625654981, 0.5683709331387945, 0.7852570353679766, 0.9861765860678133, 1.1364445023264125, 1.3034286352176423, 1.7044535945424286]",2017_Feb_01_1709,59.8946739443,famFaceFilter,001,8,
38,./img/smoo15_AlysonHannigan(Lily)5_4.png,0,68,68,37,,,None,None,1,2.63990701202,None,None,None,None,None,None,1,0.802372303517,Lilly,"['lshift', 'l', 'i', 'l', 'l', 'y', 'return']","[0.38475430744801997, 0.5183756165424711, 0.718805655496908, 0.9025752937086509, 1.052947142998164, 1.3536764064319868, 1.8214299003793712]",2017_Feb_01_1709,59.8946739443,famFaceFilter,001,8,
9,./img/smoo15_EmilyDeschanel6_12.png,0,69,69,8,,,None,None,1,3.99299093601,None,None,None,None,None,None,1,0.334553691033,,['return'],[0.6521653356394381],2017_Feb_01_1709,59.8946739443,famFaceFilter,001,8,
11,./img/smoo15_LeonardoDiCaprio3_1.png,0,70,70,10,,,None,None,1,0.935988480114,None,None,None,None,None,None,1,0.317726163408,Leonardo diCaprio,"['lshift', 'l', 'e', 'o', 'n', 'a', 'r', 'd', 'o', 'space', 'd', 'i', 'lshift', 'c', 'a', 'p', 'r', 'i', 'o', 'return']","[0.36794859292785986, 0.551698342718737, 0.8356908595396817, 1.102895304793492, 1.5874554756028374, 2.055208327987202, 2.2558000405479106, 2.43958732171086, 2.6567797697571223, 3.0075181433712714, 3.3751956763862836, 3.5589528041400627, 4.260528351904213, 4.3605937270640425, 4.611576920708103, 5.764105380396359, 5.881015926133841, 6.0314779148739035, 6.198497333669366, 6.51570447348422]",2017_Feb_01_1709,59.8946739443,famFaceFilter,001,8,
69,./img/smoo15_BritneySpears5_1.png,0,71,71,68,,,None,None,1,1.43711313816,None,None,None,None,None,None,2,0.751925327324,Britney Spears,"['lshift', 'b', 'r', 'i', 't', 'n', 'e', 'y', 'space', 'lshift', 's', 'p', 'e', 'a', 'r', 's', 'return']","[0.6185750781423849, 1.1198559565182222, 1.303425106627401, 1.4205579535719153, 1.6376368451583403, 1.8047675749476184, 1.8882331769636949, 2.105530520384491, 2.3059826932258147, 2.489678551815814, 2.6567961295859277, 2.790579753846032, 3.007710611947914, 3.141293748107273, 3.274991082289489, 3.4083339535100095, 3.7927350811187353]",2017_Feb_01_1709,59.8946739443,famFaceFilter,001,8,
36,./img/edges5_AngelaMerkel1_1.png,0,0,0,35,,,None,None,1,1.90500681339,None,None,None,None,None,None,4,1.53730746727,Angela Merkel,"['lshift', 's', 'backspace', 'lshift', 'a', 'n', 'g', 'e', 'l', 'a', 'lshift', 'space', 'lshift', 'm', 'e', 'r', 'k', 'e', 'l', 'return']","[0.3513783316320769, 0.5351973701090174, 1.1365131494530942, 1.2534791902980942, 1.3203533594751207, 1.504101184580577, 1.6377401366280537, 1.771325518253434, 2.5732647674722102, 2.85730379753295, 3.207862213030239, 3.2749015844019596, 3.8427993656241597, 3.993317491031121, 4.62822128240623, 4.728219614344198, 4.912149963816773, 5.029022657401583, 5.145837610412855, 5.446927752429474]",2017_Feb_01_1709,59.8946739443,famFaceFilter,001,8,
10,./img/edges5_GuentherJauch4_1.png,0,1,1,9,,,None,None,1,1.30348477189,None,None,None,None,None,None,3,0.818812006959,G端nther Jauch,"['lshift', 'g', u'\xfc', 'n', 't', 'h', 'e', 'r', 'space', 'lshift', 'j', 'a', 'u', 'h', 'backspace', 'c', 'h', 'return']","[0.33463164080785646, 0.501761729035934, 0.702322325842033, 0.90275461026431, 1.0531370453263662, 1.136528867720699, 1.3037394719685835, 1.4705279284735298, 1.637710624780084, 1.8215697608775372, 1.9382859133529564, 2.0888964236783067, 2.356234313811001, 2.7236921118692408, 3.358539766573813, 3.4922412709092896, 3.6258378798702324, 4.193882578771081]",2017_Feb_01_1709,59.8946739443,famFaceFilter,001,8,
62,./img/edges5_AlysonHannigan(Lily)5_4.png,0,2,2,61,,,None,None,1,1.98864146697,None,None,None,None,None,None,1,0.434646653357,Lilly,"['lshift', 'l', 'i', 'l', 'l', 'y', 'return']","[0.33471825166634517, 0.48474879001514637, 0.6854008093941957, 0.8858561900469795, 1.0528954972614883, 1.186682650113653, 1.55419049000011]",2017_Feb_01_1709,59.8946739443,famFaceFilter,001,8,
15,./img/edges5_LisaEdelstein(DrLisaCuddy)6_3.png,0,3,3,14,,,None,None,2,3.42517976565,None,None,None,None,None,None,1,2.90739117827,,['return'],[0.30120401925705664],2017_Feb_01_1709,59.8946739443,famFaceFilter,001,8,
9,./img/edges5_RobertSeanLeonard(Wilson)8_1.png,0,4,4,8,,,None,None,2,15.3205050889,None,None,None,None,None,None,1,2.58977728819,,['return'],[1.0028995391021454],2017_Feb_01_1709,59.8946739443,famFaceFilter,001,8,
32,./img/edges5_Ice-T(OdafinFinTutuola)7_1.png,0,5,5,31,,,None,None,2,2.82374882594,None,None,None,None,None,None,2,0.768848447677,,['return'],[0.9863568649689114],2017_Feb_01_1709,59.8946739443,famFaceFilter,001,8,
49,./img/edges5_RobertSeanLeonard(Wilson)2_6.png,0,6,6,48,,,None,None,2,10.4418590925,None,None,None,None,None,None,1,0.568174615189,,['return'],[1.453653566826688],2017_Feb_01_1709,59.8946739443,famFaceFilter,001,8,
64,./img/edges5_EmilyDeschanel3_1.png,0,7,7,63,,,None,None,1,4.27730904551,None,None,None,None,None,None,1,0.501712649548,,['return'],[0.36787513408671657],2017_Feb_01_1709,59.8946739443,famFaceFilter,001,8,
60,./img/edges5_TomCruise1_1.png,0,8,8,59,,,None,None,1,1.8215187567,None,None,None,None,None,None,1,0.301085971863,Tom Cruise,"['lshift', 't', 'o', 'm', 'space', 'lshift', 'c', 'r', 'u', 'i', 's', 'e', 'return']","[0.35119131633109646, 0.5852080841923453, 0.7021529534940782, 0.8862703182658151, 1.0864453363574285, 1.1116632107859914, 1.2033077649521147, 1.4201768657894718, 1.6707606871386815, 1.8547997813548136, 1.9551605957803986, 2.088637874223423, 2.339414164147456]",2017_Feb_01_1709,59.8946739443,famFaceFilter,001,8,
63,./img/edges5_LisaEdelstein(DrLisaCuddy)2_2.png,0,9,9,62,,,None,None,1,2.84067451254,None,None,None,None,None,None,3,0.501334128016,,['return'],[0.3177973767815274],2017_Feb_01_1709,59.8946739443,famFaceFilter,001,8,
37,./img/edges5_JasonSegel(Marshall)9_1.png,0,10,10,36,,,None,None,1,1.37023768586,None,None,None,None,None,None,1,0.234346209909,,['return'],[1.5873063124563487],2017_Feb_01_1709,59.8946739443,famFaceFilter,001,8,
27,./img/edges5_OmarEpps(DrEricForeman)2_2.png,0,11,11,26,,,None,None,2,2.92402912435,None,None,None,None,None,None,2,0.718835808908,,['return'],[0.4348189127322257],2017_Feb_01_1709,59.8946739443,famFaceFilter,001,8,
46,./img/edges5_TomCruise5_1.png,0,12,12,45,,,None,None,1,1.0362421537,None,None,None,None,None,None,1,0.267811042051,Tom Cruise,"['lshift', 't', 'o', 'm', 'space', 'lshift', 'c', 'r', 'u', 'i', 's', 'e', 'return']","[0.6183521353741526, 0.7854751664199284, 0.9359560812372365, 1.1030486380914226, 1.2867505915201036, 1.470498416623741, 1.6543841775419423, 1.921340017552211, 2.2056600517353218, 2.389327040038552, 2.5063828995516815, 2.673479947339729, 2.890574877974359]",2017_Feb_01_1709,59.8946739443,famFaceFilter,001,8,
68,./img/edges5_MariskaHargitay(Liv)4_4.png,0,13,13,67,,,None,None,1,3.1915014217,None,None,None,None,None,None,1,0.652025475141,,['return'],[0.6017225296018296],2017_Feb_01_1709,59.8946739443,famFaceFilter,001,8,
21,./img/edges5_JoshRadnor(Ted)3_1.png,0,14,14,20,,,None,None,1,1.50394336035,None,None,None,None,None,None,1,0.601813952177,Ted Mosby,"['lshift', 't', 'e', 'd', 'space', 'lshift', 'm', 'o', 's', 'b', 'y', 'return']","[0.9525674024953332, 1.153030161107381, 1.2869090573130961, 1.4873541729739372, 1.7044831063903985, 1.7881549705634825, 1.9216665725707571, 2.10537173380726, 2.422853782903985, 2.8739481592292577, 3.0576295826758724, 3.358083936827825]",2017_Feb_01_1709,59.8946739443,famFaceFilter,001,8,
66,./img/edges5_BritneySpears1_1.png,0,15,15,65,,,None,None,1,1.68784066938,None,None,None,None,None,None,2,0.41807254269,Britney Spears,"['lshift', 'b', 'r', 'i', 'n', 'backspace', 't', 'n', 'e', 'y', 'space', 'lshift', 's', 'p', 'e', 'a', 'r', 's', 'return']","[0.7687788382099825, 1.2033035948006727, 1.3872201506910642, 1.537499294283407, 1.8048102388165717, 2.3560703947405273, 2.5733613225420413, 2.7570738617414463, 2.8739584242230194, 3.1078917890354205, 3.2917717758955405, 3.4417490646028455, 3.5922415275344974, 3.759495757993136, 3.892988433923165, 4.093617677854127, 4.260623303069224, 4.360841690748202, 4.644834528349747]",2017_Feb_01_1709,59.8946739443,famFaceFilter,001,8,
72,./img/edges5_EmilyDeschanel6_12.png,0,16,16,71,,,None,None,1,2.55654438069,None,None,None,None,None,None,1,0.668305108886,,['return'],[0.5516973803732981],2017_Feb_01_1709,59.8946739443,famFaceFilter,001,8,
23,./img/edges5_UrsulavonderLeyen1_1.png,0,17,17,22,,,None,None,1,1.28655106576,None,None,None,None,None,None,4,0.969296129586,Ursula von der Leyen,"['lshift', 'u', 'r', 's', 'u', 'l', 'a', 'space', 'v', 'o', 'n', 'space', 'd', 'e', 'r', 'space', 'lshift', 'l', 'e', 'y', 'e', 'n', 'return']","[0.45134522703665425, 0.7188524895173032, 0.919251733501369, 1.1198052731269854, 1.3035835724222125, 1.5206865225809452, 1.6376759804352332, 1.7880786246969365, 1.9885016064708907, 2.0886266468896793, 2.272623077238677, 2.4563138033336145, 2.481333114346853, 2.5731476824221318, 2.7403287748220464, 2.9240159723267425, 3.1077657221176196, 3.1912913101732556, 3.3752043374715868, 3.6090866981121508, 3.8093922740554262, 3.943099231666565, 4.2439372398475825]",2017_Feb_01_1709,59.8946739443,famFaceFilter,001,8,
53,./img/edges5_KatjaBurkard4_1.png,0,18,18,52,,,None,None,1,2.48964037888,None,None,None,None,None,None,3,0.518234793701,,['return'],[1.0530770592849876],2017_Feb_01_1709,59.8946739443,famFaceFilter,001,8,
47,./img/edges5_UrsulavonderLeyen5_1.png,0,19,19,46,,,None,None,1,1.38675822611,None,None,None,None,None,None,4,0.852431776306,Ursula von der Leyen,"['lshift', 'u', 'r', 's', 'u', 'l', 'a', 'space', 'v', 'o', 'n', 'space', 'd', 'e', 'r', 'space', 'lshift', 'l', 'e', 'y', 'e', 'n', 'return']","[0.6018222924813017, 0.802321620123621, 1.002787907327729, 1.136545869110705, 1.2701427988522482, 1.4704733957114513, 1.8046937953258748, 1.9550255469966942, 2.389340833620736, 2.4896747024431534, 2.6399904150657676, 2.823840248516717, 2.923834410303243, 3.024237567813543, 3.174551676529518, 3.291696071588376, 3.4419598176937143, 3.5255065772926173, 3.6755570040604653, 3.893037513409581, 4.059769191684609, 4.1436399400536175, 4.444472815739573]",2017_Feb_01_1709,59.8946739443,famFaceFilter,001,8,
55,./img/edges5_JoachimLoew1_1.png,0,20,20,54,,,None,None,1,1.92188021269,None,None,None,None,None,None,5,0.701961126479,Joachim Loew,"['lshift', 'j', 'o', 'a', 'c', 'h', 'i', 'm', 'space', 'v', 'backspace', 'lshift', 'l', 'o', 'e', 'w', 'return']","[0.7187889748856833, 0.9694789747318282, 1.2202456412269385, 1.6043394606767833, 1.8047887464908854, 1.8884387975576828, 2.055412665458789, 2.23917396336401, 2.43979903714353, 2.556652804651094, 3.2249014560875366, 3.492143111934638, 3.6258420500198554, 3.809683543166102, 3.9266457346384414, 4.009936511030901, 4.343575013985173]",2017_Feb_01_1709,59.8946739443,famFaceFilter,001,8,
34,./img/edges5_KatjaBurkard1_1.png,0,21,21,33,,,None,None,1,9.40597076017,None,None,None,None,None,None,3,0.969311847854,,['return'],[0.3681089834062732],2017_Feb_01_1709,59.8946739443,famFaceFilter,001,8,
7,./img/edges5_AngelaMerkel3_1.png,0,22,22,6,,,None,None,1,0.886071113291,None,None,None,None,None,None,4,1.70424476614,Angela Merkel,"['lshift', 'a', 'n', 'g', 'e', 'l', 'a', 'space', 'lshift', 'e', 'backspace', 'lshift', 'lshift', 'm', 'e', 'r', 'k', 'e', 'l', 'return']","[0.48490372721789754, 0.6020375365060318, 0.7690466903113702, 0.8860043908498483, 0.9694815409802686, 1.069803540909561, 1.5540445346632623, 1.7545053685898893, 1.9714424749927275, 2.271904527888182, 2.7064270390128513, 2.8732110045839363, 3.4254713555437775, 3.6259087724611163, 3.826249634310443, 3.9097967146899464, 4.01021462812605, 4.160476128765367, 4.294054773990865, 4.5778955614187]",2017_Feb_01_1709,59.8946739443,famFaceFilter,001,8,
4,./img/edges5_LeonardoDiCaprio1_1.png,0,23,23,3,,,None,None,1,1.62106818777,None,None,None,None,None,None,1,0.150708669298,Leonardo diCaprio,"['lshift', 'l', 'e', 'o', 'n', 'a', 'r', 'd', 'o', 'space', 'd', 'i', 'space', 'backspace', 'lshift', 'c', 'a', 'p', 'r', 'i', 'o', 'return']","[0.5350206197999796, 0.7354375067370711, 0.9360542402118881, 1.052697896189784, 1.320338924331736, 1.537327676467612, 1.6878717851341207, 1.8716728598774353, 2.0553411313048855, 2.239133544962897, 2.5732747116817336, 3.1411984761616623, 3.375116443488878, 4.444289329028834, 4.628079497220824, 4.7284460857026716, 5.012424808943251, 5.914510911685284, 6.014691767990371, 6.181885370848249, 6.365537603227494, 6.649683453348189]",2017_Feb_01_1709,59.8946739443,famFaceFilter,001,8,
67,./img/edges5_LeonardoDiCaprio2_1.png,0,24,24,66,,,None,None,1,1.27034906101,None,None,None,None,None,None,1,0.534817565453,Leonardo diCaprio,"['lshift', 'l', 'e', 'o', 'n', 'a', 'r', 'd', 'o', 'space', 'd', 'i', 'lshift', 'c', 'a', 'p', 'r', 'i', 'p', 'backspace', 'o', 'return']","[0.5685820070102636, 0.7858427814026072, 0.9527951569780271, 1.220288625876492, 1.4207401571566152, 1.6377504016181774, 1.8383716260268557, 2.055513390680062, 2.1725137550874933, 2.3561053598641593, 2.9075762688808027, 3.091346548653746, 3.241651033940798, 3.3586456242919667, 3.5590637943514594, 4.21047112458109, 4.3110080477526935, 4.461018056119428, 4.695095451583256, 5.380086302910058, 5.647395322757802, 5.8980221287547465]",2017_Feb_01_1709,59.8946739443,famFaceFilter,001,8,
42,./img/edges5_JoachimLoew4_1.png,0,25,25,41,,,None,None,1,2.62339513285,None,None,None,None,None,None,5,0.952590819506,Joachim Loew,"['lshift', 'j', 'o', 'a', 'c', 'h', 'i', 'm', 'space', 'lshift', 'l', 'o', 'e', 'w', 'return']","[0.45149150315410225, 1.0695135549212864, 1.403698989412078, 1.5876036764075252, 1.7880151100671355, 1.8547295303251303, 2.005119984911289, 2.1721759727370227, 2.3726791497520026, 2.5394271878558357, 2.656543033408525, 2.856912765542802, 3.0742646417274955, 3.2080415295877174, 4.577935979819813]",2017_Feb_01_1709,59.8946739443,famFaceFilter,001,8,
51,./img/edges5_Ice-T(OdafinFinTutuola)6_1.png,0,26,26,50,,,None,None,2,3.24152657093,None,None,None,None,None,None,2,0.38464524192,,['return'],[0.33463099924665585],2017_Feb_01_1709,59.8946739443,famFaceFilter,001,8,
22,./img/edges5_JasonSegel(Marshall)6_1.png,0,27,27,21,,,None,None,1,1.72112778887,None,None,None,None,None,None,1,0.284376812413,,['return'],[0.4181844952436222],2017_Feb_01_1709,59.8946739443,famFaceFilter,001,8,
24,./img/edges5_JasonSegel(Marshall)7_1.png,0,28,28,23,,,None,None,1,1.63748094561,None,None,None,None,None,None,1,0.30088420064,,['return'],[0.5516582450982241],2017_Feb_01_1709,59.8946739443,famFaceFilter,001,8,
65,./img/edges5_LisaEdelstein(DrLisaCuddy)1_1.png,0,29,29,64,,,None,None,2,3.59219405195,None,None,None,None,None,None,1,0.819043610814,,['return'],[0.3846442795784242],2017_Feb_01_1709,59.8946739443,famFaceFilter,001,8,
3,./img/edges5_NicoleKidman5_1.png,0,30,30,2,,,None,None,1,1.38702639899,None,None,None,None,None,None,1,0.23432311368,Nicole Kidman,"['lshift', 'n', 'i', 'c', 'o', 'l', 'e', 'space', 'lshift', 'k', 'i', 'd', 'm', 'a', 'n', 'return']","[0.5014909899055056, 0.7686255049102328, 1.0025251877214032, 1.1531482085028983, 1.270190274435663, 1.437117308314555, 1.637760666608301, 1.7880096567914734, 1.921483085861837, 2.02186731729671, 2.2055920461716596, 2.3059137253203517, 2.4226853729014692, 2.5064781714972924, 2.6399605824353785, 2.9067374266705883]",2017_Feb_01_1709,59.8946739443,famFaceFilter,001,8,
52,./img/edges5_BarackObama4_1.png,0,31,31,51,,,None,None,1,1.17036452265,None,None,None,None,None,None,4,1.23649095141,Barack Obama,"['lshift', 'b', 'a', 'r', 'a', 'c', 'k', 'space', 'lshift', 'o', 'b', 'a', 'm', 'a', 'return']","[1.1029584986426926, 1.3871004993907263, 1.9550685316444287, 2.1223644636284007, 2.2223977606918197, 2.4562788382081635, 2.5567224141195766, 2.7236385414471442, 2.890558838926154, 3.057697267458934, 3.2415753296336334, 3.3584554011813452, 3.4754230459293467, 3.6089737832135143, 4.243611005609637]",2017_Feb_01_1709,59.8946739443,famFaceFilter,001,8,
48,./img/edges5_GeorgeClooney3_1.png,0,32,32,47,,,None,None,1,0.935917587522,None,None,None,None,None,None,1,0.200834222966,George Clooney,"['lshift', 'g', 'e', 'o', 'r', 'g', 'e', 'space', 'lshift', 'c', 'l', 'o', 'o', 'n', 'e', 'y', 'return']","[0.5183188383107336, 0.9694016665216623, 1.1030534498058842, 1.2869510796208488, 1.437113138161294, 1.5541337117683725, 1.7044330645621812, 1.9216338529131463, 2.556325287290747, 2.7568788269163633, 2.9574067040648515, 3.1579259201280365, 3.5253670375750517, 3.7258233805696364, 3.826103358191176, 4.026571890863124, 4.243758885631905]",2017_Feb_01_1709,59.8946739443,famFaceFilter,001,8,
12,./img/edges5_UrsulavonderLeyen4_1.png,0,33,33,11,,,None,None,1,3.34194961686,None,None,None,None,None,None,4,1.20299885289,Ursula von der Leyen,"['lshift', 'u', 'r', 's', 'u', 'l', 'a', 'space', 'v', 'o', 'n', 'space', 'd', 'e', 'r', 'space', 'lshift', 'l', 'e', 'y', 'e', 'n', 'return']","[0.6021132408131962, 0.8693382160472538, 1.1366311968467926, 1.3037407550928037, 1.4541199823452189, 1.6543546656957915, 1.8049305316762911, 1.9384928170729836, 2.138926705400081, 2.189006066610091, 2.355992765747942, 2.5399349841154617, 2.640196356442175, 2.706826411309521, 2.8908244455633394, 3.024459869018756, 3.2415881608740165, 3.341842476018428, 3.8932540405585314, 4.143687415635213, 4.327575742801855, 4.461198655801127, 4.928551173545202]",2017_Feb_01_1709,59.8946739443,famFaceFilter,001,8,
25,./img/edges5_JoachimLoew8_1.png,0,34,34,24,,,None,None,1,1.48744110462,None,None,None,None,None,None,5,0.451384362314,Joachim Loew,"['lshift', 'j', 'o', 'a', 'c', 'h', 'i', 'm', 'space', 'lshift', 'l', 'o', 'e', 'w', 'return']","[0.6186944086584845, 1.1198258031072328, 1.40373299219209, 1.6043461970766657, 1.7880702843904146, 1.8211293286185537, 1.988665204760764, 2.1720960982765973, 2.372887336594431, 2.840623508367571, 2.9241080364608933, 3.124670557952413, 3.241333140009374, 3.341732448148832, 3.759531685460388]",2017_Feb_01_1709,59.8946739443,famFaceFilter,001,8,
38,./img/edges5_GeorgeClooney11_1.png,0,35,35,37,,,None,None,1,0.902861751105,None,None,None,None,None,None,1,0.384349802656,George Clooney,"['lshift', 'g', 'e', 'o', 'r', 'g', 'e', 'space', 'lshift', 'c', 'l', 'o', 'o', 'n', 'e', 'y', 'return']","[0.5849469684908399, 0.9527258682901447, 1.1029985962613864, 1.303547003391941, 1.4203205756602983, 1.4872018020178075, 1.6710118586306635, 1.8214270133485115, 2.0218666757336905, 2.1554389053417253, 2.2224952781034517, 2.4226337271666125, 2.6065105062170915, 2.990731354926538, 3.107940868520018, 3.3249633026571246, 3.525401361137483]",2017_Feb_01_1709,59.8946739443,famFaceFilter,001,8,
41,./img/edges5_OmarEpps(DrEricForeman)3_1.png,0,36,36,40,,,None,None,2,1.92139679578,None,None,None,None,None,None,2,0.551779500302,,['return'],[1.3871575984030642],2017_Feb_01_1709,59.8946739443,famFaceFilter,001,8,
30,./img/edges5_MariskaHargitay(Liv)8_8.png,0,37,37,29,,,None,None,1,5.37981460144,None,None,None,None,None,None,3,0.702052869834,,['return'],[0.36794827214544057],2017_Feb_01_1709,59.8946739443,famFaceFilter,001,8,
20,./img/edges5_JoshRadnor(Ted)1_2.png,0,38,38,19,,,None,None,1,1.50393534082,None,None,None,None,None,None,1,0.234183573961,Ted Mosby,"['lshift', 't', 'e', 'd', 'space', 'lshift', 'm', 'o', 's', 'b', 'y', 'return']","[0.6684574798418907, 0.9527678905960784, 1.06961492170376, 1.3534650117780984, 1.5373482064496784, 1.6375896903573448, 1.7878232830516936, 1.9885163623948756, 2.238973475263265, 2.706815504754559, 3.074487584493909, 3.7092374010062485]",2017_Feb_01_1709,59.8946739443,famFaceFilter,001,8,
71,./img/edges5_HughLaurie(DrHouse)4_1.png,0,39,39,70,,,None,None,1,1.52067561603,None,None,None,None,None,None,1,0.45165061051,Dr House,"['lshift', 'd', 'r', 'space', 'lshift', 'h', 'o', 'u', 's', 'e', 'return']","[0.40152954777477134, 1.2534172795712948, 1.5375313723779982, 2.155654790927656, 2.5064740013440314, 2.6400911402852216, 2.807013362451471, 3.091298752289731, 3.2082163552095153, 3.3250255341645243, 3.6090600732914027]",2017_Feb_01_1709,59.8946739443,famFaceFilter,001,8,
5,./img/edges5_AlysonHannigan(Lily)1_1.png,0,40,40,4,,,None,None,1,1.88832844891,None,None,None,None,None,None,1,1.23664685096,Lilly,"['lshift', 'l', 'i', 'l', 'l', 'y', 'return']","[0.36812887182713894, 0.4681227128330647, 0.6853632780221233, 0.8689657893519325, 1.036304705985458, 1.2032140969131433, 1.453795672794513]",2017_Feb_01_1709,59.8946739443,famFaceFilter,001,8,
58,./img/edges5_HughLaurie(DrHouse)5_3.png,0,41,41,57,,,None,None,1,1.83824972926,None,None,None,None,None,None,1,0.26771705323,Dr House,"['lshift', 'd', 'r', 'space', 'lshift', 'h', 'o', 'u', 's', 'e', 'return']","[0.5182934966160246, 1.1366286306001712, 1.3537280521668436, 1.4872787894491921, 1.6543543449151912, 1.7547347269774036, 2.0052986599057476, 2.172182709136905, 2.289237606306415, 2.4228614816493064, 2.6234124550264823]",2017_Feb_01_1709,59.8946739443,famFaceFilter,001,8,
14,./img/edges5_AngelaMerkel4_1.png,0,42,42,13,,,None,None,1,2.17221222098,None,None,None,None,None,None,4,1.20322404112,Angela Merkel,"['lshift', 'a', 'n', 'g', 'e', 'l', 'a', 'space', 'lshift', 'm', 'e', 'r', 'k', 'e', 'l', 'return']","[0.43478362682799343, 0.8691929022734257, 1.0528829868053435, 1.1533278458409768, 1.2365390685554303, 1.3201397193552111, 1.7377163346809539, 1.9382105298282113, 2.1220305306487717, 2.2891596565332293, 2.472890159468079, 2.5732079892422917, 2.6901705014970503, 2.9072689607219218, 3.1243475315277465, 3.642428991926863]",2017_Feb_01_1709,59.8946739443,famFaceFilter,001,8,
31,./img/edges5_GeorgeClooney4_2.png,0,43,43,30,,,None,None,1,3.24146850958,None,None,None,None,None,None,1,0.23442672593,George Clooney,"['lshift', 'lshift', 'g', 'e', 'e', 'o', 'backspace', 'backspace', 'o', 'r', 'g', 'e', 'space', 'lshift', 'c', 'l', 'o', 'o', 'n', 'e', 'y', 'return']","[0.4013556844965933, 0.9526989226906153, 1.2027011681566364, 1.3870613641156524, 1.7211993230248481, 1.9384171127658192, 2.506385786580722, 2.6734796265609475, 3.308398815421242, 3.5421268804184365, 3.625694169999406, 3.7761577626424696, 3.9263733916050114, 4.126808563056329, 4.2437877559204935, 4.36052540071978, 4.561250878939973, 4.6949514209318295, 4.878771742534809, 4.995404491961381, 5.22963778697158, 5.3966684331007855]",2017_Feb_01_1709,59.8946739443,famFaceFilter,001,8,
16,./img/edges5_BritneySpears7_1.png,0,44,44,15,,,None,None,1,1.45398878293,None,None,None,None,None,None,2,0.38470875655,Britney Spears,"['lshift', 'b', 'r', 'i', 't', 'n', 'e', 'y', 'space', 'lshift', 's', 'p', 'e', 'a', 'r', 's', 'return']","[0.5684283529317327, 0.8525122923256276, 1.019236271857153, 1.13656062503469, 1.3035402669920586, 1.6211028321104095, 1.7041725904218765, 1.8716215349231788, 2.0887126161869674, 2.238977003855325, 2.4228733505442506, 2.589838878138835, 2.8572527933611127, 3.0577578950615134, 3.1914366239470837, 3.3082891083322465, 3.826158532516274]",2017_Feb_01_1709,59.8946739443,famFaceFilter,001,8,
19,./img/edges5_HughLaurie(DrHouse)2_1.png,0,45,45,18,,,None,None,1,1.45390153051,None,None,None,None,None,None,1,1.35351312892,Dr House,"['lshift', 'd', 'r', 'space', 'lshift', 'h', 'o', 'u', 's', 'e', 'return']","[0.4682292121106002, 0.7022350734187057, 0.9862920672148903, 1.0864360337091057, 1.270134137765126, 1.3705398615238664, 1.57096220173662, 1.7712029799258744, 1.8549758901026507, 2.0219664386113436, 2.205770400385518]",2017_Feb_01_1709,59.8946739443,famFaceFilter,001,8,
13,./img/edges5_MariskaHargitay(Liv)6_5.png,0,46,46,12,,,None,None,1,1.92163224901,None,None,None,None,None,None,3,0.702046774995,,['return'],[0.8356209292887797],2017_Feb_01_1709,59.8946739443,famFaceFilter,001,8,
61,./img/edges5_NeilPatrickHarris(Barney)2_2.png,0,47,47,60,,,None,None,1,1.08628237963,None,None,None,None,None,None,1,0.819222606588,Barney Stinson,"['lshift', 'b', 'a', 'r', 'n', 'y', 'backspace', 'e', 'y', 'space', 'lshift', 's', 't', 'i', 'n', 's', 'o', 'n', 'return']","[0.4847613004712912, 0.6854267926519242, 0.8523150120363425, 1.0359893783006555, 1.2032779323235445, 1.4706385979043262, 2.3223778081173805, 2.4562916694467276, 2.6565722244740755, 2.8405657677958516, 3.0242741368419956, 3.1913695807270415, 3.7927790281100897, 4.076761279940911, 4.227164244985033, 4.360791648916347, 4.577859313169029, 5.012086385029761, 5.396569311784333]",2017_Feb_01_1709,59.8946739443,famFaceFilter,001,8,
54,./img/edges5_KatjaBurkard5_3.png,0,48,48,53,,,None,None,1,1.92137947361,None,None,None,None,None,None,3,0.23418325318,,['return'],[0.28436430195506546],2017_Feb_01_1709,59.8946739443,famFaceFilter,001,8,
29,./img/edges5_TomCruise4_1.png,0,49,49,28,,,None,None,1,0.952665882251,None,None,None,None,None,None,1,0.234202820819,Tom Cruise,"['lshift', 't', 'o', 'm', 'space', 'lshift', 'c', 'r', 'u', 'i', 's', 'e', 'return']","[0.31786409922096936, 0.56860253699233, 0.6521425601913506, 0.8526470203305507, 1.0196481546117866, 1.05287079712798, 1.2034344734311162, 1.437205202297264, 1.6210819813495618, 1.8047518566800136, 1.888276803174449, 2.0053114911443117, 2.4730579279093945]",2017_Feb_01_1709,59.8946739443,famFaceFilter,001,8,
6,./img/edges5_GuentherJauch3_1.png,0,50,50,5,,,None,None,1,1.20323366455,None,None,None,None,None,None,3,1.13661194999,G端nther Jauch,"['lshift', 'g', u'\xfc', 'n', 't', 'h', 'e', 'r', 'space', 'lshift', 'j', 'a', 'u', 'c', 'h', 'return']","[0.5016632492806821, 1.3538913296761166, 1.8047114382789005, 2.072107068985133, 2.1722725278050348, 2.2893707304046984, 2.4730252082517836, 2.589896297931773, 2.790473575347278, 2.940728660367313, 3.3084703495751455, 3.475501958047971, 3.7093339560760796, 3.8932299819844047, 3.976623408285377, 4.327501642399511]",2017_Feb_01_1709,59.8946739443,famFaceFilter,001,8,
56,./img/edges5_NeilPatrickHarris(Barney)1_1.png,0,51,51,55,,,None,None,2,1.10266017235,None,None,None,None,None,None,2,0.251072370751,Barney Stinson,"['lshift', 'b', 'a', 'r', 'n', 'e', 'y', 'space', 'lshift', 's', 't', 'i', 'n', 'd', 'o', 'n', 'backspace', 'backspace', 'backspace', 's', 'o', 'n', 'return']","[0.4848841595794511, 1.002861045386453, 1.1866544213880843, 1.337014081002053, 1.4706491836768691, 1.5876492273037002, 1.721284009197916, 1.9049660742057313, 1.9884483568312135, 2.1221694288051367, 2.422804703419388, 2.590093257440458, 2.7235891411801276, 2.907222768262727, 3.0411125710215856, 3.224918778261781, 3.4922274773271056, 3.6592988626398437, 3.826131907697345, 4.060209944722374, 4.427766543316466, 4.611548691984353, 4.962361166000846]",2017_Feb_01_1709,59.8946739443,famFaceFilter,001,8,
35,./img/edges5_WillSmith1_1.png,0,52,52,34,,,None,None,1,2.17228856685,None,None,None,None,None,None,1,0.184136290849,Will Smith,"['lshift', 'w', 'i', 'l', 'l', 'space', 'lshift', 's', 'm', 'i', 't', 'h', 'return']","[0.4012533553686808, 0.585245936346837, 0.802376794448719, 0.969250899468534, 1.1362979054283642, 1.33675649388897, 1.4203917890336015, 1.5039850618722994, 1.5875735229947168, 1.7543414495194156, 1.8546323336940986, 1.9884682452502602, 2.589918752597441]",2017_Feb_01_1709,59.8946739443,famFaceFilter,001,8,
28,./img/edges5_Ice-T(OdafinFinTutuola)5_1.png,0,53,53,27,,,None,None,2,1.73801049082,None,None,None,None,None,None,2,0.802694046819,,['return'],[0.40140668866661144],2017_Feb_01_1709,59.8946739443,famFaceFilter,001,8,
11,./img/edges5_RobertSeanLeonard(Wilson)1_1.png,0,54,54,10,,,None,None,2,5.01231285639,None,None,None,None,None,None,1,0.367628453529,,['return'],[0.6687375216206419],2017_Feb_01_1709,59.8946739443,famFaceFilter,001,8,
59,./img/edges5_BastianSchweinsteiger3_1.png,0,55,55,58,,,None,None,1,2.97420760687,None,None,None,None,None,None,5,1.16959047819,Bastian Schweinsteiger,"['lshift', 'b', 'a', 's', 't', 'i', 'a', 'n', 'space', 'lshift', 's', 'c', 'w', 'backspace', 'h', 'w', 'e', 'i', 'n', 's', 't', 'e', 'i', 'g', 'e', 'r', 'return']","[0.3010670457879314, 0.4683020293887239, 0.5851631748591899, 0.8357078609315067, 0.9527550593575143, 1.0696591894775338, 1.203242325636893, 1.3537187495203398, 1.5039459265954065, 1.7210174402207485, 1.98831651585715, 2.1888860945309716, 2.4561899818836537, 3.007338506033193, 3.274825880094795, 3.391744124577599, 3.475210368154876, 3.542238512192853, 3.742759973722059, 3.809473431638253, 3.9767206049164088, 4.110136614195653, 4.193582648573283, 4.394275407135865, 4.561170683700766, 4.6615395176486345, 5.296337772088009]",2017_Feb_01_1709,59.8946739443,famFaceFilter,001,8,
40,./img/edges5_NicoleKidman3_1.png,0,56,56,39,,,None,None,1,2.25573139342,None,None,None,None,None,None,1,1.52076318923,Nicole Kidman,"['lshift', 'n', 'i', 'c', 'o', 'l', 'e', 'space', 'lshift', 'k', 'd', 'i', 'm', 'a', 'n', 'backspace', 'backspace', 'backspace', 'backspace', 'backspace', 'i', 'd', 'm', 'a', 'n', 'return']","[0.5850589210458566, 0.9194730723629618, 1.1199063191270398, 1.2699089495308726, 1.6878608785809774, 1.8549354717015376, 2.005287432572004, 2.155684623556226, 2.389644292408775, 2.5565985926696158, 2.874028996031484, 2.9242610489782237, 3.1246708787348325, 3.2747816123210214, 3.4086146368499612, 4.661620675231461, 4.845359518469195, 4.9789590144573594, 5.146245643794828, 5.279704637721807, 5.914607787533896, 6.048185470417593, 6.232111970519327, 6.315558004895138, 6.432556765397749, 11.895509130708888]",2017_Feb_01_1709,59.8946739443,famFaceFilter,001,8,
1,./img/edges5_BastianSchweinsteiger6_2.png,0,57,57,0,,,None,None,1,2.22247378578,None,None,None,None,None,None,5,1.90472997942,Bastian Schweinsteiger,"['lshift', 'b', 'a', 's', 't', 'i', 'a', 'n', 'space', 'lshift', 's', 'c', 'h', 'w', 'e', 'i', 'n', 's', 't', 'e', 'i', 'g', 'e', 'r', 'return']","[0.2843338277634757, 0.4011192689285963, 0.7021051571318822, 0.9360324271056015, 1.1196570723222976, 1.270145685881289, 1.553896975421594, 1.6543302863428835, 1.8546442025908618, 2.0884941643525963, 2.3727237383045576, 2.539553575552418, 2.6902298459735903, 2.823811699010548, 2.907393102952483, 2.990644102506849, 3.1747556932205043, 3.241287589113199, 3.375129274727442, 3.558940293682099, 3.7090308180686407, 3.876421701217623, 4.110142709034335, 4.227175793099377, 4.711630106192388]",2017_Feb_01_1709,59.8946739443,famFaceFilter,001,8,
69,./img/edges5_GuentherJauch2_1.png,0,58,58,68,,,None,None,1,4.74501730934,None,None,None,None,None,None,3,1.25330981795,G端nther Jauch,"['lshift', 'g', u'\xfc', 'n', 't', 'h', 'e', 'r', 'space', 'lshift', 'j', 'a', 'u', 'c', 'h', 'return']","[0.3346117523869907, 0.5017793719871406, 0.7522948669902689, 0.9526341249347752, 1.069701853344668, 1.1698798226207145, 1.2867906891406165, 1.4372125802583469, 1.603953240401097, 1.7880122230380948, 1.88824825366828, 2.0216905669858534, 2.172345024302558, 2.3392393385238393, 2.4061035634913424, 2.740334548878309]",2017_Feb_01_1709,59.8946739443,famFaceFilter,001,8,
2,./img/edges5_OmarEpps(DrEricForeman)1_5.png,0,59,59,1,,,None,None,2,1.7379046331,None,None,None,None,None,None,2,0.468226004301,,['return'],[0.5181937337365525],2017_Feb_01_1709,59.8946739443,famFaceFilter,001,8,
57,./img/edges5_BritneySpears5_1.png,0,60,60,56,,,None,None,1,2.43935539707,None,None,None,None,None,None,2,1.03604294872,Britney Spears,"['lshift', 'b', 'r', 'i', 't', 'n', 'e', 'y', 'space', 'lshift', 's', 'p', 'e', 'a', 'r', 's', 'return']","[0.4179233795439359, 0.6854303212439845, 0.8524369088008825, 1.0027025795934605, 1.2701845003775816, 1.4371679917057918, 1.5706228154813289, 1.8044702109982609, 1.9717902015527216, 2.1387820331874536, 2.2223114706139313, 2.4060727685191523, 2.67333270888048, 2.907387970457421, 3.0575586900849885, 3.1746337964559643, 3.642474542823038]",2017_Feb_01_1709,59.8946739443,famFaceFilter,001,8,
70,./img/edges5_BastianSchweinsteiger1_1.png,0,61,61,69,,,None,None,1,1.40379971463,None,None,None,None,None,None,5,1.13638612019,Bastian Schweinsteiger,"['lshift', 'b', 'a', 's', 't', 'i', 'a', 'n', 'space', 'lshift', 's', 'c', 'h', 'w', 'e', 'i', 'n', 's', 't', 'i', 'g', 'backspace', 'backspace', 'e', 'i', 'g', 'e', 'r', 'return']","[0.7354907563749293, 0.9694164224456472, 1.1365051299289917, 1.3203110163867677, 1.4707252087628149, 1.5542447019815882, 1.7212131166052131, 1.821398784624762, 1.988586613424559, 2.0720047398590395, 2.2224548597023386, 2.289449963302104, 2.3727817996568774, 2.656869588425252, 2.7236812053142785, 3.258203331502955, 3.475541093323045, 3.960357247338834, 4.193687543945998, 4.377608590770251, 4.995752860082575, 5.296448441516986, 5.429998216457534, 5.5970211638432374, 5.714016716536207, 5.830814026596272, 5.981310018116346, 6.11478633421757, 6.51588186535264]",2017_Feb_01_1709,59.8946739443,famFaceFilter,001,8,
39,./img/edges5_AlysonHannigan(Lily)8_3.png,0,62,62,38,,,None,None,1,7.16765745213,None,None,None,None,None,None,1,0.284066296443,Lilly,"['lshift', 'l', 'i', 'l', 'l', 'y', 'return']","[0.3345036492028157, 0.4682013041656319, 0.6853607117736829, 0.8692625117400894, 1.0028350621287245, 1.119565328966928, 1.4372209205630497]",2017_Feb_01_1709,59.8946739443,famFaceFilter,001,8,
33,./img/edges5_BarackObama2_1.png,0,63,63,32,,,None,None,1,1.58734865554,None,None,None,None,None,None,4,1.21994988118,Barack Obama,"['lshift', 'b', 'a', 'r', 'a', 'c', 'k', 'space', 'lshift', 'o', 'b', 'a', 'm', 'a', 'return']","[0.3510764767470391, 0.534974427342604, 0.769066578730417, 0.969290034747246, 1.0530359993226739, 1.6209902379941923, 1.704561056165403, 1.9050722527044854, 2.206999312245898, 2.6067976051781443, 3.024303007128765, 3.9262640052966162, 4.09365873781644, 4.210528223591609, 4.594697426568018]",2017_Feb_01_1709,59.8946739443,famFaceFilter,001,8,
43,./img/edges5_BarackObama1_3.png,0,64,64,42,,,None,None,1,1.18639170178,None,None,None,None,None,None,4,1.48718127204,Barack Obama,"['lshift', 'b', 'a', 'r', 'a', 'c', 'k', 'space', 'lshift', 'o', 'b', 'a', 'm', 'a', 'return']","[0.43483398943681095, 0.8358907060774072, 1.3037211874525383, 1.470533381749192, 1.5711748795147287, 1.8383459635479085, 1.9552725483335962, 2.1724207286079036, 2.6067652062993147, 2.7906673270463216, 3.1581440511799883, 3.4254270877700037, 3.5424393210723792, 3.6760776315586554, 4.043938651282588]",2017_Feb_01_1709,59.8946739443,famFaceFilter,001,8,
18,./img/edges5_JoshRadnor(Ted)6_2.png,0,65,65,17,,,None,None,1,4.39450925646,None,None,None,None,None,None,1,0.334562672901,Ted Mosby,"['lshift', 'r', 'backspace', 'lshift', 't', 'e', 'd', 'space', 'lshift', 'm', 'o', 's', 'b', 'y', 'return']","[0.418033728194132, 0.6352826336878934, 1.0696322438761854, 1.1866184939208324, 1.3368520866170002, 1.9716371890353912, 2.188984895066824, 2.322690890334343, 2.439322035856094, 2.5565113402481074, 2.790430269918943, 3.4419133044539194, 3.6254741142602143, 3.7426034326126683, 4.027089952114693]",2017_Feb_01_1709,59.8946739443,famFaceFilter,001,8,
26,./img/edges5_NicoleKidman7_1.png,0,66,66,25,,,None,None,1,1.77140443037,None,None,None,None,None,None,1,2.25579105868,Nicole Kidman,"['lshift', 'n', 'i', 'c', 'o', 'l', 'e', 'space', 'lshift', 'k', 'i', 'd', 'm', 'a', 'n', 'return']","[0.5349741065601847, 0.9359474201501143, 1.236817506427542, 1.3870751576941984, 1.5039619656417926, 1.721128109649726, 1.8715185642340657, 1.9885154000512557, 2.155624958297267, 2.2724444022423995, 2.506175675051054, 2.623045481606823, 2.7733281537894072, 2.9073770639042777, 3.0075672228576877, 3.475255919049232]",2017_Feb_01_1709,59.8946739443,famFaceFilter,001,8,
17,./img/edges5_NeilPatrickHarris(Barney)3_7.png,0,67,67,16,,,None,None,1,1.587047763,None,None,None,None,None,None,1,9.89051104256,Barney Stinson,"['lshift', 'b', 'a', 'r', 'n', 'e', 'y', 'space', 'lshift', 's', 't', 'i', 'n', 's', 'o', 'n', 'return']","[0.5017200275106006, 0.7022684346411552, 1.2034328695281147, 1.436942482690938, 1.7212894624735782, 1.838110189542931, 2.0554303084118146, 2.207079828267524, 2.456302896780471, 2.5900291012494563, 2.8907310983031493, 2.9741508286424505, 3.1412536504885793, 3.3584717610101507, 3.508920918511649, 3.7594402628874377, 4.093562824309629]",2017_Feb_01_1709,59.8946739443,famFaceFilter,001,8,
44,./img/edges5_EmilyDeschanel5_1.png,0,68,68,43,,,None,None,1,2.10539450926,None,None,None,None,None,None,1,0.417774857959,,['return'],[0.30128870543012454],2017_Feb_01_1709,59.8946739443,famFaceFilter,001,8,
8,./img/edges5_LeonardoDiCaprio3_1.png,0,69,69,7,,,None,None,1,1.26987462597,None,None,None,None,None,None,1,0.184017922675,Leonardo diCaprio,"['lshift', 'l', 'e', 'o', 'n', 'r', 'backspace', 'a', 'r', 'd', 'o', 'space', 'd', 'i', 'lshift', 'c', 'a', 'p', 'r', 'i', 'o', 'return']","[0.4682006626044313, 0.6354619502453716, 0.852570995242786, 1.0696733038384991, 1.253530836031132, 1.6879330542960815, 2.272329241879561, 2.422956432812498, 2.589973606141939, 2.8071506567030156, 3.408629392773946, 3.7260119997736183, 3.909955180484758, 4.093631792215092, 4.3609446614354965, 4.494514324795091, 4.66146509646569, 5.045916907465653, 5.16284381303376, 5.330024263870655, 5.5304719457799365, 5.781018556535855]",2017_Feb_01_1709,59.8946739443,famFaceFilter,001,8,
50,./img/edges5_WillSmith5_1.png,0,70,70,49,,,None,None,1,1.20321826706,None,None,None,None,None,None,1,0.134063024476,Will Smith,"['lshift', 'w', 'i', 'l', 'l', 'space', 'lshift', 's', 'm', 'i', 't', 'h', 'pound', 'return']","[0.3181412539724988, 0.5518231265104987, 0.6856285638768895, 0.869255775340207, 1.03624953166036, 1.1866643655976077, 1.3370682929835311, 1.4536936644490197, 1.4870118996914243, 1.6378488813734293, 1.7714724359339016, 1.855003798047619, 2.139035770927876, 2.790630437237269]",2017_Feb_01_1709,59.8946739443,famFaceFilter,001,8,
45,./img/edges5_WillSmith4_1.png,0,71,71,44,,,None,None,1,1.3870616849,None,None,None,None,None,None,1,0.234357437243,Will Smith,"['lshift', 'w', 'i', 'l', 'l', 'space', 'lshift', 's', 'm', 'i', 't', 'h', 'return']","[0.4013406077883701, 0.6687817893925967, 1.002778283898806, 1.1866082289288897, 1.3371321283939324, 1.52069807069347, 1.6043205345995375, 1.7045591314781632, 1.8047508943363937, 1.9552096752668149, 2.08893267192434, 2.189043277199744, 2.456314444894815]",2017_Feb_01_1709,59.8946739443,famFaceFilter,001,8,
20,./img/gray_WillSmith1_1.png,0,0,0,19,,,None,None,1,1.35352146923,None,None,None,None,None,None,1,0.752312830726,Will Smith,"['lshift', 'w', 'i', 'l', 'l', 'space', 'lshift', 's', 'm', 'i', 't', 'h', 'return']","[0.45161243757502234, 0.6018245379455038, 0.8023925127145048, 1.0028697064717562, 1.1365089792998333, 1.3203485477588401, 1.4036527969528834, 1.5040562752437836, 1.5708778363441525, 1.7378035871006432, 1.8716783131530974, 1.9718533954019222, 2.2056979038879945]",2017_Feb_01_1709,59.8946739443,famFaceFilter,001,8,
2,./img/gray_BastianSchweinsteiger1_1.png,0,1,1,1,,,None,None,1,2.40620653418,None,None,None,None,None,None,5,1.16969761904,Bastian Schweinsteiger,"['lshift', 'b', 'a', 's', 't', 'i', 'a', 'n', 'space', 'lshift', 's', 'c', 'h', 'w', 'e', 'i', 'n', 's', 't', 'e', 'i', 'g', 'e', 'r', 'return']","[0.40164310423642746, 0.6354314760537818, 0.7690957697977865, 1.086505322396988, 1.1533695473644912, 1.8217808347490063, 1.9553456863941392, 2.105591147985251, 2.2895975225437724, 2.3729258303101233, 2.506666469920674, 2.5901426577092934, 2.723762362898924, 2.957668140548776, 3.0243129513382883, 3.391964821876172, 3.609315735717246, 3.75947651113529, 3.9600983771051688, 4.077061210140528, 4.227117410964638, 4.377819985424139, 4.528012838936775, 4.661689322356324, 5.096095389992115]",2017_Feb_01_1709,59.8946739443,famFaceFilter,001,8,
13,./img/gray_NeilPatrickHarris(Barney)2_2.png,0,2,2,12,,,None,None,1,1.33692105452,None,None,None,None,None,None,1,0.367971047594,Barney Stinson,"['lshift', 'b', 'a', 'r', 'n', 'e', 'y', 'space', 'lshift', 's', 't', 'i', 'n', 'd', 'backspace', 's', 'o', 'n', 'return']","[0.818982020868134, 2.439779148724483, 2.5398021807977784, 2.7569381713947223, 2.8570776469568955, 3.0241564102307166, 3.2748239554093743, 3.525489255120192, 3.6421868023007846, 3.792864355846177, 4.043478651385158, 4.193734377966393, 4.377473862767147, 4.527965684135779, 5.145992868398025, 5.3130517432527995, 5.413318889635775, 5.563533556254697, 5.881014643009621]",2017_Feb_01_1709,59.8946739443,famFaceFilter,001,8,
52,./img/gray_EmilyDeschanel5_1.png,0,3,3,51,,,None,None,1,2.32295040213,None,None,None,None,None,None,1,0.401405726325,,['return'],[0.3679777839952294],2017_Feb_01_1709,59.8946739443,famFaceFilter,001,8,
68,./img/gray_Ice-T(OdafinFinTutuola)7_1.png,0,4,4,67,,,None,None,2,6.03138713386,None,None,None,None,None,None,1,1.88823381852,,['return'],[0.3846686589295132],2017_Feb_01_1709,59.8946739443,famFaceFilter,001,8,
14,./img/gray_JoshRadnor(Ted)6_2.png,0,5,5,13,,,None,None,1,1.82154473996,None,None,None,None,None,None,1,0.251261310737,Ted Mosby,"['lshift', 't', 'e', 'd', 'space', 'lshift', 'm', 'o', 's', 'b', 'y', 'return']","[0.3512955701444298, 0.518303440825548, 0.7020756452839123, 0.952607500115846, 1.1197500988018874, 1.2366295287865796, 1.3702149104137789, 2.0385155283656786, 2.7735225470532896, 3.0241669960032596, 3.1576362549221813, 3.425287548054257]",2017_Feb_01_1709,59.8946739443,famFaceFilter,001,8,
28,./img/gray_GeorgeClooney4_2.png,0,6,6,27,,,None,None,1,1.27011264544,None,None,None,None,None,None,1,0.167489042122,George Clooney,"['lshift', 'g', 'o', 'e', 'backspace', 'backspace', 'e', 'o', 'r', 'g', 'e', 'space', 'lshift', 'c', 'l', 'o', 'o', 'n', 'e', 'y', 'return']","[0.46817532090972236, 0.8857288400049583, 1.186286164846024, 1.2867749708730116, 2.1221235571283614, 2.289080744418243, 2.6900867776657833, 2.873934686431312, 2.973952906790146, 3.074097514847381, 3.2076476105667098, 3.3750449093349744, 3.5420948023220262, 3.659302391230085, 4.310662887439321, 4.711624973697326, 4.895387554726767, 5.129258367251168, 5.19608826865624, 5.580306551117246, 6.23184508075974]",2017_Feb_01_1709,59.8946739443,famFaceFilter,001,8,
9,./img/gray_RobertSeanLeonard(Wilson)8_1.png,0,7,7,8,,,None,None,2,4.89545235248,None,None,None,None,None,None,1,0.534882363205,,['return'],[0.7021699548859033],2017_Feb_01_1709,59.8946739443,famFaceFilter,001,8,
31,./img/gray_AngelaMerkel3_1.png,0,8,8,30,,,None,None,1,1.82143310819,None,None,None,None,None,None,4,1.87130235787,Angela Merkel,"['lshift', 'a', 'n', 'g', 'e', 'l', 'a', 'space', 'lshift', 'm', 'e', 'r', 'k', 'e', 'l', 'return']","[0.4346084804219572, 0.7518509061428631, 0.9192183722807385, 1.0192167042205256, 1.0695526901981793, 1.1698875213642168, 1.3704003218081198, 1.5039712682919344, 1.6376467893678637, 1.7377913974250987, 1.9549453517556685, 2.088790565960153, 2.2057177923088602, 2.7068523945654306, 2.8406536617785605, 3.993202009885863]",2017_Feb_01_1709,59.8946739443,famFaceFilter,001,8,
22,./img/gray_GuentherJauch4_1.png,0,9,9,21,,,None,None,1,1.35376975369,None,None,None,None,None,None,3,0.752059092985,G端nther Jauch,"['lshift', 'g', u'\xfc', 'n', 't', 'h', 'e', 'r', 'space', 'lshift', 'j', 'a', 'u', 'c', 'h', 'return']","[0.25086514625036216, 0.45128203318745364, 0.6016150679806742, 0.8190365536320314, 0.9524281835583679, 1.0194245702823537, 1.1865094283930375, 1.319919022054819, 1.470577970303566, 1.6710089716016228, 1.7880699636098143, 1.9718367147925164, 2.105318484169402, 2.255850403156728, 2.3728510883447598, 2.673445302996697]",2017_Feb_01_1709,59.8946739443,famFaceFilter,001,8,
34,./img/gray_RobertSeanLeonard(Wilson)2_6.png,0,10,10,33,,,None,None,2,7.63538913297,None,None,None,None,None,None,1,0.802154814024,,['return'],[0.401233466949634],2017_Feb_01_1709,59.8946739443,famFaceFilter,001,8,
41,./img/gray_RobertSeanLeonard(Wilson)1_1.png,0,11,11,40,,,None,None,1,7.11744304213,None,None,None,None,None,None,1,0.418039823031,,['return'],[0.3847908764764725],2017_Feb_01_1709,59.8946739443,famFaceFilter,001,8,
65,./img/gray_KatjaBurkard5_3.png,0,12,12,64,,,None,None,1,1.47056513906,None,None,None,None,None,None,3,0.835489088315,,['return'],[0.3515419299201312],2017_Feb_01_1709,59.8946739443,famFaceFilter,001,8,
38,./img/gray_MariskaHargitay(Liv)4_4.png,0,13,13,37,,,None,None,1,2.00518895282,None,None,None,None,None,None,1,0.501571826706,,['return'],[0.41811552733815915],2017_Feb_01_1709,59.8946739443,famFaceFilter,001,8,
36,./img/gray_TomCruise5_1.png,0,14,14,35,,,None,None,1,0.88578080652,None,None,None,None,None,None,1,0.267633329398,Tom Cruise,"['lshift', 't', 'o', 'm', 'space', 'lshift', 'c', 'r', 'u', 'i', 's', 'e', 'return']","[0.585127247391938, 1.1366876542961108, 1.3203754933601886, 1.8213493843577453, 2.038687787740855, 2.1721705194595415, 2.2725300507609063, 2.556607253754919, 2.823916594383263, 2.9909132377324568, 3.0743919917676976, 3.191361561202939, 3.4253061533490836]",2017_Feb_01_1709,59.8946739443,famFaceFilter,001,8,
23,./img/gray_TomCruise4_1.png,0,15,15,22,,,None,None,1,1.16966522016,None,None,None,None,None,None,1,0.150721500537,Tom Cruise,"['lshift', 't', 'o', 'm', 'space', 'lshift', 'c', 'r', 'u', 'i', 's', 'e', 'return']","[0.4344371833885816, 0.8355256573431689, 0.9526607497537043, 1.1192089413198119, 1.302791243448155, 1.42032442503114, 1.520594137662556, 1.7710172477491142, 1.938343653924676, 2.138993427839523, 2.2054560350443353, 2.289185639790958, 2.489667966043271]",2017_Feb_01_1709,59.8946739443,famFaceFilter,001,8,
49,./img/gray_NeilPatrickHarris(Barney)1_1.png,0,16,16,48,,,None,None,1,1.65429820825,None,None,None,None,None,None,1,0.501437098703,Barney Stinson,"['lshift', 'b', 'a', 'r', 'n', 'e', 'y', 'space', 'lshift', 's', 't', 'i', 'n', 's', 'o', 'n', 'return']","[1.9717953340496024, 2.6734975902945735, 2.9909055389889545, 3.174603643046794, 3.7428655106577935, 3.8262839578728745, 4.043863588538443, 4.227232892109896, 4.327347346757961, 4.561322733876295, 4.878747042399482, 5.029033884735327, 5.279766548448606, 6.064969692615705, 6.265398769228341, 6.482531552015644, 6.86675336306871]",2017_Feb_01_1709,59.8946739443,famFaceFilter,001,8,
18,./img/gray_JasonSegel(Marshall)7_1.png,0,17,17,17,,,None,None,1,2.08906355056,None,None,None,None,None,None,1,0.467911318177,,['return'],[0.5349288764446101],2017_Feb_01_1709,59.8946739443,famFaceFilter,001,8,
24,./img/gray_JoachimLoew1_1.png,0,18,18,23,,,None,None,1,1.53738573782,None,None,None,None,None,None,5,0.818643596955,Joachim Loew,"['lshift', 'j', 'o', 'a', 'c', 'h', 'i', 'm', 'space', 'lshift', 'l', 'o', 'e', 'w', 'return']","[0.35126124658017943, 0.5349827676454879, 0.7687457977681333, 0.8860229961446748, 1.1030566576155252, 1.1532248751518637, 1.3035976867831778, 1.520812589496927, 1.7045379599348962, 1.8381140389137727, 1.9382413247985824, 2.172315191672169, 2.322597543074153, 2.4228967675535387, 2.8237687143609946]",2017_Feb_01_1709,59.8946739443,famFaceFilter,001,8,
11,./img/gray_EmilyDeschanel6_12.png,0,19,19,10,,,None,None,1,2.12204239955,None,None,None,None,None,None,1,0.785542530422,,['return'],[0.5350071470002149],2017_Feb_01_1709,59.8946739443,famFaceFilter,001,8,
47,./img/gray_HughLaurie(DrHouse)5_3.png,0,20,20,46,,,None,None,1,2.23870626472,None,None,None,None,None,None,1,0.334510385605,Dr House,"['lshift', 'd', 'r', 'space', 'lshift', 'h', 'o', 'u', 's', 'e', 'return']","[0.7854632975249842, 1.6042028079882584, 1.8547077172188438, 2.0384555423243, 2.873993068564232, 2.9237009654225403, 3.2247686527716724, 3.4252573946414486, 3.5755378213580116, 3.7092005111953767, 3.9096376073321153]",2017_Feb_01_1709,59.8946739443,famFaceFilter,001,8,
25,./img/gray_MariskaHargitay(Liv)8_8.png,0,21,21,24,,,None,None,1,2.89052579849,None,None,None,None,None,None,3,0.484918483144,,['return'],[0.4682163808720361],2017_Feb_01_1709,59.8946739443,famFaceFilter,001,8,
33,./img/gray_KatjaBurkard4_1.png,0,22,22,32,,,None,None,1,2.89053766738,None,None,None,None,None,None,3,0.51840224136,,['return'],[0.28468444135432946],2017_Feb_01_1709,59.8946739443,famFaceFilter,001,8,
58,./img/gray_GeorgeClooney3_1.png,0,23,23,57,,,None,None,1,0.852294482054,None,None,None,None,None,None,1,0.183885119355,George Clooney,"['lshift', 'g', 'e', 'o', 'r', 'g', 'e', 'space', 'lshift', 'c', 'l', 'o', 'o', 'n', 'e', 'y', 'return']","[0.451389494808609, 1.4872534477544832, 1.6375306666595861, 1.804767254167018, 1.9216681764755776, 2.021965797050143, 2.1389504431917885, 2.289219642572789, 2.4562429107409116, 2.5731974034697487, 2.7234903406442754, 2.9239245497519732, 3.0744468453121954, 3.325044139459351, 3.408551763781361, 3.6257836678869353, 3.8094827342847566]",2017_Feb_01_1709,59.8946739443,famFaceFilter,001,8,
29,./img/gray_UrsulavonderLeyen4_1.png,0,24,24,28,,,None,None,1,1.30364131299,None,None,None,None,None,None,4,1.03606796964,Ursula von der Leyen,"['lshift', 'u', 'r', 's', 'u', 'l', 'a', 'space', 'v', 'o', 'n', 'space', 'd', 'e', 'r', 'space', 'lshift', 'l', 'e', 'y', 'e', 'n', 'return']","[1.0862714730774314, 1.520706410999992, 2.122077364669167, 2.3892333719995804, 2.5230795485458657, 2.7736973726769065, 2.9741572442617326, 3.157839309269548, 3.558724408096168, 3.6590634094154666, 3.825796050032295, 4.009780932266949, 4.043196684920986, 4.14355429153693, 4.293859418387001, 4.360933434101753, 4.544517019354316, 4.628111575317234, 4.795137730514398, 4.9956925532624155, 5.229478038052548, 5.346563088633047, 5.6305507937413495]",2017_Feb_01_1709,59.8946739443,famFaceFilter,001,8,
71,./img/gray_BritneySpears7_1.png,0,25,25,70,,,None,None,1,4.87877206331,None,None,None,None,None,None,2,0.835374248731,Britney Spears,"['lshift', 'b', 'r', 'i', 't', 'e', 'backspace', 'n', 'e', 'y', 'space', 'lshift', 's', 'p', 'e', 'r', 'a', 'backspace', 'backspace', 'a', 'r', 'r', 's', 'backspace', 'backspace', 's', 'return']","[0.568396916396523, 0.7523356061719824, 0.9360205582088383, 1.0862352248277602, 1.5707254653880227, 2.055142247108961, 2.439569999536616, 2.656695725143436, 2.7569384921753226, 2.940665145735693, 3.141888476007807, 3.3917745987655508, 3.5087499422588735, 3.6926732345491473, 3.9431492734947824, 4.3941445285017835, 4.560922078453586, 5.129335033900134, 5.296316600542923, 5.4133881783218385, 5.697268101026566, 5.797549040991726, 5.823667989137903, 6.4657162140647415, 6.699661447773906, 6.7999943542545225, 7.000410599628594]",2017_Feb_01_1709,59.8946739443,famFaceFilter,001,8,
35,./img/gray_JoachimLoew4_1.png,0,26,26,34,,,None,None,1,1.03621071716,None,None,None,None,None,None,5,0.701843399867,Joachim Loew,"['lshift', 'j', 'o', 'a', 'c', 'h', 'i', 'm', 'space', 'lshift', 'l', 'o', 'e', 'w', 'return']","[0.6519853775207594, 1.0028039463741152, 1.270188028967823, 1.3869933585501713, 1.5707832059615612, 1.6711578139675112, 1.8714852030152542, 2.055233669681911, 2.239107240922749, 2.4395433747176867, 2.8238578914679238, 3.0409310089962673, 3.2080354347472166, 3.324943735018678, 3.5422718734116643]",2017_Feb_01_1709,59.8946739443,famFaceFilter,001,8,
69,./img/gray_OmarEpps(DrEricForeman)3_1.png,0,27,27,68,,,None,None,2,4.46093561541,None,None,None,None,None,None,1,0.718805976278,,['return'],[0.43484810379959526],2017_Feb_01_1709,59.8946739443,famFaceFilter,001,8,
66,./img/gray_NeilPatrickHarris(Barney)3_7.png,0,28,28,65,,,None,None,1,0.869320893875,None,None,None,None,None,None,1,0.284294692487,Barney Stinson,"['lshift', 'b', 'a', 'r', 'n', 'e', 'y', 'space', 'lshift', 's', 't', 'i', 'n', 's', 'o', 'n', 'return']","[0.468447343164371, 1.4544776531165553, 1.6548791425666423, 1.8385887947370065, 2.1894564430785977, 2.3232227451680956, 2.5735970965488377, 2.7242515538637235, 2.924575093540625, 3.041574174823836, 3.5929254325419606, 3.709748725859754, 3.876959971668839, 4.02701938030259, 4.21111396962624, 4.394807903530818, 4.795550896391433]",2017_Feb_01_1709,59.8946739443,famFaceFilter,001,8,
64,./img/gray_LisaEdelstein(DrLisaCuddy)2_2.png,0,29,29,63,,,None,None,2,2.40631559971,None,None,None,None,None,None,1,0.418177117283,,['return'],[0.43450294348440366],2017_Feb_01_1709,59.8946739443,famFaceFilter,001,8,
67,./img/gray_AngelaMerkel4_1.png,0,30,30,66,,,None,None,1,1.28692637949,None,None,None,None,None,None,4,2.30597114511,Angela Merkel,"['lshift', 'a', 'n', 'g', 'e', 'l', 'a', 'space', 'lshift', 'm', 'e', 'r', 'j', 'e', 'backspace', 'backspace', 'k', 'e', 'l', 'return']","[0.41801704758472624, 0.6687009525921894, 0.8357495624550211, 0.9528256311696168, 1.0195211253521848, 1.119820670612171, 1.3704019257129403, 1.5541231259976485, 1.7212143997294334, 1.8047175331175822, 1.9883957487545558, 2.1054557784209464, 2.222193423222052, 2.35598731247228, 2.656715934346721, 2.806998606527486, 3.0409056673015584, 3.141074333931101, 3.3083016187902103, 4.293932556445725]",2017_Feb_01_1709,59.8946739443,famFaceFilter,001,8,
32,./img/gray_MariskaHargitay(Liv)6_5.png,0,31,31,31,,,None,None,1,3.59241474925,None,None,None,None,None,None,3,0.31768317876,,['return'],[0.35135812242879183],2017_Feb_01_1709,59.8946739443,famFaceFilter,001,8,
39,./img/gray_UrsulavonderLeyen1_1.png,0,32,32,38,,,None,None,1,1.5037688555,None,None,None,None,None,None,4,1.20332797415,Ursula von der Leyen,"['lshift', 'u', 'r', 's', 'u', 'l', 'a', 'space', 'v', 'o', 'n', 'space', 'd', 'e', 'r', 'space', 'lshift', 'l', 'e', 'y', 'e', 'n', 'return']","[0.8189367907543783, 1.3033554971607373, 1.7378683848564833, 2.0048014494168456, 2.1556551117100753, 2.3727381734479422, 2.4895191236792016, 2.5897423230708227, 2.7736165358746803, 2.8404756283471215, 2.990730071804137, 3.1911511288926704, 3.258001239499208, 3.3249039581805846, 3.5086707093632867, 3.625540836699656, 3.892915616645041, 4.076830247848193, 4.377387572689258, 4.527889017486814, 5.296177702388377, 6.198559565174946]",2017_Feb_01_1709,59.8946739443,famFaceFilter,001,8,
19,./img/gray_JasonSegel(Marshall)9_1.png,0,33,33,18,,,None,None,1,4.46083392785,None,None,None,None,None,None,1,10.2748075956,How I met your Mother,"['lshift', 'h', 'o', 'w', 'space', 'lshift', 'i', 'space', 'm', 'e', 't', 'space', 'o', 'backspace', 'y', 'o', 'u', 'r', 'space', 'lshift', 'm', 'o', 't', 'h', 'e', 'h', 'backspace', 'r', 'return']","[1.4874754281772766, 1.6711161124421778, 1.8713687595263764, 2.10552410476339, 2.2224834092085075, 2.3895037903475895, 2.4731458218921034, 2.67342284832921, 2.890827011809961, 2.9575157695908274, 3.0577646314613958, 3.2082715295346134, 3.4753284155467554, 3.8429116389597766, 4.026759547723486, 4.51119140614901, 4.728359474842364, 4.89517968866312, 5.045838316129448, 5.246278299295227, 5.279782266714392, 5.480178302888817, 5.5803809723001905, 5.6805182023945235, 5.831050762944869, 6.248711743661261, 6.7832842324605735, 6.967203675380006, 7.1842261095171125]",2017_Feb_01_1709,59.8946739443,famFaceFilter,001,8,
40,./img/gray_BritneySpears1_1.png,0,34,34,39,,,None,None,1,2.03865827589,None,None,None,None,None,None,2,0.334442059258,Britney Spears,"['lshift', 'b', 'r', 'i', 't', 'n', 'e', 'y', 'space', 'lshift', 's', 'p', 'e', 'e', 'backspace', 'a', 'r', 's', 'return']","[0.5350677746009751, 0.8191337502630631, 1.0028004177856928, 1.1365481145785452, 1.3702591781857336, 1.5374890292914642, 1.6373911269420205, 1.9049596585864492, 2.055306486961854, 2.2224471609606553, 2.356067828492087, 2.4396174751200306, 2.656730690268887, 2.890670470702389, 3.442145870651075, 3.9096196436003083, 4.093576617891813, 4.243874366778982, 4.511199425674931]",2017_Feb_01_1709,59.8946739443,famFaceFilter,001,8,
70,./img/gray_WillSmith5_1.png,0,35,35,69,,,None,None,1,1.68774411431,None,None,None,None,None,None,1,0.88584400037,Will Smith,"['lshift', 'w', 'i', 'l', 'l', 'space', 'lshift', 's', 'm', 'i', 't', 'h', 'return']","[0.2510399718739791, 0.45159030368995445, 0.585252351966119, 0.7686960767205164, 0.9025785015164729, 1.0862580002776667, 1.1699006733833812, 1.2362606306814996, 1.3537649419777154, 1.55415648721646, 1.620910363533767, 1.7211319590223866, 2.222359908539147]",2017_Feb_01_1709,59.8946739443,famFaceFilter,001,8,
51,./img/gray_AlysonHannigan(Lily)1_1.png,0,36,36,50,,,None,None,1,1.73797103476,None,None,None,None,None,None,1,0.501613528231,Lilly,"['lshift', u'\xd6', 'backspace', 'lshift', 'l', 'i', 'l', 'l', 'y', 'return']","[0.38461348460441513, 0.5518677150648728, 0.9861554145263653, 1.1862935428071069, 1.3703409773297608, 1.6209308935158333, 1.8548549556799117, 1.988595274511681, 2.172422332514543, 2.4228361399527785]",2017_Feb_01_1709,59.8946739443,famFaceFilter,001,8,
48,./img/gray_LeonardoDiCaprio2_1.png,0,37,37,47,,,None,None,1,1.40361013309,None,None,None,None,None,None,1,0.18414014022,Leonardo diCaprio,"['lshift', 'l', 'e', 'o', 'n', 'a', 'r', 'd', 'o', 'space', 'd', 'i', 'lshift', 'c', 'a', 'p', 'r', 'i', 'o', 'return']","[0.40130949203557975, 0.6185616053408012, 1.0194300235580158, 1.16961838613679, 1.5540381190421613, 1.654230202680992, 1.83819808352564, 2.072045479040753, 2.2056757700011076, 2.405966590020398, 2.723492906890897, 2.95755554643074, 3.0910533548540116, 3.25815810138738, 3.458521417902375, 4.00990507449751, 4.093437078172428, 4.227129600640183, 4.42756252662366, 4.828561823471318]",2017_Feb_01_1709,59.8946739443,famFaceFilter,001,8,
72,./img/gray_WillSmith4_1.png,0,38,38,71,,,None,None,1,2.43975509015,None,None,None,None,None,None,1,1.27040038597,Will Smith,"['lshift', 'w', 'i', 'l', 'l', 'space', 'lshift', 's', 'm', 'i', 't', 'h', 'return']","[0.4180600322324608, 0.6019303956636577, 0.7021782951906061, 0.8693000431121618, 1.0530026381020434, 1.2369281758601574, 1.3537392795005871, 1.5207359228479618, 1.6210614513674955, 1.8215168320184603, 1.9385585771688056, 2.0052611285318562, 2.372999930710648]",2017_Feb_01_1709,59.8946739443,famFaceFilter,001,8,
60,./img/gray_EmilyDeschanel3_1.png,0,39,39,59,,,None,None,1,2.00535126798,None,None,None,None,None,None,1,0.635169077228,,['return'],[0.35125418939969677],2017_Feb_01_1709,59.8946739443,famFaceFilter,001,8,
55,./img/gray_Ice-T(OdafinFinTutuola)6_1.png,0,40,40,54,,,None,None,2,2.22252703542,None,None,None,None,None,None,1,0.535045640714,,['return'],[0.33464254736099974],2017_Feb_01_1709,59.8946739443,famFaceFilter,001,8,
53,./img/gray_Ice-T(OdafinFinTutuola)5_1.png,0,41,41,52,,,None,None,2,2.90756504155,None,None,None,None,None,None,1,0.702160010676,,['return'],[0.2844217217480036],2017_Feb_01_1709,59.8946739443,famFaceFilter,001,8,
27,./img/gray_LeonardoDiCaprio1_1.png,0,42,42,26,,,None,None,1,2.85695799566,None,None,None,None,None,None,1,0.334619771913,Leonardo diCaprio,"['lshift', 'l', 'e', 'o', 'n', 'a', 'r', 'd', 'o', 'space', 'c', 'i', 'backspace', 'backspace', 'd', 'i', 'lshift', 'c', 'a', 'p', 'r', 'i', 'o', 'return']","[0.3670812012096576, 0.6018399354343273, 0.8858295652262314, 1.002813249024257, 1.3196656050968159, 1.4364616320308414, 1.586783118709718, 1.8047107967176998, 1.9216672141337767, 2.138784599435894, 2.288635821225398, 2.5564856777727982, 3.542284383869628, 3.70924509975157, 3.859550226599822, 4.076810038648546, 4.661510005800665, 4.7952698922690615, 4.99564892705348, 5.496826193177185, 5.613826236804016, 5.780880299944329, 5.99797715526438, 6.265492116488531]",2017_Feb_01_1709,59.8946739443,famFaceFilter,001,8,
21,./img/gray_HughLaurie(DrHouse)4_1.png,0,43,43,20,,,None,None,1,1.8882578771,None,None,None,None,None,None,1,1.03624792776,Dr House,"['lshift', 'd', 'r', 'space', 'lshift', 'h', 'o', 'u', 's', 'e', 'return']","[0.5181148216197471, 0.6517781530201319, 0.885722103603257, 1.019511822702043, 1.2034710424613877, 1.2868031995967613, 1.5207307903529, 1.70451967542067, 1.8212646981828584, 1.9549158399058797, 2.155494721228024]",2017_Feb_01_1709,59.8946739443,famFaceFilter,001,8,
3,./img/gray_KatjaBurkard1_1.png,0,44,44,2,,,None,None,1,2.64013508728,None,None,None,None,None,None,3,0.401238599445,,['return'],[0.9193591951225244],2017_Feb_01_1709,59.8946739443,famFaceFilter,001,8,
37,./img/gray_TomCruise1_1.png,0,45,45,36,,,None,None,1,1.06885659551,None,None,None,None,None,None,1,0.233953894794,Tom Cruise,"['lshift', 't', 'o', 'm', 'lshift', 'space', 'c', 'r', 'u', 'i', 's', 'e', 'return']","[0.3847539866656007, 0.58534666156811, 0.7019909591090254, 0.8692442272258631, 1.0867789485564572, 1.1870977406742895, 1.4546508748335327, 1.58822984084145, 1.772035727299226, 1.8720539476580598, 2.022603830380831, 2.2899073969510937]",2017_Feb_01_1709,59.8946739443,famFaceFilter,001,8,
50,./img/gray_BastianSchweinsteiger3_1.png,0,46,46,49,,,None,None,1,1.75452333232,None,None,None,None,None,None,5,0.835566717307,Bastian Schweinsteiger,"['lshift', 'b', 'a', 's', 't', 'i', 'a', 'n', 'space', 'lshift', 's', 'c', 'h', 'w', 'e', 'i', 'n', 's', 't', 'e', 'i', 'g', 'e', 'r', 'return']","[0.3511258770158747, 0.6354577800939296, 0.7689918367668724, 0.9861259026783955, 1.1031756673528434, 1.220146519912305, 1.3703416188927804, 1.470424316223216, 1.67094032447676, 1.804509667055754, 1.8881363011132635, 1.971837356355536, 2.1054788746496342, 2.2223807593018137, 2.3394250707005995, 2.4229368651758705, 2.58985684187428, 2.6903571960156114, 2.8406472461610974, 2.957400930008589, 3.041115137270026, 3.1914366239470837, 3.3418607605344732, 3.4921713406602066, 3.893170958288465]",2017_Feb_01_1709,59.8946739443,famFaceFilter,001,8,
7,./img/gray_OmarEpps(DrEricForeman)1_5.png,0,47,47,6,,,None,None,2,2.08863723266,None,None,None,None,None,None,1,0.668708009773,,['return'],[0.7687281548169267],2017_Feb_01_1709,59.8946739443,famFaceFilter,001,8,
5,./img/gray_OmarEpps(DrEricForeman)2_2.png,0,48,48,4,,,None,None,2,4.22710586285,None,None,None,None,None,None,2,1.06967041681,,['return'],[0.5184586988088995],2017_Feb_01_1709,59.8946739443,famFaceFilter,001,8,
43,./img/gray_LisaEdelstein(DrLisaCuddy)6_3.png,0,49,49,42,,,None,None,2,2.6066035327,None,None,None,None,None,None,1,0.384413317286,,['return'],[0.31790034746882156],2017_Feb_01_1709,59.8946739443,famFaceFilter,001,8,
59,./img/gray_AlysonHannigan(Lily)5_4.png,0,50,50,58,,,None,None,1,1.13617344242,None,None,None,None,None,None,1,0.25101815877,Lilly,"['lshift', 'l', 'i', 'l', 'l', 'y', 'return']","[0.41782297510326316, 0.6018742589967587, 0.8190779343767645, 1.019434514491877, 1.1698265729828563, 1.2869039248198533, 1.5039186602134578]",2017_Feb_01_1709,59.8946739443,famFaceFilter,001,8,
63,./img/gray_JoshRadnor(Ted)3_1.png,0,51,51,62,,,None,None,1,5.66357743909,None,None,None,None,None,None,1,0.367907532964,Ted Mosby,"['lshift', 't', 'e', 'd', 'space', 'lshift', 'm', 'o', 's', 'b', 'y', 'return']","[0.4348294985047687, 0.8357588651033439, 1.0195240123812255, 1.23669143951156, 1.3871110851650883, 1.4870000307964801, 1.60417682473053, 1.8046158455545083, 1.9215754707784072, 2.3227454230982403, 2.4563275969157985, 2.6900158850730804]",2017_Feb_01_1709,59.8946739443,famFaceFilter,001,8,
10,./img/gray_HughLaurie(DrHouse)2_1.png,0,52,52,9,,,None,None,1,5.51351546421,None,None,None,None,None,None,1,0.384482605974,Dr House,"['lshift', 'd', 'r', 'space', 'lshift', 'h', 'o', 'u', 's', 'e', 'return']","[0.5016170568214875, 0.6854409070147085, 0.9358733197495894, 1.035950563804363, 1.2198950276397227, 1.286611051802538, 1.4869544798984862, 1.68774700134054, 1.7879028367296996, 1.90499334058768, 2.105476629181794]",2017_Feb_01_1709,59.8946739443,famFaceFilter,001,8,
61,./img/gray_AlysonHannigan(Lily)8_3.png,0,53,53,60,,,None,None,1,6.13136429426,None,None,None,None,None,None,1,0.201061015106,Lilly,"['lshift', 'l', 'i', 'l', 'l', 'l', 'backspace', 'y', 'return']","[0.40157798569998704, 0.535187425899494, 0.7691214322730957, 0.952750568423653, 1.086630426972988, 1.2202889466570923, 1.7882736595202005, 2.122185467853342, 2.289380995396641]",2017_Feb_01_1709,59.8946739443,famFaceFilter,001,8,
30,./img/gray_BarackObama4_1.png,0,54,54,29,,,None,None,1,1.32034309448,None,None,None,None,None,None,4,0.835453802409,Barack Obama,"['lshift', 'b', 'a', 'r', 'a', 'k', 'c', 'space', 'lshift', 'backspace', 'backspace', 'backspace', 'c', 'backspace', 'capslock', 'c', 'k', 'space', 'lshift', 'o', 'b', 'a', 'm', 'a', 'return']","[0.31782592628587736, 0.651807985648702, 0.9025024764287082, 1.1362946976187231, 1.2198661573511345, 1.3869904715211305, 1.5205158671087702, 1.6374899274778727, 1.8880503318159754, 2.2056648634497833, 2.372503682565366, 2.522953802408665, 2.6732451356765523, 3.3583729604742985, 3.9429491061746376, 4.561080544248398, 4.76180538090739, 4.978681538927049, 5.129259329592969, 5.279609686558615, 5.463493202008976, 5.613794479486387, 5.74733014006415, 5.914518289646367, 6.1483178887992835]",2017_Feb_01_1709,59.8946739443,famFaceFilter,001,8,
42,./img/gray_NicoleKidman5_1.png,0,55,55,41,,,None,None,1,1.45373889456,None,None,None,None,None,None,1,0.167446699035,Nicole Kidman,"['lshift', 'n', 'i', 'c', 'o', 'l', 'e', 'space', 'lshift', 'k', 'i', 'd', 'm', 'a', 'n', 'return']","[0.3846436380154046, 0.5685338898674672, 0.7689889497378317, 0.9526973187839758, 1.103182724533326, 1.2701527430617716, 1.4369691075098672, 1.5543107828598295, 1.7379796958484803, 1.8383446804255072, 2.021992101090291, 2.172362025692564, 2.3227447815352207, 2.506576330471944, 2.5901003146227595, 2.890741363293273]",2017_Feb_01_1709,59.8946739443,famFaceFilter,001,8,
57,./img/gray_UrsulavonderLeyen5_1.png,0,56,56,56,,,None,None,1,1.48711807819,None,None,None,None,None,None,4,1.60389421671,Ursula von der Leyen,"['lshift', 'u', 'r', 's', 'u', 'l', 'a', 'space', 'v', 'o', 'n', 'space', 'd', 'e', 'r', 'space', 'lshift', 'l', 'e', 'y', 'e', 'n', 'return']","[0.38464107176878315, 0.8358345694105083, 1.2199598253937438, 1.4038035640060116, 1.5374944825671264, 1.7379309371426643, 1.8382465214508557, 1.954939577699406, 2.105543351623055, 2.189115452916667, 2.356054355692322, 2.5566704476059385, 2.6232151747353782, 2.7403467385556723, 2.9241295287865796, 3.0243113474334677, 3.258308226877489, 3.2917185262558633, 3.7426759291101916, 3.9600618080748973, 4.143652129729162, 4.31078253873784, 4.978891650456717]",2017_Feb_01_1709,59.8946739443,famFaceFilter,001,8,
44,./img/gray_BritneySpears5_1.png,0,57,57,43,,,None,None,1,2.13842115461,None,None,None,None,None,None,2,0.184191144393,Britney Spears,"['lshift', 'b', 'r', 'i', 'n', 't', 'e', 'y', 'space', 'backspace', 'backspace', 'backspace', 'backspace', 'backspace', 't', 'n', 'e', 'y', 'space', 'lshift', 's', 'p', 'e', 'a', 'r', 's', 'return']","[0.41817455103591783, 0.5518240888541186, 0.7355863491029595, 0.852180925594439, 1.0196956301933824, 1.0860963266732142, 1.186730446475849, 1.453797918260534, 1.6542516950066783, 1.9883755395549088, 2.1388179606547055, 2.3058120377554587, 2.4560658396512736, 2.84034699518088, 3.5254959915218933, 3.6756747306735633, 3.759307138789154, 3.926506515703295, 4.126976652280064, 4.227226797273033, 4.377524866940803, 4.628184713375958, 4.811966220482645, 5.5803915580727335, 5.730859641649658, 5.8477547899019555, 6.115068300683561]",2017_Feb_01_1709,59.8946739443,famFaceFilter,001,8,
