num,pic,trials.thisRepN,trials.thisTrialN,trials.thisN,trials.thisIndex,key_resp_2.keys,key_resp_2.rt,ratingBekannt.response,ratingBekannt.rt,key_resp_5.keys,ratingK1.response,ratingK1.rt,ratingK2.response,ratingK2.rt,ratingK3.response,ratingK3.rt,key_resp_6.keys,inputText,key_resp_4.keys,key_resp_4.rt,date,frameRate,expName,session,participant,
,,,,,,space,10.0607687452,,,,,,,,,,,,,,2017_Feb_02_1304,60.0372465299,famFaceFilter,001,9,
19,./img/smoo15_NicoleKidman7_1.png,0,0,0,18,,,1.ja,7.237,None,act,2.433,None,None,None,None,None,Nicole Kidman,"['lshift', 'n', 'i', 'c', 'o', 'l', 'e', 'space', 'lshift', 'k', 'i', 'd', 'm', 'a', 'n', 'return']","[1.6164242418017238, 1.6996624101175257, 1.9329128322642646, 2.2161816672396526, 2.3825701098867285, 2.5494047588490503, 2.6660002976841497, 2.7493484938695474, 2.8491161842976, 2.965838752392301, 3.115793907214538, 3.2323044390959694, 3.365565831951244, 3.5489607979998254, 3.648699938923528, 3.8654888445216784]",2017_Feb_02_1304,60.0372465299,famFaceFilter,001,9,
44,./img/smoo15_GuentherJauch2_1.png,0,1,1,43,,,1.ja,1.824,None,None,None,host,1.241,None,None,None,Günter Jauch,"['lshift', 'g', u'\xfc', 'n', 't', 'e', 'r', 'space', 'lshift', 'j', 'a', 'u', 'c', 'h', 'return']","[0.8501109260560042, 1.0662877815811953, 1.64971873925424, 1.9159637286556972, 2.1495506500305055, 2.2664127578445914, 2.432847713729643, 2.482780798822205, 2.6492654757566925, 2.7847469936405105, 2.882707404138273, 3.015935114994136, 3.1658719853003277, 3.26570190723578, 4.198647138377055]",2017_Feb_02_1304,60.0372465299,famFaceFilter,001,9,
32,./img/smoo15_TomCruise1_1.png,0,2,2,31,,,2.nein,6.981,None,dummy,1.435,None,None,None,None,None,,['return'],[1.1166930562467314],2017_Feb_02_1304,60.0372465299,famFaceFilter,001,9,
49,./img/smoo15_TomCruise5_1.png,0,3,3,48,,,1.ja,2.191,None,act,0.975,None,None,None,None,None,,['return'],[1.0167011399262265],2017_Feb_02_1304,60.0372465299,famFaceFilter,001,9,
25,./img/smoo15_JasonSegel(Marshall)6_1.png,0,4,4,24,,,2.nein,4.64,None,None,None,host,2.534,None,None,None,,['return'],[0.6834257610207715],2017_Feb_02_1304,60.0372465299,famFaceFilter,001,9,
56,./img/smoo15_MariskaHargitay(Liv)6_5.png,0,5,5,55,,,2.nein,10.209,None,act,1.669,None,None,None,None,None,,['return'],[0.35021967080137983],2017_Feb_02_1304,60.0372465299,famFaceFilter,001,9,
11,./img/smoo15_LeonardoDiCaprio3_1.png,0,6,6,10,,,1.ja,1.441,None,dummy,1.641,None,None,None,None,None,Orlando Bloom,"['lshift', 'o', 'r', 'l', 'a', 'n', 'd', 'o', 'space', 'b', 'backspace', 'lshift', 'b', 'l', 'o', 'o', 'm', 'return']","[3.0490140476395027, 3.2323756524692726, 3.465705307513417, 3.665662515333679, 3.867538314078047, 3.9988259416859364, 4.198366455037103, 4.448666064454301, 4.581772520106824, 4.831749103097536, 5.731336322156494, 6.1144892910488124, 6.281117677854127, 6.414365918692056, 6.564410571401822, 6.714373424965743, 6.93090730970107, 7.164027173997965]",2017_Feb_02_1304,60.0372465299,famFaceFilter,001,9,
63,./img/smoo15_RobertSeanLeonard(Wilson)8_1.png,0,7,7,62,,,1.ja,1.813,None,dummy,0.475,None,None,None,None,None,Freund von Dr House,"['lshift', 'f', 'r', 'e', 'u', 'n', 'd', 'space', 'v', 'o', 'n', 'space', 'lshift', 'd', 'r', 'space', 'lshift', 'h', 'o', 'u', 's', 'e', 'return']","[0.783297384481557, 0.8831783105888462, 1.083136480750909, 1.28312255885794, 1.366440280849929, 1.5329573566632462, 1.6497511381312506, 1.7497908508139517, 1.9163213994270336, 2.0828740819251834, 2.299271955533186, 2.382658645432457, 2.5826896328726434, 2.615905218208354, 2.832580888127268, 2.9825450248154084, 3.115595343801033, 3.2489712554597645, 3.4323825813371514, 3.5654906408944953, 3.648754150906825, 3.832210065336767, 3.9987675595493783]",2017_Feb_02_1304,60.0372465299,famFaceFilter,001,9,
40,./img/smoo15_NeilPatrickHarris(Barney)2_2.png,0,8,8,39,,,1.ja,2.596,None,dummy,0.408,None,None,None,None,None,Neil Patrick Harris,"['lshift', 'n', 'e', 'i', 'l', 'space', 'lshift', 'p', 'a', 't', 'r', 'i', 'c', 'k', 'space', 'lshift', 'h', 'a', 'r', 'r', 'i', 's', 'return']","[0.7001455062436435, 0.816436944729503, 0.9498144602930552, 1.0832513203349663, 1.2664666490454692, 1.3664832654994825, 1.499767754585264, 1.616430657421006, 1.9995714366377797, 2.149540705820982, 2.382896344124674, 2.599369922038022, 2.7492990936025308, 2.832820832285506, 2.9156002838280983, 3.0825308462972316, 3.1991068174938846, 3.2991304911283805, 3.499004616680395, 3.6320388966159953, 3.832090414038248, 3.9820426818314445, 4.26545618901946]",2017_Feb_02_1304,60.0372465299,famFaceFilter,001,9,
20,./img/smoo15_NicoleKidman5_1.png,0,9,9,19,,,1.ja,6.12,None,None,None,music,0.551,None,None,None,Adele,"['lshift', 'a', 'd', 'e', 'l', 'e', 'return']","[0.6499763263655041, 0.8166412821992708, 1.0499285941587004, 1.2499114644542715, 1.3831751027773862, 1.483095805724588, 1.682975705332865]",2017_Feb_02_1304,60.0372465299,famFaceFilter,001,9,
29,./img/smoo15_GuentherJauch3_1.png,0,10,10,28,,,1.ja,1.478,None,None,None,host,1.223,None,None,None,Günther Jauch,"['lshift', 'g', u'\xfc', 'n', 't', 'h', 'e', 'r', 'space', 'lshift', 'j', 'a', 'u', 'c', 'h', 'return']","[0.8337154903856572, 0.9836802686349984, 1.4833652617326152, 1.783606938108278, 2.000086931640908, 2.3498514142593194, 2.4668187382285396, 2.616714869353018, 2.7000341952516465, 2.8333764249091473, 3.649458906676955, 3.78287651986102, 3.8829223273824027, 4.033142447276987, 4.1495230628679565, 4.349404566382873]",2017_Feb_02_1304,60.0372465299,famFaceFilter,001,9,
71,./img/smoo15_AngelaMerkel1_1.png,0,11,11,70,,,1.ja,1.751,None,None,None,None,None,polit,0.792,None,Angela Merkel,"['lshift', 'a', 'n', 'g', 'e', 'l', 'a', 'space', 'lshift', 'm', 'e', 'r', 'k', 'e', 'l', 'return']","[0.883358268707525, 1.0664924398352014, 1.1832544639892149, 1.3663732376298867, 1.51628508702197, 1.73298032457933, 1.89950445757313, 1.9662846379287657, 2.082838475238532, 2.1828153148526326, 2.299495539862619, 2.465818543192654, 2.5826707067972166, 2.7158794915758335, 2.8825746008205897, 3.198902480022298]",2017_Feb_02_1304,60.0372465299,famFaceFilter,001,9,
68,./img/smoo15_AlysonHannigan(Lily)8_3.png,0,12,12,67,,,1.ja,2.024,None,act,0.408,None,None,None,None,None,Lilly,"['lshift', 'l', 'i', 'l', 'l', 'y', 'return']","[0.7168142472928594, 0.833320929803449, 1.0498843263849267, 1.266631851240163, 1.416619725720011, 1.5165715444181842, 1.7330377443704492]",2017_Feb_02_1304,60.0372465299,famFaceFilter,001,9,
6,./img/smoo15_AlysonHannigan(Lily)1_1.png,0,13,13,5,,,1.ja,2.369,None,dummy,0.408,None,None,None,None,None,Lilly,"['lshift', 'l', 'i', 'l', 'l', 'y', 'return']","[0.8000639637230051, 0.9333731529422948, 1.0833164388695877, 1.2998060558311408, 1.4330517304206296, 1.5496674784553761, 1.7164504816846602]",2017_Feb_02_1304,60.0372465299,famFaceFilter,001,9,
46,./img/smoo15_NeilPatrickHarris(Barney)1_1.png,0,14,14,45,,,1.ja,1.441,None,dummy,0.458,None,None,None,None,None,Neil Pattrick Harris,"['lshift', 'n', 'e', 'i', 'l', 'space', 'lshift', 'p', 'a', 't', 't', 'r', 'i', 'k', 'backspace', 'x', 'k', 'space', 'backspace', 'backspace', 'backspace', 'c', 'k', 'space', 'lshift', 'h', 'a', 'r', 'r', 'i', 's', 'return']","[0.8171291900416691, 0.9334052310405241, 1.133305339848448, 1.2665333714849112, 1.4330167652969976, 1.499742412888736, 1.7161220019806933, 1.8163285207647277, 1.9995274896464252, 2.3493535622092168, 2.582593719365832, 2.8159246575341967, 2.9156204930277454, 3.2154512489923945, 3.7654039017234027, 4.0324107459055085, 4.165506936567908, 4.315227600507569, 4.731709711195435, 4.94817366567986, 5.464848501567758, 6.2479547005968925, 6.464447525368087, 6.599489573336541, 6.714372783404542, 6.881005981924318, 6.9642893803538755, 7.214123215817381, 7.397269255840001, 7.582383287055563, 7.763824697054588, 8.363666808665585]",2017_Feb_02_1304,60.0372465299,famFaceFilter,001,9,
51,./img/smoo15_LeonardoDiCaprio1_1.png,0,15,15,50,,,1.ja,4.051,None,act,0.985,None,None,None,None,None,Brad Pitt,"['lshift', 'b', 'r', 'a', 'd', 'space', 'lshift', 'p', 'i', 't', 't', 'return']","[5.2649182393488445, 5.39839744247729, 5.614817770752779, 5.748224156603101, 5.96464320175437, 6.098041568080589, 6.281252726637831, 6.464398445879851, 6.681166179934735, 7.014191349691828, 7.214106535206156, 7.397301013153992]",2017_Feb_02_1304,60.0372465299,famFaceFilter,001,9,
10,./img/smoo15_KatjaBurkard5_3.png,0,16,16,9,,,1.ja,1.817,None,None,None,host,1.374,None,None,None,Zitlow,"['lshift', 'z', 'i', 't', 'l', 'o', 'w', 'return']","[0.933165607662886, 1.1499808172993653, 1.4498442929216253, 1.7330541042010736, 2.0829356718695635, 2.4991990099424584, 2.849342014094873, 3.732312458620072]",2017_Feb_02_1304,60.0372465299,famFaceFilter,001,9,
41,./img/smoo15_AngelaMerkel3_1.png,0,17,17,40,,,1.ja,1.524,None,None,None,None,None,polit,0.708,None,Angela Merkel,"['lshift', 'a', 'n', 'g', 'e', 'l', 'a', 'space', 'lshift', 'm', 'e', 'r', 'k', 'e', 'l', 'return']","[1.916196615633453, 2.082664611958535, 2.249500544045077, 2.466002029903393, 2.6158715362071234, 2.8491530741084716, 2.999159233102546, 3.065828423246785, 3.2156802865993086, 3.298893433999183, 3.4323963749193354, 3.632035368025754, 3.6987886027818604, 3.83228192027309, 3.998770446578419, 4.681771814388412]",2017_Feb_02_1304,60.0372465299,famFaceFilter,001,9,
35,./img/smoo15_KatjaBurkard1_1.png,0,18,18,34,,,2.nein,5.599,None,act,1.786,None,None,None,None,None,,['return'],[0.8665284956150572],2017_Feb_02_1304,60.0372465299,famFaceFilter,001,9,
28,./img/smoo15_HughLaurie(DrHouse)5_3.png,0,19,19,27,,,1.ja,1.641,None,act,0.691,None,None,None,None,None,Dr House,"['lshift', 'd', 'r', 'space', 'lshift', 'h', 'o', 'u', 's', 'e', 'return']","[0.9501525634241261, 1.0834405811019678, 1.2833506341194152, 1.350126644323609, 1.4832398363760149, 1.599842432391597, 1.7665843756567483, 1.8831629131018417, 1.99972220368727, 2.199646691849921, 2.3325061461637233]",2017_Feb_02_1304,60.0372465299,famFaceFilter,001,9,
12,./img/smoo15_MariskaHargitay(Liv)8_8.png,0,20,20,11,,,2.nein,7.805,None,act,3.0,None,None,None,None,None,,['return'],[0.6335481710339081],2017_Feb_02_1304,60.0372465299,famFaceFilter,001,9,
67,./img/smoo15_GeorgeClooney4_2.png,0,21,21,66,,,1.ja,3.69,None,act,1.358,None,None,None,None,None,Clooney,"['lshift', 'c', 'l', 'o', 'o', 'n', 'e', 'y', 'return']","[1.2998419832983927, 1.4329840456375678, 1.566377600251144, 1.7496500279721658, 1.8826124529732624, 2.099572014041769, 2.2160286547223222, 2.5993853195232077, 2.682768160051637]",2017_Feb_02_1304,60.0372465299,famFaceFilter,001,9,
47,./img/smoo15_BarackObama4_1.png,0,22,22,46,,,1.ja,1.267,None,None,None,None,None,polit,0.475,None,Barack Obama,"['lshift', 'b', 'a', 'r', 'a', 'c', 'k', 'space', 'lshift', 'o', 'b', 'a', 'm', 'a', 'return']","[0.9665040521049377, 1.1664538819622976, 1.2997120670097502, 1.4497143766311638, 1.533067384531023, 1.8161405431201274, 1.9828908266899816, 2.082924444534001, 2.2329033371479454, 2.3327775268553523, 2.566031798374752, 2.6659268388448254, 2.832507750066725, 2.899157051791917, 3.08255458408712]",2017_Feb_02_1304,60.0372465299,famFaceFilter,001,9,
23,./img/smoo15_JoachimLoew4_1.png,0,23,23,22,,,1.ja,1.757,None,None,None,None,None,sport,0.608,None,Jogi Löw,"['lshift', 'j', 'o', 'g', 'i', 'space', 'lshift', 'l', u'\xf6', 'w', 'return']","[0.8499704239966377, 1.0331350693140848, 1.1832092338736402, 1.4664665207328653, 1.6664221246483066, 1.7831142185514182, 1.9330196523242194, 2.0829991864993644, 2.632865228370065, 2.9324675882926385, 3.199105213589064]",2017_Feb_02_1304,60.0372465299,famFaceFilter,001,9,
53,./img/smoo15_GuentherJauch4_1.png,0,24,24,52,,,1.ja,1.68,None,None,None,host,0.991,None,None,None,Günther Jauch,"['lshift', 'g', u'\xfc', 'n', 't', 'h', 'e', 'r', 'space', 'lshift', 'j', 'a', 'u', 'c', 'h', 'return']","[1.0002425104066788, 1.1334490497192746, 1.3169678372178169, 1.5334398112281633, 1.7167741496741655, 2.0499308396247216, 2.199869313837553, 2.3497346499898413, 2.4330780344607774, 2.5828942911266495, 2.732856182348769, 2.866204827625552, 2.9826861684396135, 3.149337972254216, 3.2660733715874812, 3.5993535622092168]",2017_Feb_02_1304,60.0372465299,famFaceFilter,001,9,
58,./img/smoo15_EmilyDeschanel3_1.png,0,25,25,57,,,1.ja,8.541,None,None,None,music,6.4,None,None,None,,['return'],[1.8831090219009639],2017_Feb_02_1304,60.0372465299,famFaceFilter,001,9,
61,./img/smoo15_OmarEpps(DrEricForeman)3_1.png,0,26,26,60,,,1.ja,2.149,None,act,1.025,None,None,None,None,None,Arzt bei Dr House,"['lshift', 'a', 'r', 'z', 't', 'space', 'b', 'e', 'i', 'space', 'lshift', 'd', 'r', 'space', 'lshift', 'h', 'o', 'u', 's', 'e', 'return']","[1.2333463356535503, 1.3499264770034642, 1.8330768154901307, 1.9829572283488233, 2.1164226378969033, 2.2164065346914867, 2.3828751725795883, 2.532835459896887, 2.6493822400261706, 2.7160309001883434, 2.9492251856663643, 2.9992724687799637, 3.199231280505046, 3.2823886120186216, 3.4157667691451934, 3.532358458607632, 3.698745938912907, 3.8654910899876995, 3.9490089792998333, 4.165523617177314, 4.265441753876075]",2017_Feb_02_1304,60.0372465299,famFaceFilter,001,9,
26,./img/smoo15_TomCruise4_1.png,0,27,27,25,,,1.ja,1.851,None,dummy,0.642,None,None,None,None,None,,['return'],[0.6170917869803816],2017_Feb_02_1304,60.0372465299,famFaceFilter,001,9,
69,./img/smoo15_BritneySpears5_1.png,0,28,28,68,,,1.ja,1.441,None,None,None,music,0.624,None,None,None,Britney Spears,"['lshift', 'b', 'r', 'i', 't', 'n', 'e', 'y', 'space', 'lshift', 's', 'p', 'e', 'a', 'r', 's', 'return']","[0.7833779005013639, 0.8668162361354916, 1.1498541088203638, 1.3499973695961671, 1.5166459656029474, 1.649189771451347, 1.8161658848166553, 2.19943144782701, 2.3160654803759826, 2.4821081211484852, 2.5489437966098194, 2.815459525141705, 3.032185557671255, 3.2824617500791646, 3.532465278669406, 3.8655093745037448, 4.332119925888037]",2017_Feb_02_1304,60.0372465299,famFaceFilter,001,9,
65,./img/smoo15_UrsulavonderLeyen4_1.png,0,29,29,64,,,1.ja,4.301,None,None,None,None,None,polit,1.417,None,Verteidigungsministerin,"['lshift', 'v', 'e', 'r', 't', 'e', 'i', 'd', 'i', 'g', 'u', 'n', 'g', 's', 'm', 'i', 'n', 'i', 's', 't', 'e', 'r', 'i', 'n', 'return']","[14.561557545537653, 14.67826632005199, 14.89468664832566, 15.112144703007289, 15.344626854754097, 15.5446507850138, 15.777859826417625, 16.04434668466456, 16.244256096120807, 16.494023529923652, 16.710753411825863, 16.92731552528494, 17.143935379315735, 17.293742654115704, 17.493671953990997, 17.610454828907677, 17.77695650723399, 17.9103308149879, 18.12684352817996, 18.36019050539653, 18.510130904292964, 18.709963328319645, 18.893227415735964, 19.44308223027474, 20.35918100771414]",2017_Feb_02_1304,60.0372465299,famFaceFilter,001,9,
5,./img/smoo15_BarackObama1_3.png,0,30,30,4,,,1.ja,5.15,None,None,None,None,None,polit,0.915,None,Obama,"['lshift', 'o', 'b', 'a', 'm', 'a', 'return']","[1.3664290535180044, 1.4831349410033, 1.8329991865011834, 1.9496611269933055, 2.116221829017377, 2.216104679810087, 2.7657590062462987]",2017_Feb_02_1304,60.0372465299,famFaceFilter,001,9,
30,./img/smoo15_KatjaBurkard4_1.png,0,31,31,29,,,1.ja,1.508,None,None,None,host,0.524,None,None,None,Zitlow,"['lshift', 'z', 'i', 't', 'l', 'o', 'w', 'return']","[0.8667552877541311, 1.0167906378155749, 1.1830424277723068, 1.2998070181747607, 1.4166226127490518, 1.5664026211652526, 1.8829858420122036, 2.099581637470692]",2017_Feb_02_1304,60.0372465299,famFaceFilter,001,9,
50,./img/smoo15_OmarEpps(DrEricForeman)2_2.png,0,32,32,49,,,1.ja,1.812,None,dummy,0.975,None,None,None,None,None,Arzt bei Dr House,"['lshift', 'a', 'r', 'z', 't', 'space', 'b', 'e', 'i', 'space', 'lshift', 'd', 'r', 'space', 'lshift', 'h', 'o', 'u', 's', 'e', 'return']","[0.8998849037925538, 1.0332816662139521, 1.666365346418388, 1.7996700447056355, 1.9342229017092905, 2.016221572392169, 2.166207522186596, 2.2665869419070077, 2.3827853539114585, 2.484373155510184, 2.665932933683507, 2.7159750843020447, 2.8992285859476397, 2.999159553884965, 3.1157409783572803, 3.265509117878537, 3.3989222401305597, 3.565627293584839, 3.6488353084896517, 3.815514699466803, 3.998723933340443]",2017_Feb_02_1304,60.0372465299,famFaceFilter,001,9,
42,./img/smoo15_OmarEpps(DrEricForeman)1_5.png,0,33,33,41,,,1.ja,1.766,None,dummy,0.408,None,None,None,None,None,Arzt bei Dr House,"['lshift', 'a', 'r', 'z', 't', 'space', 'b', 'e', 'i', 'space', 'lshift', 'd', 'r', 'space', 'lshift', 'h', 'o', 'u', 's', 'e', 'return']","[0.7335246898674086, 0.866899318403739, 1.1500860334526806, 1.4000074421182944, 1.499941617863442, 1.5831807485228637, 1.7683053655091499, 1.9664434245023585, 2.099337843939793, 2.1997628145563795, 2.382642606382433, 2.4995448118170316, 2.732693225618277, 2.78265838880543, 2.9159672572441195, 3.0159476254502806, 3.132709649604294, 3.3158277816837654, 3.343857622010546, 3.565746944881539, 3.6991321591885935]",2017_Feb_02_1304,60.0372465299,famFaceFilter,001,9,
36,./img/smoo15_BastianSchweinsteiger6_2.png,0,34,34,35,,,1.ja,1.446,None,None,None,None,None,sport,0.758,None,Schweinsteiger,"['lshift', 's', 'c', 'h', 'w', 'e', 'i', 'n', 's', 't', 'e', 'i', 'g', 'e', 'r', 'return']","[0.6833927205825603, 0.8001043821259373, 1.0167104425763682, 1.0832288656674791, 1.2499348814653786, 1.4495706667639752, 1.5163771511579398, 1.6511564795200684, 1.7328799201386573, 2.0161978346004616, 2.2492660531625006, 2.332840720706372, 2.4994091214721266, 2.5827829801328335, 2.7492721480011824, 2.965866018776069]",2017_Feb_02_1304,60.0372465299,famFaceFilter,001,9,
8,./img/smoo15_AngelaMerkel4_1.png,0,35,35,7,,,1.ja,1.84,None,None,None,None,None,polit,0.474,None,Angela Merkel,"['lshift', 'a', 'n', 'g', 'e', 'l', 'a', 'space', 'lshift', 'm', 'e', 'r', 'k', 'e', 'l', 'return']","[0.6999803040489496, 0.8833104723435099, 1.3331181962348637, 1.5328476495724317, 1.6329598587526561, 1.7995356374813127, 1.96614189039974, 2.0495173529652675, 2.2160523925122106, 2.3492833111777145, 2.4160115250178933, 2.582445518561144, 2.7325216078043013, 2.8490565190386405, 2.9655391429751035, 3.4156759881334438]",2017_Feb_02_1304,60.0372465299,famFaceFilter,001,9,
38,./img/smoo15_AlysonHannigan(Lily)5_4.png,0,36,36,37,,,1.ja,1.59,None,act,0.61,None,None,None,None,None,Lilly,"['lshift', 'l', 'i', 'l', 'l', 'y', 'return']","[0.6834501403736795, 0.8334787540352409, 1.0333637861385796, 1.2496089680080331, 1.3671585094198235, 1.4997616597447632, 1.666405444037082]",2017_Feb_02_1304,60.0372465299,famFaceFilter,001,9,
16,./img/smoo15_WillSmith4_1.png,0,37,37,15,,,1.ja,1.774,None,act,2.158,None,None,None,None,None,Will Smith,"['lshift', 'w', 'i', 'l', 'l', 'space', 'lshift', 's', 'm', 'i', 't', 'h', 'return']","[0.7832213593937922, 0.8666503923795972, 1.0500463207717985, 1.2665231064947875, 1.4331726648433687, 1.5498108675456024, 1.6662723199387983, 1.749686276221837, 1.8661820521774644, 2.001431966207747, 2.199467696074862, 2.2828662548690772, 2.682652678906379]",2017_Feb_02_1304,60.0372465299,famFaceFilter,001,9,
3,./img/smoo15_JoshRadnor(Ted)3_1.png,0,38,38,2,,,2.nein,2.83,None,dummy,0.807,None,None,None,None,None,,['return'],[0.899966702936581],2017_Feb_02_1304,60.0372465299,famFaceFilter,001,9,
31,./img/smoo15_BritneySpears1_1.png,0,39,39,30,,,1.ja,1.408,None,None,None,music,0.475,None,None,None,Britney Spears,"['lshift', 'b', 'r', 'i', 't', 'n', 'e', 'y', 'space', 'lshift', 's', 'p', 'e', 'a', 'r', 's', 'return']","[0.7683881269986159, 0.8499858214818232, 1.1167126238869969, 1.249972412837451, 1.4499116569240869, 1.5166552682512702, 1.7330464054575714, 2.0828221154097264, 2.16634096706548, 2.31624287224804, 2.39931904617697, 2.649434527324047, 2.932615468314907, 3.215692476274853, 3.3158056477986975, 3.449119969513049, 3.7322088463697582]",2017_Feb_02_1304,60.0372465299,famFaceFilter,001,9,
57,./img/smoo15_UrsulavonderLeyen5_1.png,0,40,40,56,,,1.ja,6.705,None,None,None,None,None,polit,1.304,None,Verteidigungsministerin,"['lshift', 'v', 'e', 'r', 't', 'e', 'i', 'd', 'i', 'g', 'u', 'n', 'g', 's', 'm', 'i', 'n', 'i', 's', 't', 'e', 'r', 'i', 'n', 'return']","[0.8165796922548907, 1.0165356169509323, 1.1663278150463157, 1.3663697090396454, 1.533087593732489, 1.7495499443120934, 1.84951491503125, 3.032471694288688, 3.232034662307342, 4.065751756596001, 4.231680840908666, 4.415333714849112, 4.614973991079751, 4.798463908293343, 4.89846063632649, 5.015908169392787, 5.148380761867884, 5.281553939959849, 5.498142036676654, 5.648157177538451, 5.781348640144643, 5.981218916325815, 6.131099008402089, 6.280990007031505, 6.56446253791546]",2017_Feb_02_1304,60.0372465299,famFaceFilter,001,9,
14,./img/smoo15_BritneySpears7_1.png,0,41,41,13,,,1.ja,1.769,None,None,None,music,0.607,None,None,None,Britney Spears,"['lshift', 'b', 'r', 'i', 'n', 'backspace', 't', 'n', 'e', 'y', 'space', 'lshift', 's', 'p', 'e', 'a', 'r', 's', 'return']","[0.8167339878982602, 0.8835314904263214, 1.1834260818013718, 1.3166804174779827, 1.516671948860676, 2.0996246221202455, 2.282950620261545, 2.4495475705334684, 2.9326517165627592, 3.3991692414692807, 3.499223068514766, 3.6321421880857088, 3.665794997870762, 3.9322542689533293, 4.182169903560862, 4.448650666967296, 4.51548666321105, 4.6653513578021375, 4.898504262537244]",2017_Feb_02_1304,60.0372465299,famFaceFilter,001,9,
33,./img/smoo15_Ice-T(OdafinFinTutuola)7_1.png,0,42,42,32,,,2.nein,4.401,None,None,None,host,3.282,None,None,None,,['return'],[0.6666569363114832],2017_Feb_02_1304,60.0372465299,famFaceFilter,001,9,
70,./img/smoo15_JasonSegel(Marshall)7_1.png,0,43,43,69,,,1.ja,2.107,None,act,1.041,None,None,None,None,None,Marshall,"['lshift', 'm', 'a', 'r', 's', 'h', 'a', 'l', 'l', 'return']","[0.8832251446074224, 1.0166414746690862, 1.1500940529786021, 1.349862641593063, 1.6830302380967623, 1.9496037072021863, 2.0660783116145467, 2.432617713780928, 2.5992249290429754, 2.915867173585866]",2017_Feb_02_1304,60.0372465299,famFaceFilter,001,9,
37,./img/smoo15_Ice-T(OdafinFinTutuola)5_1.png,0,44,44,36,,,2.nein,3.148,None,None,None,host,1.407,None,None,None,,['return'],[0.5168897591320274],2017_Feb_02_1304,60.0372465299,famFaceFilter,001,9,
39,./img/smoo15_BarackObama2_1.png,0,45,45,38,,,1.ja,1.258,None,None,None,None,None,polit,0.525,None,Obama,"['lshift', 'o', 'b', 'a', 'm', 'a', 'return']","[0.7666915164973034, 0.8668075750501885, 1.2165698122025788, 1.3830214486970362, 1.5329535072905855, 1.6498695063055493, 2.016220610048549]",2017_Feb_02_1304,60.0372465299,famFaceFilter,001,9,
54,./img/smoo15_LisaEdelstein(DrLisaCuddy)6_3.png,0,46,46,53,,,1.ja,1.591,None,dummy,0.425,None,None,None,None,None,Chefin von Dr House,"['lshift', 'c', 'h', 'e', 'f', 'i', 'n', 'space', 'v', 'o', 'n', 'space', 'lshift', 'd', 'r', 'space', 'lshift', 'h', 'o', 'u', 's', 'e', 'return']","[0.71672378706171, 0.8833810441537935, 1.0000834030488477, 1.2498149093844404, 1.5662617983234668, 1.6995379471045453, 1.8828751725795883, 1.9995185077768838, 2.2325982744550856, 2.482770213049662, 2.649292421356222, 2.749430934574775, 2.915706141542614, 2.9991220225110737, 3.198896064401197, 3.4657672182383976, 3.5822761462131893, 3.6487733977628523, 3.815530738513189, 3.965514122060995, 4.01539395751206, 4.2154310397909285, 4.4319354126782855]",2017_Feb_02_1304,60.0372465299,famFaceFilter,001,9,
52,./img/smoo15_BastianSchweinsteiger3_1.png,0,47,47,51,,,1.ja,1.784,None,None,None,None,None,sport,0.758,None,Schweinsteiger,"['lshift', 's', 'c', 'h', 'w', 'e', 'i', 'n', 's', 't', 'e', 'i', 'g', 'e', 'r', 'return']","[0.7668249613780063, 0.8834163300598448, 1.1000701868742908, 1.2000091743357189, 1.3165886741226132, 1.5331411641527666, 1.5999264770034642, 1.7161348332192574, 1.799702443580827, 1.982818009413677, 2.0995428229743993, 2.2995237685863685, 2.5158331066486426, 2.599386602647428, 2.799357604048055, 2.9993125664022955]",2017_Feb_02_1304,60.0372465299,famFaceFilter,001,9,
43,./img/smoo15_JoachimLoew1_1.png,0,48,48,42,,,1.ja,1.185,None,None,None,None,None,sport,0.891,None,Jogi Löw,"['lshift', 'j', 'o', 'g', 'i', 'space', 'lshift', 'l', u'\xf6', 'w', 'return']","[0.8666744509500859, 1.0333307457003684, 1.4999255788170558, 1.6164903226799652, 1.7831732422473578, 1.949618142343752, 2.1330756606803334, 2.283020550510628, 3.7657545153124374, 4.115608175037778, 4.398575796691148]",2017_Feb_02_1304,60.0372465299,famFaceFilter,001,9,
7,./img/smoo15_LisaEdelstein(DrLisaCuddy)2_2.png,0,49,49,6,,,1.ja,1.835,None,act,1.19,None,None,None,None,None,Chefin von Dr House,"['lshift', 'c', 'h', 'e', 'f', 'i', 'n', 'space', 'v', 'o', 'n', 'space', 'lshift', 'd', 'r', 'space', 'lshift', 'h', 'o', 'u', 's', 'e', 'return']","[0.6999607364105032, 0.8335040957317688, 1.0168515861969354, 1.1001821394293074, 1.3500002566252078, 1.4832141738988867, 1.6166093324172834, 1.7831353900946851, 2.032913730452492, 2.216294261357689, 2.399607428260424, 2.4662208025165455, 2.6825926928668196, 2.7659973464997165, 2.9825546482443315, 3.0824692563528515, 3.232526419520582, 3.3324958811717806, 3.5000535704202775, 3.665671817982002, 3.732376294030473, 3.9323986203853565, 4.032234637157671]",2017_Feb_02_1304,60.0372465299,famFaceFilter,001,9,
4,./img/smoo15_UrsulavonderLeyen1_1.png,0,50,50,3,,,1.ja,2.457,None,None,None,None,None,polit,1.707,None,Verteidigungsministerin,"['lshift', 'v', 'e', 'r', 't', 'e', 'i', 'd', 'i', 'g', 'u', 'n', 'g', 's', 'm', 'i', 'n', 'i', 's', 't', 'e', 'r', 'i', 'n', 'return']","[1.8163971678895905, 1.8997476095410093, 2.0997234226560977, 2.2997293891821755, 2.499597419895508, 2.7325427793493873, 2.866090308822095, 2.999378647280537, 3.165718652002397, 3.7322980234766874, 3.8323528128639737, 4.049150058766827, 4.232058400099049, 4.414939154268723, 4.548214340706181, 4.69857207563291, 4.831994500531437, 4.965374261562829, 5.115317868270722, 5.281291220353523, 5.41520700637011, 5.648463523355531, 5.748290558261942, 5.898085322603947, 6.18142825797986]",2017_Feb_02_1304,60.0372465299,famFaceFilter,001,9,
2,./img/smoo15_WillSmith5_1.png,0,51,51,1,,,1.ja,1.435,None,act,1.008,None,None,None,None,None,Will Smith,"['lshift', 'w', 'i', 'l', 'l', 'space', 'lshift', 's', 'm', 'i', 't', 'h', 'return']","[0.8330822687694308, 0.9664722947909468, 1.1497893110663426, 1.36638318183941, 1.5163069001282565, 1.6162680214747525, 1.749317378116757, 1.832889479412188, 1.9660677899992152, 2.1327131781963544, 2.249359721203291, 2.366011075926508, 2.8493025580373796]",2017_Feb_02_1304,60.0372465299,famFaceFilter,001,9,
21,./img/smoo15_NeilPatrickHarris(Barney)3_7.png,0,52,52,20,,,1.ja,1.374,None,act,0.908,None,None,None,None,None,Neil Patrick Harris,"['lshift', 'n', 'e', 'i', 'l', 'space', 'lshift', 'p', 'a', 't', 'r', 'i', 'c', 'k', 'space', 'lshift', 'h', 'a', 'r', 'r', 'i', 's', 'return']","[0.6669976056909945, 0.8166817006003839, 0.9500604992881563, 1.0499892217594606, 1.266653985125231, 1.3667033212368551, 1.4832170609279274, 1.5997952775906015, 1.7665526183409384, 1.9496752413542708, 2.382928742999866, 2.549411816029533, 2.732822179565119, 2.7992902400455932, 2.9161135333633865, 3.0157670257704012, 3.1325171810276515, 3.232467075042223, 3.448987486975966, 3.6157220522782154, 3.7822667152540816, 3.8822826901450753, 4.098863088118378]",2017_Feb_02_1304,60.0372465299,famFaceFilter,001,9,
62,./img/smoo15_RobertSeanLeonard(Wilson)1_1.png,0,53,53,61,,,1.ja,1.7,None,dummy,0.424,None,None,None,None,None,Freund von Dr House,"['lshift', 'f', 'r', 'e', 'u', 'n', 'd', 'space', 'v', 'o', 'n', 'space', 'lshift', 'd', 'r', 'space', 'lshift', 'h', 'o', 'u', 's', 'e', 'return']","[0.8667337954284449, 1.0166764397927182, 1.2499117852348718, 1.5997487643508066, 1.7163706072260538, 1.9161420828695555, 2.0328174961632612, 2.1161512572052743, 2.332660441805274, 2.482720492000226, 2.6827232507166627, 2.83264889369093, 3.0158340689904435, 3.0657770982925285, 3.2656855474069744, 3.3489920420652197, 3.465556785928129, 3.5821366064974427, 3.7155234247093176, 3.8654468222157448, 3.948443442466669, 4.115357003545796, 4.232119990043429]",2017_Feb_02_1304,60.0372465299,famFaceFilter,001,9,
48,./img/smoo15_JoshRadnor(Ted)6_2.png,0,54,54,47,,,2.nein,5.816,None,None,None,music,3.634,None,None,None,,['return'],[0.5335546508104017],2017_Feb_02_1304,60.0372465299,famFaceFilter,001,9,
45,./img/smoo15_RobertSeanLeonard(Wilson)2_6.png,0,55,55,44,,,1.ja,1.591,None,dummy,1.708,None,None,None,None,None,Freund von dR House,"['lshift', 'f', 'r', 'e', 'u', 'n', 'd', 'space', 'v', 'o', 'n', 'space', 'd', 'lshift', 'r', 'space', 'lshift', 'h', 'o', 'u', 's', 'e', 'return']","[0.8832931501710846, 0.9832895574254508, 1.1667323198362283, 1.3665756504142337, 1.4499325076849345, 1.6497466471973894, 1.6746225691222207, 2.532667691453753, 2.7659165096974903, 2.932582427874877, 3.1157730564518715, 3.2158201470974745, 3.3824193428354192, 3.4111080672555545, 3.565672844479195, 3.6489928119390243, 3.7822202020142868, 3.8822227041055157, 4.015737193140012, 4.18210350190202, 4.232067381964953, 4.398464806479751, 4.5151511263266]",2017_Feb_02_1304,60.0372465299,famFaceFilter,001,9,
18,./img/smoo15_HughLaurie(DrHouse)4_1.png,0,56,56,17,,,1.ja,5.316,None,act,0.736,None,None,None,None,None,Dr House,"['lshift', 'd', 'r', 'space', 'lshift', 'h', 'o', 'u', 's', 'e', 'return']","[0.8162149643030716, 0.9325320652642404, 1.2993608118576958, 1.5492844659893308, 1.7324083721268835, 1.9491587840093416, 2.1323689802247827, 2.8987522262195853, 3.0152858543297043, 3.198654516339957, 3.348311665647998]",2017_Feb_02_1304,60.0372465299,famFaceFilter,001,9,
15,./img/smoo15_LisaEdelstein(DrLisaCuddy)1_1.png,0,57,57,14,,,1.ja,1.361,None,act,0.407,None,None,None,None,None,Chefin von Dr House,"['lshift', 'c', 'e', 'backspace', 'h', 'e', 'f', 'i', 'n', 'space', 'v', 'o', 'n', 'space', 'lshift', 'd', 'r', 'space', 'lshift', 'h', 'o', 'u', 's', 'e', 'return']","[0.7665991315807332, 0.8833207373336336, 1.1017404933354555, 1.7498806694820814, 2.349362223292701, 2.449329760260298, 2.699202731000696, 2.84966760676798, 2.982561384644214, 3.132488952302083, 3.848682809219099, 3.9482737493381137, 4.098640145351965, 4.182038062584979, 4.365284186267672, 4.481897688836398, 4.665268917093272, 4.7486087729739666, 4.898403216533552, 5.015066760932314, 5.09834855545887, 5.2815478451211675, 5.311400042086461, 5.5148768586041115, 5.664794161271857]",2017_Feb_02_1304,60.0372465299,famFaceFilter,001,9,
24,./img/smoo15_BastianSchweinsteiger1_1.png,0,58,58,23,,,1.ja,1.501,None,None,None,None,None,sport,0.907,None,Schweinsteiger,"['lshift', 's', 'c', 'h', 'w', 'e', 'i', 'n', 's', 't', 'e', 'i', 'g', 'e', 'r', 'return']","[0.8667642696200346, 0.9668174551025004, 1.2166429502613028, 1.266733538803237, 1.449831140902461, 1.649650733690578, 1.8331104974913615, 2.0331572032009717, 2.1997034700798395, 2.349633603986149, 2.4828071028605336, 2.716022880664241, 2.882556957867564, 2.999274072686603, 3.1991905413233326, 3.3825117277519894]",2017_Feb_02_1304,60.0372465299,famFaceFilter,001,9,
72,./img/smoo15_HughLaurie(DrHouse)2_1.png,0,59,59,71,,,1.ja,1.534,None,dummy,0.407,None,None,None,None,None,Dr House,"['lshift', 'd', 'r', 'space', 'lshift', 'h', 'o', 'u', 's', 'e', 'return']","[0.7501164434888778, 0.89999429009913, 1.1166452598845353, 1.316575842884049, 1.4831875490799575, 1.6164839070606831, 1.7829820567967545, 1.9163085681884695, 1.9995512274363136, 2.182873055426171, 2.2829355435569596]",2017_Feb_02_1304,60.0372465299,famFaceFilter,001,9,
27,./img/smoo15_JasonSegel(Marshall)9_1.png,0,60,60,26,,,1.ja,3.906,None,dummy,2.007,None,None,None,None,None,Marshall,"['lshift', 'm', 'a', 'r', 's', 'h', 'a', 'l', 'l', 'return']","[1.0666656615521788, 1.2163847215870192, 1.316606637856239, 1.5665431232264382, 1.7830529493876384, 1.9495414756947866, 2.066059706317901, 2.649355935987842, 2.849366714228381, 3.082500372105642]",2017_Feb_02_1304,60.0372465299,famFaceFilter,001,9,
60,./img/smoo15_LeonardoDiCaprio2_1.png,0,61,61,59,,,1.ja,1.384,None,dummy,0.443,None,None,None,None,None,Orlando Bloom,"['lshift', 'o', 'r', 'l', 'a', 'n', 'd', 'o', 'space', 'lshift', 'b', 'l', 'o', 'o', 'm', 'return']","[0.8167208358772768, 0.9666958791185607, 1.1333463998107618, 1.2832611362318858, 1.8327557137490658, 2.016279954525089, 2.1662521107373323, 2.316184490111482, 2.4161728778399265, 2.599255082452146, 2.882492160113543, 3.1658399072039174, 3.299137227528263, 3.4323309356022946, 3.6156947858980857, 3.8156183117171167]",2017_Feb_02_1304,60.0372465299,famFaceFilter,001,9,
13,./img/smoo15_GeorgeClooney3_1.png,0,62,62,12,,,2.nein,4.756,None,dummy,3.151,None,None,None,None,None,,['return'],[0.5685387015801098],2017_Feb_02_1304,60.0372465299,famFaceFilter,001,9,
66,./img/smoo15_NicoleKidman3_1.png,0,63,63,65,,,1.ja,2.127,None,act,0.775,None,None,None,None,None,Nicole Kidmann,"['lshift', 'n', 'i', 'c', 'o', 'l', 'e', 'space', 'lshift', 'i', 'backspace', 'lshift', 'k', 'i', 'd', 'm', 'a', 'n', 'n', 'return']","[0.8834320483274496, 0.9668617228762741, 1.2001220892343554, 1.5498775899850443, 1.683502748450337, 1.8497744268279348, 1.9829684556825669, 2.0663939600799495, 2.1828461098248226, 2.449547249752868, 3.0492373111883353, 3.415761957430732, 3.5991944548513857, 3.765716021596745, 3.899068837028608, 4.065484866838233, 4.348898374026248, 4.515245115147991, 4.698649383843076, 4.915187117949245]",2017_Feb_02_1304,60.0372465299,famFaceFilter,001,9,
59,./img/smoo15_JoshRadnor(Ted)1_2.png,0,64,64,58,,,2.nein,4.544,None,dummy,0.403,None,None,None,None,None,,['return'],[2.8827356328638416],2017_Feb_02_1304,60.0372465299,famFaceFilter,001,9,
64,./img/smoo15_JoachimLoew8_1.png,0,65,65,63,,,1.ja,1.364,None,None,None,None,None,sport,0.607,None,Jogi Löw,"['lshift', 'j', 'o', 'g', 'i', 'space', 'lshift', 'l', u'\xf6', 'w', 'return']","[0.883424028803347, 1.000150446270709, 1.133322341238454, 1.383319133428813, 1.7165120716290403, 1.7998567392223777, 1.9996711995154328, 2.1160867802318535, 2.2662536504867603, 2.732803253487873, 2.8991285022857483]",2017_Feb_02_1304,60.0372465299,famFaceFilter,001,9,
22,./img/smoo15_WillSmith1_1.png,0,66,66,21,,,1.ja,2.607,None,act,1.191,None,None,None,None,None,Will Smith,"['lshift', 'w', 'i', 'l', 'l', 'space', 'lshift', 's', 'm', 'i', 't', 'h', 'return']","[0.8499370627760072, 0.9500094951163192, 1.133297961887365, 1.3494892525559408, 1.4831650944124704, 1.5831133845222212, 1.7497196374406485, 1.8831077387767436, 1.9161112878973654, 2.066392356175129, 2.2496201953435957, 2.3828613789992232, 2.6162311316638807]",2017_Feb_02_1304,60.0372465299,famFaceFilter,001,9,
17,./img/smoo15_GeorgeClooney11_1.png,0,67,67,16,,,2.nein,8.598,None,None,None,music,1.584,None,None,None,,['return'],[0.6502525187734136],2017_Feb_02_1304,60.0372465299,famFaceFilter,001,9,
55,./img/smoo15_MariskaHargitay(Liv)4_4.png,0,68,68,54,,,2.nein,3.64,None,None,None,host,0.907,None,None,None,,['return'],[0.5166366629546246],2017_Feb_02_1304,60.0372465299,famFaceFilter,001,9,
9,./img/smoo15_EmilyDeschanel6_12.png,0,69,69,8,,,1.ja,3.49,None,None,None,music,0.592,None,None,None,Adele,"['lshift', 'a', 'd', 'e', 'l', 'e', 'return']","[0.8000312440653943, 0.9166088191668678, 1.1164428470983694, 1.316443360346966, 1.4498754086744157, 1.5497014812390262, 1.6995783655056584]",2017_Feb_02_1304,60.0372465299,famFaceFilter,001,9,
1,./img/smoo15_Ice-T(OdafinFinTutuola)6_1.png,0,70,70,0,,,2.nein,2.773,None,None,None,host,0.774,None,None,None,,['return'],[0.5671311147270899],2017_Feb_02_1304,60.0372465299,famFaceFilter,001,9,
34,./img/smoo15_EmilyDeschanel5_1.png,0,71,71,33,,,2.nein,5.459,None,dummy,5.183,None,None,None,None,None,,['return'],[0.6168495973561221],2017_Feb_02_1304,60.0372465299,famFaceFilter,001,9,
43,./img/edges5_BarackObama1_3.png,0,0,0,42,,,1.ja,2.022,None,None,None,None,None,polit,0.905,None,Barack Obama,"['lshift', 'b', 'a', 'r', 'a', 'c', 'k', 'space', 'lshift', 'o', 'b', 'a', 'm', 'a', 'return']","[1.3001249121043656, 1.500035927467252, 1.8331547652651352, 1.9831978140700812, 2.1162863059889787, 2.416294453823866, 2.716206367373161, 2.8327175408157927, 2.9661043590276677, 3.0494397239726823, 3.3159689253061515, 3.4659038709269225, 3.6158834051020676, 3.699216203800461, 3.965522783146298]",2017_Feb_02_1304,60.0372465299,famFaceFilter,001,9,
49,./img/edges5_RobertSeanLeonard(Wilson)2_6.png,0,1,1,48,,,1.ja,1.39,None,dummy,0.839,None,None,None,None,None,Freund von Dr House,"['lshift', 'f', 'r', 'e', 'u', 'n', 'd', 'space', 'v', 'o', 'n', 'space', 'lshift', 'd', 'r', 'space', 'lshift', 'h', 'o', 'u', 's', 'e', 'return']","[1.7328921098160208, 1.8163727885366825, 2.016053162387834, 2.2162493520227144, 2.3328426453917928, 2.532771624486486, 2.6826424139162555, 2.832641515729847, 3.01558033125184, 3.199173860715746, 3.399131389316608, 3.4991130406451703, 3.6489347505867045, 3.71553240657704, 3.9154732545666775, 3.9821867124828714, 4.115257561448743, 4.248733556769366, 4.398649576312891, 4.58188222719582, 4.64870507141859, 4.8651921221335215, 5.08176097199248]",2017_Feb_02_1304,60.0372465299,famFaceFilter,001,9,
27,./img/edges5_OmarEpps(DrEricForeman)2_2.png,0,2,2,26,,,1.ja,2.591,None,dummy,1.089,None,None,None,None,None,Arzt bei Dr House,"['lshift', 'a', 'r', 'z', 't', 'space', 'b', 'e', 'i', 'space', 'lshift', 'd', 'r', 'space', 'lshift', 'h', 'o', 'u', 's', 'e', 'return']","[0.8167689530218922, 0.9168003253998904, 1.5165721859812038, 1.6664981497360714, 1.7830202297318465, 1.8830166369843937, 2.066469985167714, 2.199288700297984, 2.2995779805696657, 2.39965714930986, 2.6162128471496544, 2.7326066147597885, 2.9325288574564183, 3.0159027161171252, 3.14907653577211, 3.283081178113207, 3.4157433521359053, 3.565551589277675, 3.5939416666242323, 3.8152917567003897, 3.948919481412304]",2017_Feb_02_1304,60.0372465299,famFaceFilter,001,9,
36,./img/edges5_AngelaMerkel1_1.png,0,3,3,35,,,1.ja,1.274,None,None,None,None,None,polit,0.706,None,Angela Merkel,"['lshift', 'a', 'n', 'g', 'e', 'l', 'a', 'space', 'lshift', 'm', 'e', 'r', 'k', 'e', 'l', 'return']","[0.9498638605600718, 1.0998783598588489, 1.2499445048924827, 1.4665855304683646, 1.549717199504812, 1.7995638662050624, 1.9995720781989803, 2.066440152537325, 2.216266994973921, 2.2995298634232313, 2.399602937326563, 2.5661851316745015, 2.7161370786852785, 2.8160741414612858, 3.015665979766709, 3.4823576887338277]",2017_Feb_02_1304,60.0372465299,famFaceFilter,001,9,
12,./img/edges5_UrsulavonderLeyen4_1.png,0,4,4,11,,,1.ja,2.331,None,None,None,None,None,polit,0.806,None,Verteidigungsministerin,"['lshift', 'v', 'e', 'r', 't', 'e', 'i', 'd', 'i', 'g', 'u', 'n', 'g', 's', 'm', 'i', 'n', 'i', 's', 't', 'e', 'r', 'i', 'n', 'return']","[0.7164373296654958, 0.816631979550948, 1.083282756868357, 1.2832120567436505, 1.4831224305435171, 1.6830539758866507, 1.83301458398455, 1.9995746444456017, 2.1329062883323786, 2.5159424929552188, 2.66569298952345, 2.8324461601223447, 3.182355635735803, 3.665550241996243, 4.298589654428724, 4.465143620051094, 4.598157049225847, 4.7314851645223825, 4.831715741876906, 5.015001642397692, 5.147923007436475, 5.3481131022344925, 5.498093919532039, 5.631395410009645, 5.947778784317052]",2017_Feb_02_1304,60.0372465299,famFaceFilter,001,9,
64,./img/edges5_EmilyDeschanel3_1.png,0,5,5,63,,,1.ja,3.283,None,act,3.122,None,None,None,None,None,Nicole Kidmana,"['lshift', 'n', 'i', 'c', 'o', 'l', 'e', 'space', 'lshift', 'k', 'i', 'd', 'm', 'a', 'n', 'a', 'return']","[0.8332250162948185, 0.9665900214022258, 1.1332995657903666, 1.3664527913060738, 1.5498371715839312, 1.7496984658955625, 1.8518425016809488, 1.916289962891824, 2.04952729717661, 2.149547121438445, 2.3661015361558384, 2.466052713292811, 2.8826092451636214, 3.1490948202845175, 3.182453153147435, 3.94875203374977, 4.082171571621075]",2017_Feb_02_1304,60.0372465299,famFaceFilter,001,9,
19,./img/edges5_HughLaurie(DrHouse)2_1.png,0,6,6,18,,,1.ja,1.899,None,act,0.739,None,None,None,None,None,Dr House,"['lshift', 'd', 'r', 'space', 'lshift', 'h', 'o', 'u', 's', 'e', 'return']","[0.7167824899788684, 0.8000148842365888, 0.9999031241495686, 1.0498208117551258, 1.1829202102271665, 1.6664814691248466, 1.916386517959836, 2.0996429066344717, 2.2328305198698217, 2.399530120048439, 2.5494336291358195]",2017_Feb_02_1304,60.0372465299,famFaceFilter,001,9,
66,./img/edges5_BritneySpears1_1.png,0,7,7,65,,,1.ja,1.588,None,None,None,music,0.422,None,None,None,Britney Speras,"['lshift', 'b', 'r', 'i', 't', 'n', 'e', 'y', 'space', 'lshift', 's', 'p', 'e', 'r', 'a', 's', 'return']","[0.7336302268049621, 0.835875629372822, 1.083459827957995, 1.2667752403285704, 1.6831723440609494, 1.8997001339575945, 2.049777506324972, 2.666274244624219, 2.832720107064233, 2.966104679808268, 3.082612966221859, 3.315968283744951, 3.565572119257922, 3.7823802717139188, 3.9156256255228072, 4.148945977920448, 4.332746731883162]",2017_Feb_02_1304,60.0372465299,famFaceFilter,001,9,
38,./img/edges5_GeorgeClooney11_1.png,0,8,8,37,,,1.ja,2.016,None,act,0.99,None,None,None,None,None,Clooney,"['lshift', 'c', 'l', 'o', 'o', 'n', 'e', 'y', 'return']","[0.7835585001812433, 0.9334174207160686, 1.0832407345624233, 1.2333007847573754, 1.3997800084162009, 1.5996380949200102, 1.7830561571972794, 2.1828996802451, 2.3659068221131747]",2017_Feb_02_1304,60.0372465299,famFaceFilter,001,9,
57,./img/edges5_BritneySpears5_1.png,0,9,9,56,,,1.ja,1.644,None,None,None,music,0.956,None,None,None,Britney Spears,"['lshift', 'b', 'r', 'i', 't', 'n', 'e', 'y', 'space', 'lshift', 's', 'p', 'e', 'a', 'r', 's', 'return']","[0.9334280064867926, 1.066646735476752, 1.316502704825325, 1.5163713770998584, 1.6664724872589431, 1.8163188973339857, 1.983068218562039, 2.349512669565229, 2.466304205567212, 2.6327568044052896, 2.6993939164531184, 2.9492668871935166, 3.582407345627871, 3.865652763592152, 4.0158234832197195, 4.148716619532934, 4.515288741358745]",2017_Feb_02_1304,60.0372465299,famFaceFilter,001,9,
55,./img/edges5_JoachimLoew1_1.png,0,10,10,54,,,1.ja,1.898,None,None,None,None,None,sport,1.605,None,Jogi Löw,"['lshift', 'j', 'o', 'g', 'i', 'space', 'lshift', 'l', u'\xf6', 'w', 'return']","[0.8665114942250511, 1.016636983735225, 1.1830427485547261, 1.4998517991971312, 1.7163090172816737, 1.8662513408653467, 2.066160431540993, 2.232840143300564, 2.4160509810772055, 2.715802824926868, 3.01576349718016]",2017_Feb_02_1304,60.0372465299,famFaceFilter,001,9,
65,./img/edges5_LisaEdelstein(DrLisaCuddy)1_1.png,0,11,11,64,,,1.ja,1.547,None,act,0.423,None,None,None,None,None,Chefin von Dr House,"['lshift', 'c', 'backspace', 'lshift', 'c', 'h', 'e', 'f', 'i', 'n', 'space', 'v', 'o', 'n', 'space', 'lshift', 'd', 'r', 'space', 'lshift', 'h', 'o', 'u', 's', 'e', 'return']","[0.733443532286401, 0.9332547847679962, 1.7997540893156838, 2.466197064726657, 2.6161682585952803, 2.7825993651094905, 2.882566260515887, 3.1992129959908198, 3.4822547180465335, 3.71565430334158, 3.8321256999442994, 4.0820060486457805, 4.298779877539346, 4.48199616859165, 4.598617690684478, 4.781809602385692, 4.831865225803995, 5.031781373660124, 5.115038147272571, 5.231789906434642, 5.348427788356275, 5.514821363498413, 5.6647948028348765, 5.764508281281451, 5.947968045084053, 6.33126889399864]",2017_Feb_02_1304,60.0372465299,famFaceFilter,001,9,
24,./img/edges5_JasonSegel(Marshall)7_1.png,0,12,12,23,,,1.ja,1.52,None,act,0.989,None,None,None,None,None,Marshall,"['lshift', 'm', 'a', 'r', 's', 'h', 'a', 'l', 'l', 'return']","[0.9833145783395594, 1.1666883728448738, 1.2997178410660126, 1.6330628294417693, 1.882860095875003, 2.1161448415841733, 2.2494893167095142, 2.6659897119116067, 2.832634137765126, 3.182567671950892]",2017_Feb_02_1304,60.0372465299,famFaceFilter,001,9,
39,./img/edges5_AlysonHannigan(Lily)8_3.png,0,13,13,38,,,1.ja,1.628,None,act,0.406,None,None,None,None,None,Lilly,"['lshift', 'l', 'i', 'l', 'l', 'y', 'return']","[0.650108808902587, 0.7502181310537708, 0.9333545476474683, 1.134091894764424, 1.283189281297382, 1.4831028629068896, 1.6162840605229576]",2017_Feb_02_1304,60.0372465299,famFaceFilter,001,9,
40,./img/edges5_NicoleKidman3_1.png,0,14,14,39,,,1.ja,2.045,None,act,0.623,None,None,None,None,None,Nicole Kidmann,"['lshift', 'n', 'i', 'c', 'o', 'l', 'e', 'space', 'lshift', 'k', 'i', 'd', 'm', 'a', 'n', 'n', 'return']","[0.9834316633896378, 1.1668452347348648, 1.4832119284328655, 1.7830183050446067, 1.949757040500117, 2.1328796635134495, 2.282811080543979, 2.382768031739033, 2.516188531952139, 2.6662155417088798, 2.8493205217691866, 2.999351380896769, 3.1493491995861405, 3.2825592674889776, 3.4325118560645933, 3.599150187079431, 3.7990846194516052]",2017_Feb_02_1304,60.0372465299,famFaceFilter,001,9,
29,./img/edges5_TomCruise4_1.png,0,15,15,28,,,1.ja,5.721,None,act,0.567,None,None,None,None,None,,['return'],[0.5667949362796207],2017_Feb_02_1304,60.0372465299,famFaceFilter,001,9,
56,./img/edges5_NeilPatrickHarris(Barney)1_1.png,0,16,16,55,,,1.ja,1.076,None,act,0.507,None,None,None,None,None,Neil Patrick Harris,"['lshift', 'n', 'e', 'i', 'l', 'space', 'lshift', 'p', 'a', 't', 'r', 'i', 'c', 'k', 'space', 'lshift', 'h', 'a', 'r', 'r', 'i', 's', 'return']","[0.8168244481294096, 0.9334732366023673, 1.3500384295584809, 1.4497894393771276, 1.6831014514700655, 1.79989747840591, 1.9829703803698067, 2.0498416625177924, 2.249668312486392, 2.616172107967941, 3.0494624994225887, 3.299238273531955, 3.465804749612289, 3.599150507860031, 3.6990856459506176, 3.865561661799802, 4.015784668723427, 4.1322364976877, 4.315435145788797, 4.465463117889158, 4.632060709722282, 4.765235491719068, 5.031876966388154]",2017_Feb_02_1304,60.0372465299,famFaceFilter,001,9,
17,./img/edges5_NeilPatrickHarris(Barney)3_7.png,0,17,17,16,,,1.ja,1.25,None,act,0.406,None,None,None,None,None,Neil Patrick Harris,"['lshift', 'n', 'e', 'i', 'l', 'space', 'lshift', 'p', 'a', 't', 'r', 'i', 'c', 'k', 'space', 'lshift', 'h', 'a', 'r', 'r', 'i', 's', 'return']","[0.7833685978530411, 0.8832690915987769, 1.0497569763447245, 1.1831341711276764, 1.3665182306231145, 1.4497320195860084, 1.6496728675756458, 1.7180973711347178, 1.8497214979688579, 2.1495689345447317, 2.366079081488351, 2.4825347598252847, 2.7826452367880847, 2.8990588928172656, 2.9492489234580717, 3.0991976626610267, 3.232330422351879, 3.3154200690823927, 3.482178692958769, 3.632120374979422, 3.798924228971373, 3.932165733407601, 4.215501290822431]",2017_Feb_02_1304,60.0372465299,famFaceFilter,001,9,
63,./img/edges5_LisaEdelstein(DrLisaCuddy)2_2.png,0,18,18,62,,,1.ja,1.567,None,dummy,0.573,None,None,None,None,None,Chefin von Dr House,"['lshift', 'c', 'h', 'e', 'f', 'i', 'n', 'space', 'v', 'o', 'n', 'space', 'lshift', 'd', 'r', 'space', 'lshift', 'h', 'o', 'u', 's', 'e', 'return']","[0.7334194737140933, 0.8669320380613499, 1.2828219870953035, 1.5165157285318855, 1.7498014365846757, 1.8829970693441282, 2.0163607913273154, 2.182800879709248, 2.3327711112360703, 2.582785867160055, 2.7994843125270563, 2.899450566370433, 3.04931237393248, 3.065897391152248, 3.282859518469195, 3.349246742147443, 3.4824420541262953, 3.549141397679705, 3.6988341536762164, 3.849061009972502, 3.880664991762387, 4.182065008186328, 4.61521457679919]",2017_Feb_02_1304,60.0372465299,famFaceFilter,001,9,
52,./img/edges5_BarackObama4_1.png,0,19,19,51,,,1.ja,1.967,None,None,None,None,None,polit,0.756,None,Barack Obama,"['lshift', 'b', 'a', 'r', 'a', 'c', 'k', 'space', 'lshift', 'o', 'b', 'a', 'm', 'a', 'return']","[1.2499929428176983, 1.3496916653402877, 1.7830869521694694, 1.8998432022654015, 2.016348601651771, 2.316278799713473, 2.632723122404059, 2.749493486862775, 2.865971940647796, 2.9827054152956407, 3.2658456171047874, 3.3658060968900827, 3.5158478625708085, 3.582513203344206, 4.0820695632755815]",2017_Feb_02_1304,60.0372465299,famFaceFilter,001,9,
11,./img/edges5_RobertSeanLeonard(Wilson)1_1.png,0,20,20,10,,,1.ja,1.531,None,dummy,0.439,None,None,None,None,None,Freund von Dr House,"['lshift', 'f', 'r', 'e', 'u', 'n', 'd', 'space', 'v', 'o', 'n', 'space', 'lshift', 'd', 'r', 'space', 'lshift', 'h', 'o', 'u', 's', 'e', 'return']","[1.1498460892944422, 1.249899274778727, 1.4497470962905936, 1.832812171198384, 1.9828141600410163, 2.182820126567094, 2.3159159964488936, 2.4326985505831544, 2.598882014195624, 2.7657949337135506, 2.9325355938544817, 3.0819348352724774, 3.232398427915541, 3.2656813772537134, 3.4485839445278543, 3.5316806484388508, 3.6817942690558993, 3.798100463463925, 3.9321474488933745, 4.081659605208188, 4.131880751601784, 4.348593952894589, 4.548495024046133]",2017_Feb_02_1304,60.0372465299,famFaceFilter,001,9,
20,./img/edges5_JoshRadnor(Ted)1_2.png,0,21,21,19,,,1.ja,10.248,None,dummy,0.633,None,None,None,None,None,Ted,"['lshift', 't', 'e', 'd', 'return']","[0.7832941766700969, 1.0164015305108478, 1.1664125012193836, 1.3996812078821677, 1.516343469156709]",2017_Feb_02_1304,60.0372465299,famFaceFilter,001,9,
30,./img/edges5_MariskaHargitay(Liv)8_8.png,0,22,22,29,,,2.nein,3.488,None,None,None,host,0.789,None,None,None,,['return'],[0.4168487633251061],2017_Feb_02_1304,60.0372465299,famFaceFilter,001,9,
45,./img/edges5_WillSmith4_1.png,0,23,23,44,,,1.ja,1.422,None,act,0.774,None,None,None,None,None,Will Smith,"['lshift', 'w', 'i', 'l', 'l', 'space', 'lshift', 's', 'm', 'i', 't', 'h', 'return']","[0.7501517293949291, 0.8834243495839473, 1.0833481961853977, 1.266671948860676, 1.400005838213474, 1.5165616002086608, 1.6994503739024367, 1.8664633770786168, 1.9829168099495291, 2.166354439865245, 2.316262119104067, 2.4495340977337037, 2.7494421619103377]",2017_Feb_02_1304,60.0372465299,famFaceFilter,001,9,
51,./img/edges5_Ice-T(OdafinFinTutuola)6_1.png,0,24,24,50,,,2.nein,2.188,None,None,None,host,1.238,None,None,None,,['return'],[0.5833427429079165],2017_Feb_02_1304,60.0372465299,famFaceFilter,001,9,
15,./img/edges5_LisaEdelstein(DrLisaCuddy)6_3.png,0,25,25,14,,,1.ja,1.123,None,act,0.423,None,None,None,None,None,Chefin von dR House,"['lshift', 'c', 'h', 'e', 'f', 'i', 'n', 'space', 'v', 'o', 'n', 'space', 'd', 'lshift', 'r', 'space', 'lshift', 'h', 'o', 'u', 's', 'e', 'return']","[0.766684780097421, 0.9330228601338604, 1.099874189707407, 1.1832271976054471, 1.399734457520026, 1.566527084178233, 1.7327435882289137, 1.8664088443147193, 2.1496452804130968, 2.416302794130388, 2.5660853687950294, 2.6994045022238424, 2.882723122404059, 2.9325471419688256, 3.1492006780026713, 3.3321292285345407, 3.482250868673873, 3.532272489310344, 3.6821952452555706, 3.815599385639871, 3.9156288333324483, 4.115444255967304, 4.665300674409082]",2017_Feb_02_1304,60.0372465299,famFaceFilter,001,9,
31,./img/edges5_GeorgeClooney4_2.png,0,26,26,30,,,1.ja,1.233,None,dummy,0.523,None,None,None,None,None,Clooney,"['lshift', 'c', 'l', 'o', 'o', 'n', 'e', 'y', 'return']","[0.8499097963940585, 1.1832506146165542, 1.3331627847892378, 1.4998447420148295, 1.649510873190593, 1.8162194552369328, 2.0162138736486668, 2.415945444139652, 2.58255650877436]",2017_Feb_02_1304,60.0372465299,famFaceFilter,001,9,
22,./img/edges5_JasonSegel(Marshall)6_1.png,0,27,27,21,,,1.ja,1.488,None,act,0.672,None,None,None,None,None,Marshall,"['lshift', 'm', 'a', 'r', 's', 'c', 'backspace', 'h', 'a', 'l', 'l', 'return']","[0.6835521487191727, 0.816660529057117, 0.9501647531014896, 1.2330435184285307, 1.3500326555022184, 1.6666213296248316, 2.3327906788745167, 3.0659044483345497, 3.2158390731747204, 3.518635128337337, 3.665743031355305, 3.8989889625681826]",2017_Feb_02_1304,60.0372465299,famFaceFilter,001,9,
1,./img/edges5_BastianSchweinsteiger6_2.png,0,28,28,0,,,1.ja,1.248,None,None,None,None,None,sport,0.59,None,Schweinsteiger,"['lshift', 's', 'c', 'h', 'w', 'e', 'i', 'n', 's', 't', 'e', 'i', 'g', 'e', 'r', 'return']","[0.7501138772404374, 0.900061012538572, 1.099884775478131, 1.183337225475043, 1.3497901450955396, 1.5164884621499368, 1.6166157480347465, 1.7330621237233572, 1.8328250024369481, 1.9829466425780993, 2.0995463515646406, 2.2326470331609016, 2.3994316402931872, 2.466259617012838, 2.6661462530209974, 3.116006905771428]",2017_Feb_02_1304,60.0372465299,famFaceFilter,001,9,
72,./img/edges5_EmilyDeschanel6_12.png,0,29,29,71,,,1.ja,5.324,None,act,0.567,None,None,None,None,None,Nicole Kidmann,"['lshift', 'n', 'i', 'c', 'o', 'l', 'e', 'space', 'lshift', 'k', 'i', 'd', 'm', 'a', 'n', 'n', 'return']","[3.348651051905108, 3.9656215836821502, 4.2987933503391105, 4.598693074211042, 4.765333650693719, 4.948563414547607, 5.081732743266912, 5.148543077033537, 5.3483504801442905, 5.514928504338968, 5.66486601620818, 5.798217869296423, 5.948190025508666, 6.098171805149832, 6.214701583889109, 6.364686250557497, 6.5812862161710655]",2017_Feb_02_1304,60.0372465299,famFaceFilter,001,9,
59,./img/edges5_BastianSchweinsteiger3_1.png,0,30,30,58,,,1.ja,1.255,None,None,None,None,None,sport,0.773,None,Schweinsteiger,"['lshift', 's', 'c', 'h', 'w', 'e', 'i', 'n', 's', 't', 'e', 'i', 'g', 'e', 'r', 'return']","[0.8830823970802157, 0.9832549130806001, 1.2163362836636225, 1.3165569168068032, 1.4663154329009558, 1.6661731986223458, 1.816172941997138, 1.9661162279244309, 2.11613714284249, 2.282746282789958, 2.415754579469649, 2.5656638626132917, 2.732495945328992, 2.8158175166936417, 2.998995314032072, 3.831962101654426]",2017_Feb_02_1304,60.0372465299,famFaceFilter,001,9,
3,./img/edges5_NicoleKidman5_1.png,0,31,31,2,,,1.ja,6.437,None,act,1.134,None,None,None,None,None,Nicole Kidman,"['lshift', 'n', 'i', 'c', 'o', 'l', 'space', 'backspace', 'e', 'space', 'lshift', 'k', 'i', 'd', 'm', 'a', 'n', 'n', 'backspace', 'return']","[0.7667146127278102, 0.8667161524772382, 1.0833639144530025, 1.4164295026112086, 1.4999631101909472, 1.6998019498350914, 1.8997184184736398, 2.2994368369472795, 2.4327825951950217, 2.582753789065464, 3.0490987338143896, 3.2489497631358972, 3.41569619733491, 3.582348963493132, 3.8655546046193194, 3.998762747836736, 4.098822348938484, 4.615253712077902, 5.3165784091324895, 5.515080875296917]",2017_Feb_02_1304,60.0372465299,famFaceFilter,001,9,
61,./img/edges5_NeilPatrickHarris(Barney)2_2.png,0,32,32,60,,,1.ja,1.34,None,dummy,0.407,None,None,None,None,None,Neil Patrick Harris,"['lshift', 'n', 'e', 'i', 'l', 'space', 'lshift', 'p', 'a', 't', 'r', 'i', 'c', 'k', 'space', 'lshift', 'h', 'a', 'r', 'r', 'i', 's', 'return']","[0.7685456304498075, 0.9000000641572115, 0.9999486750475626, 1.1168194439469517, 1.3333119479357265, 1.4000956568834226, 1.5666059962950385, 1.683162399853245, 1.7998961952816899, 1.9997655091192428, 2.166152347861498, 2.3995920307752385, 2.549608133978836, 2.6495092692875915, 2.7326265031806543, 2.8825351447630965, 2.982497870014413, 3.082542715193995, 3.2659072070509865, 3.4159249141594046, 3.565836121990287, 3.7491143237693905, 3.9490535678542074]",2017_Feb_02_1304,60.0372465299,famFaceFilter,001,9,
9,./img/edges5_RobertSeanLeonard(Wilson)8_1.png,0,33,33,8,,,1.ja,1.44,None,act,0.407,None,None,None,None,None,Freund von Dr House,"['lshift', 'f', 'r', 'e', 'u', 'n', 'd', 'space', 'v', 'o', 'n', 'space', 'lshift', 'd', 'r', 'space', 'lshift', 'h', 'o', 'u', 's', 'e', 'return']","[0.6833747568489343, 0.7833884862739069, 1.2332311752907117, 1.4831849828315171, 1.5831435379313916, 1.7996511186283897, 1.9163223617688345, 2.0329759619580727, 2.499253542704537, 2.699281963898102, 2.8659700159623753, 2.9325609355510096, 3.1322031364688883, 3.215874679861372, 3.4490801926749555, 3.549107715680293, 3.682229568819821, 3.8156458988796658, 3.948947068574853, 4.082148475392387, 4.165572696665549, 4.348849615320432, 4.481761677710892]",2017_Feb_02_1304,60.0372465299,famFaceFilter,001,9,
16,./img/edges5_BritneySpears7_1.png,0,34,34,15,,,1.ja,1.313,None,None,None,music,0.407,None,None,None,Britney Spears,"['lshift', 'b', 'r', 'i', 't', 'n', 'e', 'y', 'space', 'lshift', 's', 'p', 'e', 'a', 'r', 's', 'return']","[0.8330123385185288, 0.9999727336180513, 1.233084257610244, 1.449839801989583, 1.7331047875923105, 2.099563673738885, 2.2827806063542084, 2.7493401535648445, 3.1325152563422307, 3.3323781545605016, 3.432347295432919, 3.6654402141284663, 4.232086308042199, 4.5319655019320635, 4.748516388057396, 4.865193405257742, 5.298217548515822]",2017_Feb_02_1304,60.0372465299,famFaceFilter,001,9,
60,./img/edges5_TomCruise1_1.png,0,35,35,59,,,1.ja,1.609,None,dummy,0.823,None,None,None,None,None,,['return'],[0.9500851994234836],2017_Feb_02_1304,60.0372465299,famFaceFilter,001,9,
10,./img/edges5_GuentherJauch4_1.png,0,36,36,9,,,1.ja,1.032,None,None,None,host,0.69,None,None,None,Günther Jauch,"['lshift', 'g', u'\xfc', 'n', 't', 'h', 'e', 'r', 'space', 'lshift', 'j', 'a', 'u', 'c', 'h', 'return']","[0.8332153928677144, 0.9664889754003525, 1.1999803040489496, 1.4829424724266573, 1.699799383586651, 2.0492026668453036, 2.2990371438681905, 2.549296334884275, 2.7326669215799484, 3.248981199669288, 3.432402148975598, 3.5653783675588784, 3.64888984125173, 3.8322764669956086, 3.9822049969970976, 4.282023884066803]",2017_Feb_02_1304,60.0372465299,famFaceFilter,001,9,
69,./img/edges5_GuentherJauch2_1.png,0,37,37,68,,,1.ja,4.424,None,None,None,host,1.067,None,None,None,Günter Jauch,"['lshift', 'g', u'\xfc', 'n', 't', 'e', 'r', 'space', 'lshift', 'j', 'a', 'u', 'c', 'h', 'return']","[0.8164664565774729, 1.0332588907658646, 1.6997005830526177, 1.9495052274469344, 2.1828281460930157, 2.38272857568154, 2.5826588379004534, 2.6660564343528677, 2.8158746157059795, 2.915867173587685, 3.08225048373788, 3.1989422568622103, 3.332235407033295, 3.4657078737618576, 4.08176065121188]",2017_Feb_02_1304,60.0372465299,famFaceFilter,001,9,
62,./img/edges5_AlysonHannigan(Lily)5_4.png,0,38,38,61,,,1.ja,1.972,None,act,0.657,None,None,None,None,None,Lilly,"['lshift', 'l', 'i', 'l', 'l', 'y', 'return']","[0.8000155257977895, 0.8830653956902097, 1.0666823421634035, 1.2996921785907034, 1.4165228498695797, 1.5165121999416442, 1.6826719257642253]",2017_Feb_02_1304,60.0372465299,famFaceFilter,001,9,
33,./img/edges5_BarackObama2_1.png,0,39,39,32,,,1.ja,1.489,None,None,None,None,None,polit,0.656,None,Barack Obama,"['lshift', 'b', 'a', 'r', 'a', 'c', 'k', 'space', 'lshift', 'o', 'b', 'a', 'm', 'a', 'return']","[0.8666468637893558, 1.0331600902300124, 1.166519000498738, 1.3331862018003449, 1.3998823375441134, 1.66633872159764, 1.9162027104703157, 2.0330170219203865, 2.1661475361452176, 2.2328103106701747, 3.032464316325786, 3.1823511448037607, 3.332354416768794, 3.4154479128719686, 4.781804469890631]",2017_Feb_02_1304,60.0372465299,famFaceFilter,001,9,
71,./img/edges5_HughLaurie(DrHouse)4_1.png,0,40,40,70,,,1.ja,1.744,None,act,0.74,None,None,None,None,None,Dr House,"['lshift', 'd', 'r', 'space', 'lshift', 'h', 'o', 'u', 's', 'e', 'return']","[0.8003610068935814, 0.9004167586244876, 1.1170269892263605, 1.2836393369852885, 1.4332935992642888, 1.5501460836494516, 1.6834523858415196, 1.83338572755747, 1.8833079060968885, 2.0829972618139436, 2.2493388704406243]",2017_Feb_02_1304,60.0372465299,famFaceFilter,001,9,
21,./img/edges5_JoshRadnor(Ted)3_1.png,0,41,41,20,,,1.ja,1.648,None,act,0.729,None,None,None,None,None,Ted,"['lshift', 't', 'e', 'd', 'return']","[0.8000780780857895, 1.066622356122025, 1.2329649270923255, 1.4496447671645, 1.649605182792584]",2017_Feb_02_1304,60.0372465299,famFaceFilter,001,9,
54,./img/edges5_KatjaBurkard5_3.png,0,42,42,53,,,1.ja,1.473,None,None,None,host,0.573,None,None,None,Zitlow,"['lshift', 'z', 'i', 't', 'l', 'o', 'w', 'return']","[0.7334406452573603, 1.0833109855921066, 1.2998670042125013, 1.399813048856231, 1.5331495044574694, 1.699657277620645, 1.8664056365050783, 1.9992291633516288]",2017_Feb_02_1304,60.0372465299,famFaceFilter,001,9,
4,./img/edges5_LeonardoDiCaprio1_1.png,0,43,43,3,,,1.ja,1.874,None,act,1.373,None,None,None,None,None,Brad Pitt,"['lshift', 'b', 'r', 'a', 'd', 'space', 'lshift', 'p', 'i', 't', 't', 'return']","[3.865621006276342, 4.065451826398203, 4.315130724657138, 4.381880430821184, 4.5986812053142785, 4.6989339165556885, 4.848620256932918, 4.9651599798799, 5.165151832045012, 5.381773610761229, 5.53177207101362, 5.698360360198421]",2017_Feb_02_1304,60.0372465299,famFaceFilter,001,9,
53,./img/edges5_KatjaBurkard4_1.png,0,44,44,52,,,1.ja,1.442,None,None,None,host,2.355,None,None,None,Zitlow,"['lshift', 'z', 'i', 't', 'l', 'o', 'w', 'return']","[0.7833140650909627, 0.9666804816333752, 1.1498027838661073, 1.2165682082977582, 1.3499197406035819, 1.5164210981492943, 1.6831781181190308, 1.8331021571884776]",2017_Feb_02_1304,60.0372465299,famFaceFilter,001,9,
48,./img/edges5_GeorgeClooney3_1.png,0,45,45,47,,,1.ja,1.4,None,dummy,0.474,None,None,None,None,None,Clooney,"['lshift', 'c', 'l', 'o', 'o', 'n', 'e', 'y', 'return']","[0.7831036327806942, 1.016621265469439, 1.1831258308229735, 1.3331409716847702, 1.466462029800823, 1.6661757648707862, 1.8162480047431018, 2.165836378615495, 2.316043667271515]",2017_Feb_02_1304,60.0372465299,famFaceFilter,001,9,
44,./img/edges5_EmilyDeschanel5_1.png,0,46,46,43,,,1.ja,2.24,None,act,0.923,None,None,None,None,None,Nicole Kidman,"['lshift', 'n', 'i', 'c', 'o', 'l', 'e', 'space', 'lshift', 'k', 'i', 'd', 'm', 'a', 'n', 'return']","[0.7833791836255841, 0.9499815871731698, 1.1664609391445993, 1.5663095946856629, 1.7664150033106125, 1.9329904612568498, 2.0662954803246976, 2.1662440912150487, 2.2828624054982356, 2.4661495891432423, 2.6493469541201193, 2.7825695324809203, 2.9659327412136918, 3.0824673316674307, 3.1990981564067624, 3.4491469151125784]",2017_Feb_02_1304,60.0372465299,famFaceFilter,001,9,
5,./img/edges5_AlysonHannigan(Lily)1_1.png,0,47,47,4,,,1.ja,1.543,None,dummy,0.473,None,None,None,None,None,Lilly,"['lshift', 'l', 'i', 'l', 'l', 'y', 'return']","[0.9000962984446232, 1.06676349974623, 1.316697739650408, 1.500003207809641, 1.649857637410605, 1.832951069356568, 2.016300163726555]",2017_Feb_02_1304,60.0372465299,famFaceFilter,001,9,
37,./img/edges5_JasonSegel(Marshall)9_1.png,0,48,48,36,,,1.ja,1.234,None,act,0.54,None,None,None,None,None,Marshall,"['lshift', 'm', 'a', 'r', 's', 'h', 'a', 'l', 'l', 'return']","[0.7833140650891437, 0.9332996941029705, 1.066420905679479, 1.2997550516574847, 1.4331367373742978, 1.6496683766417846, 1.7495691911699396, 2.0497662789912283, 2.199440108910494, 2.3660495696403814]",2017_Feb_02_1304,60.0372465299,famFaceFilter,001,9,
7,./img/edges5_AngelaMerkel3_1.png,0,49,49,6,,,1.ja,1.523,None,None,None,None,None,polit,0.906,None,Angela Merkel,"['lshift', 'a', 'n', 'g', 'e', 'l', 'a', 'space', 'lshift', 'm', 'e', 'r', 'k', 'e', 'l', 'return']","[0.8168699990255845, 0.9834765727246122, 1.066746498354405, 1.2667255192809534, 1.3500053891202697, 1.5332608154512855, 1.666541134383806, 1.7499839609517949, 1.8997870655985025, 1.9665380548867688, 2.066526121834613, 2.2497831520704494, 2.39971777691062, 2.499684030753997, 2.649579841097875, 2.882854963379941]",2017_Feb_02_1304,60.0372465299,famFaceFilter,001,9,
67,./img/edges5_LeonardoDiCaprio2_1.png,0,50,50,66,,,1.ja,1.909,None,act,1.157,None,None,None,None,None,Brad Pitt,"['lshift', 'b', 'r', 'a', 'd', 'space', 'lshift', 'p', 'i', 't', 't', 'return']","[3.1824557193958753, 3.365783000661395, 3.63214571667595, 3.715695363303894, 3.9155611485493864, 3.9985580895827297, 4.165382794335528, 4.265376635341454, 4.44856726391663, 4.698472312753438, 4.881774893885449, 5.0150921026288415]",2017_Feb_02_1304,60.0372465299,famFaceFilter,001,9,
58,./img/edges5_HughLaurie(DrHouse)5_3.png,0,51,51,57,,,1.ja,1.967,None,act,0.64,None,None,None,None,None,Dr House,"['lshift', 'd', 'r', 'space', 'lshift', 'h', 'o', 'u', 's', 'e', 'return']","[0.7333572422066936, 0.816882188701129, 1.0506378408608725, 1.1000974532544205, 1.2167686963966844, 1.3832382966265868, 1.5331918475440034, 1.666539209698385, 1.766552297560338, 1.9328749801115919, 2.066272384094191]",2017_Feb_02_1304,60.0372465299,famFaceFilter,001,9,
46,./img/edges5_TomCruise5_1.png,0,52,52,45,,,1.ja,2.372,None,act,1.29,None,None,None,None,None,,['return'],[1.0666441692283115],2017_Feb_02_1304,60.0372465299,famFaceFilter,001,9,
68,./img/edges5_MariskaHargitay(Liv)4_4.png,0,53,53,67,,,2.nein,4.761,None,act,1.852,None,None,None,None,None,,['return'],[0.46673661830027413],2017_Feb_02_1304,60.0372465299,famFaceFilter,001,9,
25,./img/edges5_JoachimLoew8_1.png,0,54,54,24,,,1.ja,1.106,None,None,None,None,None,sport,0.723,None,Jogi Löw,"['lshift', 'j', 'o', 'g', 'i', 'space', 'lshift', 'l', u'\xf6', 'w', 'return']","[1.1665623059270729, 1.2998086220795813, 1.5165397871041932, 1.88288126741827, 1.9994966946742352, 2.1162859852083784, 2.316152732797491, 2.399498362734448, 2.6327410861395038, 2.9492559806403733, 3.1492282651652204]",2017_Feb_02_1304,60.0372465299,famFaceFilter,001,9,
41,./img/edges5_OmarEpps(DrEricForeman)3_1.png,0,55,55,40,,,1.ja,1.405,None,dummy,0.407,None,None,None,None,None,Arzt bei Dr House,"['lshift', 'a', 'r', 'z', 't', 'space', 'b', 'e', 'i', 'space', 'lshift', 'd', 'r', 'space', 'lshift', 'h', 'o', 'u', 's', 'e', 'return']","[0.7500301534109894, 0.8833393426302791, 1.3998265216559957, 1.5164919907401782, 1.6996787699463312, 1.7830179842640064, 2.049579584472667, 2.149314876023709, 2.2495550768071553, 2.3495537295275426, 2.599247704491063, 2.6993576682052662, 2.9325564446171484, 2.999144477178561, 3.116028077316514, 3.249188103389315, 3.432488118272886, 3.6656256255228072, 3.69387905018084, 3.94897048558596, 4.11543238707236]",2017_Feb_02_1304,60.0372465299,famFaceFilter,001,9,
35,./img/edges5_WillSmith1_1.png,0,56,56,34,,,1.ja,1.504,None,act,0.558,None,None,None,None,None,Will Smith,"['lshift', 'i', 'backspace', 'lshift', 'w', 'i', 'l', 'l', 'space', 'lshift', 's', 'm', 'i', 't', 'h', 'return']","[0.7833082910328812, 1.0663342948209902, 1.4331123580232088, 1.88285271791392, 2.049419193992435, 2.2672410142840818, 2.449248281896871, 2.616060796974125, 2.799058956974477, 2.9657736338576797, 3.1156562921823934, 3.1989393698331696, 3.3488627673395968, 3.51536508722711, 3.682259401448391, 4.0321044000884285]",2017_Feb_02_1304,60.0372465299,famFaceFilter,001,9,
6,./img/edges5_GuentherJauch3_1.png,0,57,57,5,,,1.ja,1.604,None,None,None,host,0.573,None,None,None,Günther Jauch,"['lshift', 'g', u'\xfc', 'n', 't', 'h', 'e', 'r', 'space', 'lshift', 'j', 'a', 'u', 'c', 'h', 'return']","[0.849779880103597, 0.9500775006799813, 1.216147022894802, 1.4830351781220088, 1.6997605690903583, 2.0662136811788514, 2.1162118848060345, 2.3660960828783573, 2.5160400103668508, 2.782682447377738, 3.132563373485027, 3.2824043302862265, 3.3991076515230816, 3.5656125376590353, 3.6989749765180022, 4.032572740290561]",2017_Feb_02_1304,60.0372465299,famFaceFilter,001,9,
18,./img/edges5_JoshRadnor(Ted)6_2.png,0,58,58,17,,,1.ja,2.431,None,act,0.807,None,None,None,None,None,Ted,"['lshift', 't', 'e', 'd', 'return']","[1.0333698809772613, 1.2166416671370825, 1.3499037015553768, 1.5665052710719465, 1.7164305932637944]",2017_Feb_02_1304,60.0372465299,famFaceFilter,001,9,
50,./img/edges5_WillSmith5_1.png,0,59,59,49,,,1.ja,1.285,None,act,0.573,None,None,None,None,None,Will Smith,"['lshift', 'w', 'i', 'l', 'l', 'space', 'lshift', 's', 'm', 'i', 't', 'h', 'return']","[0.6833061097222526, 0.8166428861040913, 0.9998899721304042, 1.16667586238691, 1.3332035239709512, 1.4331036969360866, 1.5664799293772376, 1.6830350498112239, 1.8327297304913372, 1.9829700595873874, 2.1663339098831784, 2.26631491965054, 2.5327093929790863]",2017_Feb_02_1304,60.0372465299,famFaceFilter,001,9,
2,./img/edges5_OmarEpps(DrEricForeman)1_5.png,0,60,60,1,,,1.ja,1.689,None,dummy,0.49,None,None,None,None,None,Arzt bei Dr House,"['lshift', 'a', 'r', 'z', 't', 'space', 'b', 'e', 'i', 'space', 'lshift', 'd', 'r', 'space', 'lshift', 'h', 'o', 'u', 's', 'e', 'return']","[0.7167362975196738, 0.8998926025342371, 1.3165829000645317, 1.4661126993323705, 1.5997112329787342, 1.6997307364617882, 1.8661458039277932, 1.9663561720826692, 2.082874723486384, 2.166398066075999, 2.3494453055627673, 2.399483286028044, 2.7158519044114655, 2.882527446017775, 3.0158799406672188, 3.082184402859639, 3.215724233588844, 3.3656999183931475, 3.415700688266952, 3.632247404240843, 3.782141931460501]",2017_Feb_02_1304,60.0372465299,famFaceFilter,001,9,
47,./img/edges5_UrsulavonderLeyen5_1.png,0,61,61,46,,,1.ja,1.691,None,None,None,None,None,polit,0.69,None,Verteidigungsministerin,"['lshift', 'v', 'e', 'r', 't', 'e', 'i', 'd', 'i', 'g', 'u', 'n', 'g', 's', 'm', 'i', 'n', 'i', 's', 't', 'e', 'r', 'i', 'n', 'return']","[0.799779751792812, 0.8996379024520138, 1.132906609114798, 1.3160888973852707, 1.549417269307014, 1.766085882045445, 1.9325596524267894, 2.049264577570284, 2.19921331677142, 2.4491905413233326, 2.5823188100821426, 2.7822718477491435, 2.982236112749888, 3.115511940750366, 3.3988041927350423, 3.615317547488303, 3.7319195019426843, 3.8651613271613314, 3.99852857773476, 4.115004144488921, 4.265353218330347, 4.46448473595774, 4.564819567125596, 4.698125869315845, 4.931416389084916]",2017_Feb_02_1304,60.0372465299,famFaceFilter,001,9,
42,./img/edges5_JoachimLoew4_1.png,0,62,62,41,,,1.ja,1.545,None,None,None,None,None,sport,1.006,None,Jogi Löw,"['lshift', 'lshift', 'j', 'o', 'g', 'i', 'space', 'lshift', 'l', u'\xf6', 'w', 'return']","[0.8501747614664055, 1.4831862659557373, 1.6166167103783664, 2.71614060727552, 2.982668525484769, 3.1159565431607916, 3.1993464408697037, 3.399090970913676, 3.53241459527635, 3.699081796577957, 3.8823234293267888, 4.0489492498854815]",2017_Feb_02_1304,60.0372465299,famFaceFilter,001,9,
26,./img/edges5_NicoleKidman7_1.png,0,63,63,25,,,2.nein,4.365,None,dummy,1.266,None,None,None,None,None,,['return'],[0.6834517442785],2017_Feb_02_1304,60.0372465299,famFaceFilter,001,9,
23,./img/edges5_UrsulavonderLeyen1_1.png,0,64,64,22,,,1.ja,1.189,None,None,None,None,None,polit,0.506,None,Verteidigungsministerin,"['lshift', 'v', 'e', 'r', 't', 'e', 'i', 'd', 'i', 'g', 'u', 'n', 'g', 's', 'm', 'i', 'n', 'i', 's', 't', 'e', 'r', 'i', 'n', 'return']","[0.8333013621650025, 1.0166122836017166, 1.1829830832957668, 1.4496819777559722, 1.8163705430688424, 2.099532878764876, 2.2662507634595386, 2.3994088648469187, 2.516050916919994, 2.76588635628832, 2.934822441322467, 3.115643140163229, 3.2658401638291252, 3.4324518700250337, 3.8320464670468937, 3.965673229417007, 4.115593098333193, 4.265455547458259, 4.415336601878153, 4.56535398820597, 4.6986031913857005, 4.91514445408211, 5.03164921190546, 5.148469297413612, 5.448124586193444]",2017_Feb_02_1304,60.0372465299,famFaceFilter,001,9,
34,./img/edges5_KatjaBurkard1_1.png,0,65,65,33,,,1.ja,1.434,None,None,None,host,0.623,None,None,None,Zitlow,"['lshift', 'z', 'i', 't', 'l', 'o', 'w', 'return']","[0.7335195573741657, 0.8169418539600883, 0.9835420120416529, 1.1001693081907433, 1.199904278961185, 1.3500368256554793, 1.583046341302179, 1.7332116076522652]",2017_Feb_02_1304,60.0372465299,famFaceFilter,001,9,
70,./img/edges5_BastianSchweinsteiger1_1.png,0,66,66,69,,,1.ja,1.477,None,None,None,None,None,sport,0.656,None,Schweinsteiger,"['lshift', 's', 'c', 'h', 'w', 'e', 'i', 'n', 's', 't', 'e', 'i', 'g', 'e', 'r', 'return']","[0.8498854170411505, 0.9498548786941683, 1.1999809456101502, 1.2665340130461118, 1.4664652376086451, 1.6494082232838991, 1.7996382873880066, 1.899645601195516, 2.0329246370038163, 2.1827992758044275, 2.3160953130045527, 2.4328246175009554, 2.6159680912769545, 2.7492734311235836, 2.949299286070527, 3.1323689802247827]",2017_Feb_02_1304,60.0372465299,famFaceFilter,001,9,
13,./img/edges5_MariskaHargitay(Liv)6_5.png,0,67,67,12,,,2.nein,3.504,None,None,None,host,2.522,None,None,None,,['return'],[0.4668302863410645],2017_Feb_02_1304,60.0372465299,famFaceFilter,001,9,
28,./img/edges5_Ice-T(OdafinFinTutuola)5_1.png,0,68,68,27,,,2.nein,3.145,None,None,None,host,0.64,None,None,None,,['return'],[0.4838910217258672],2017_Feb_02_1304,60.0372465299,famFaceFilter,001,9,
32,./img/edges5_Ice-T(OdafinFinTutuola)7_1.png,0,69,69,31,,,2.nein,2.822,None,None,None,host,0.689,None,None,None,,['return'],[0.5001854113943409],2017_Feb_02_1304,60.0372465299,famFaceFilter,001,9,
8,./img/edges5_LeonardoDiCaprio3_1.png,0,70,70,7,,,1.ja,1.678,None,act,2.506,None,None,None,None,None,Brad Pitt,"['lshift', 'b', 'r', 'a', 'd', 'space', 'lshift', 'p', 'i', 't', 't', 'return']","[2.1828384110813204, 2.332843928514194, 2.5827088797304896, 2.666048094048165, 2.882219817076475, 2.949149481361019, 3.1155623033610027, 3.298766404737762, 3.4989147980104462, 3.848728360115274, 4.048986460476954, 4.165398191820714]",2017_Feb_02_1304,60.0372465299,famFaceFilter,001,9,
14,./img/edges5_AngelaMerkel4_1.png,0,71,71,13,,,1.ja,1.167,None,None,None,None,None,polit,0.673,None,Angela Merkel,"['lshift', 'a', 'n', 'g', 'e', 'l', 'a', 'space', 'lshift', 'm', 'e', 'r', 'k', 'e', 'l', 'return']","[1.0166013770485733, 1.2334050385707087, 1.483232458414932, 1.6495695761077513, 1.7496795398201357, 2.016313957308739, 2.16624761980529, 2.2663142780893395, 2.4328451474830217, 2.5492873530183715, 2.6326592869936576, 2.816080557080568, 2.932495496235788, 3.0825055046007037, 3.232491454395131, 3.848914733855054]",2017_Feb_02_1304,60.0372465299,famFaceFilter,001,9,
46,./img/gray_GuentherJauch3_1.png,0,0,0,45,,,1.ja,1.505,None,None,None,host,1.057,None,None,None,Günther Jauch,"['lshift', 'g', u'\xfc', 'n', 't', 'h', 'e', 'r', 'space', 'lshift', 'j', 'a', 'u', 'c', 'h', 'return']","[0.850030089253778, 1.049704368266248, 1.3663552738962608, 1.6162603227312502, 1.8661140466138022, 2.0325868546533457, 2.066059706317901, 2.2660903729774873, 2.29029682503824, 2.4991749513701507, 2.81590380677153, 2.9158973269968556, 3.065807251701699, 3.215775879323701, 3.3489650964656903, 3.582228029070393]",2017_Feb_02_1304,60.0372465299,famFaceFilter,001,9,
69,./img/gray_OmarEpps(DrEricForeman)3_1.png,0,1,1,68,,,1.ja,2.046,None,act,0.557,None,None,None,None,None,Arzt bei Dr House,"['lshift', 'a', 'r', 'z', 't', 'space', 'b', 'e', 'i', 'space', 'lshift', 'd', 'r', 'space', 'lshift', 'h', 'o', 'u', 's', 'e', 'return']","[0.8502302565739228, 1.0000336820012308, 1.549815679260064, 1.7329703803698067, 1.8661865431113256, 1.9661922530121956, 2.0830116969573282, 2.2160809420183796, 2.3328410414869722, 2.4159653325605177, 2.5992708007215697, 2.649123049010086, 2.849176811900179, 2.9157385404214438, 3.049141397681524, 3.1324799704379984, 3.2655986157660664, 3.3989886417894013, 3.499057545539472, 3.6824791364069824, 3.798831844054803]",2017_Feb_02_1304,60.0372465299,famFaceFilter,001,9,
1,./img/gray_JoachimLoew8_1.png,0,2,2,0,,,1.ja,1.469,None,None,None,None,None,sport,0.905,None,Jogi Löw,"['lshift', 'j', 'o', 'g', 'i', 'space', 'lshift', 'l', u'\xf6', 'w', 'return']","[1.0164560632729263, 1.1999155062949285, 1.3665310618616786, 1.6829205310077668, 1.8826599285548582, 1.999585550998745, 2.1995456458480476, 2.2995035593849025, 2.4661117369905696, 3.2824681656966277, 3.5490329737167485]",2017_Feb_02_1304,60.0372465299,famFaceFilter,001,9,
15,./img/gray_GeorgeClooney11_1.png,0,3,3,14,,,1.ja,1.413,None,act,0.923,None,None,None,None,None,Clooney,"['lshift', 'c', 'l', 'o', 'o', 'n', 'e', 'y', 'return']","[0.74994065552346, 0.9333776438779751, 1.049645023789708, 1.1999052413048048, 1.3496047337011987, 1.533115180895038, 1.633054168356466, 2.049634438017165, 2.216070677028256]",2017_Feb_02_1304,60.0372465299,famFaceFilter,001,9,
17,./img/gray_JasonSegel(Marshall)6_1.png,0,4,4,16,,,1.ja,1.282,None,act,0.889,None,None,None,None,None,Marshall,"['lshift', 'm', 'a', 'r', 's', 'h', 'a', 'l', 'l', 'return']","[0.7666485318495688, 0.9000289344439807, 1.0665367076071561, 1.2498646304356953, 1.4164423338497727, 1.5830928545401548, 1.683160154385405, 1.9995233194931643, 2.13294381970627, 2.266062465036157]",2017_Feb_02_1304,60.0372465299,famFaceFilter,001,9,
24,./img/gray_JoachimLoew1_1.png,0,5,5,23,,,1.ja,1.262,None,None,None,None,None,sport,0.906,None,Jogi Löw,"['lshift', 'j', 'o', 'g', 'i', 'space', 'lshift', 'l', u'\xfc', 'backspace', u'\xf6', 'w', 'return']","[0.8000533779504622, 0.8833672505734285, 1.0499587475678709, 1.4829931558160752, 2.316096596128773, 2.4827368518290314, 2.6657796003837575, 2.8158691624266794, 3.0009257738511224, 3.6323032201271417, 3.8653852322695457, 4.1486008176052565, 4.548565275075816]",2017_Feb_02_1304,60.0372465299,famFaceFilter,001,9,
5,./img/gray_OmarEpps(DrEricForeman)2_2.png,0,6,6,4,,,1.ja,1.776,None,act,0.806,None,None,None,None,None,Arzt bei Dr House,"['lshift', 'a', 'r', 'z', 't', 'space', 'b', 'e', 'i', 'space', 'lshift', 'd', 'r', 'space', 'lshift', 'h', 'o', 'u', 's', 'e', 'return']","[0.7834805504080578, 0.9000545969192899, 1.2998166416018648, 1.716692029747719, 1.9498738047695952, 2.049933405871343, 2.566255703484785, 2.74959934457911, 2.8493362400367914, 2.932821088908895, 3.1994003320724005, 3.3158351596448483, 3.5825751140691864, 3.6825192340256763, 3.799125679413919, 3.965572504195734, 4.132194796162366, 4.265491474925511, 4.36536726853592, 4.548840505140106, 4.682104464243821]",2017_Feb_02_1304,60.0372465299,famFaceFilter,001,9,
20,./img/gray_WillSmith1_1.png,0,7,7,19,,,1.ja,1.427,None,dummy,0.407,None,None,None,None,None,Will Smith,"['lshift', 'w', 'i', 'l', 'l', 'space', 'lshift', 's', 'm', 'i', 't', 'h', 'return']","[0.8000822482372314, 0.9666480827563646, 1.0833735378801066, 1.2665388247605733, 1.416474411944364, 1.4997533194400603, 1.6165326657664991, 1.6997159805378033, 1.8164398317567247, 1.9495867058103613, 2.099520368306912, 2.183010991238916, 2.4493634422615287]",2017_Feb_02_1304,60.0372465299,famFaceFilter,001,9,
70,./img/gray_WillSmith5_1.png,0,8,8,69,,,1.ja,1.454,None,act,0.406,None,None,None,None,None,Will Smith,"['lshift', 'w', 'i', 'l', 'l', 'space', 'lshift', 's', 'm', 'i', 't', 'h', 'return']","[0.6834328182012541, 0.7500375313720724, 0.8834355769176909, 1.0998738689249876, 1.2332427234032366, 1.3332080149048124, 1.4665759070394415, 1.5331562408573518, 1.6332097471222369, 1.7830872729500697, 1.9326985505831544, 2.0330327401879913, 2.3162563450459857]",2017_Feb_02_1304,60.0372465299,famFaceFilter,001,9,
4,./img/gray_AngelaMerkel1_1.png,0,9,9,3,,,1.ja,1.481,None,None,None,None,None,polit,0.488,None,Angela Merkel,"['lshift', 'a', 'n', 'g', 'e', 'l', 'a', 'space', 'lshift', 'm', 'e', 'r', 'k', 'e', 'l', 'return']","[0.7499335983411584, 0.9001687949403276, 1.0000936680389714, 1.2166573854028684, 1.3498889456313918, 1.5661479210812104, 1.7163186407087778, 1.7997633919621876, 1.9496136514098907, 2.049611021006058, 2.166261413385655, 2.365967770494535, 2.482835010803683, 2.5994539666480705, 2.732752249316036, 2.94924411174361]",2017_Feb_02_1304,60.0372465299,famFaceFilter,001,9,
61,./img/gray_AlysonHannigan(Lily)8_3.png,0,10,10,60,,,1.ja,1.504,None,act,0.405,None,None,None,None,None,Lilly,"['lshift', 'l', 'i', 'l', 'l', 'y', 'return']","[0.6164701134784991, 0.7166676503948111, 0.8831869716741494, 1.0499648424065526, 1.2022209590577404, 1.3331701627521397, 1.483005666274039]",2017_Feb_02_1304,60.0372465299,famFaceFilter,001,9,
32,./img/gray_MariskaHargitay(Liv)6_5.png,0,11,11,31,,,2.nein,3.658,None,act,1.89,None,None,None,None,None,,['return'],[0.516935951589403],2017_Feb_02_1304,60.0372465299,famFaceFilter,001,9,
47,./img/gray_HughLaurie(DrHouse)5_3.png,0,12,12,46,,,1.ja,1.062,None,act,0.406,None,None,None,None,None,Dr House,"['lshift', 'd', 'r', 'space', 'lshift', 'h', 'o', 'u', 's', 'e', 'return']","[0.6999899274778727, 0.850089433732137, 1.0835108321316511, 1.1330695658416516, 1.2666312096771435, 1.3833627596395672, 1.5164913491789775, 1.6997249624037067, 1.7664679321678705, 2.0330754040551255, 2.1995379471045453]",2017_Feb_02_1304,60.0372465299,famFaceFilter,001,9,
66,./img/gray_NeilPatrickHarris(Barney)3_7.png,0,13,13,65,,,1.ja,1.372,None,dummy,0.405,None,None,None,None,None,Neil Patrick Harris,"['lshift', 'n', 'e', 'i', 'l', 'space', 'lshift', 'p', 'a', 't', 'r', 'i', 'c', 'k', 'space', 'lshift', 'h', 'a', 'r', 'r', 'i', 's', 'return']","[0.6668096280482132, 0.7832736466880306, 0.9332162910523039, 1.0331350693140848, 1.2330473677993723, 1.3829701237445988, 1.4664264231123525, 1.5663570702690777, 1.7496160251903348, 2.01628284155413, 2.2162102167440025, 2.2995542427761393, 2.516016914138163, 2.5659455082968634, 2.665944481796032, 2.782702656579204, 2.8993026863481646, 2.9989840866983286, 3.1657433521340863, 3.3490892386962514, 3.5489659304948873, 3.6989329542120686, 3.8488043852030387]",2017_Feb_02_1304,60.0372465299,famFaceFilter,001,9,
44,./img/gray_BritneySpears5_1.png,0,14,14,43,,,1.ja,1.471,None,None,None,music,0.505,None,None,None,Britney Spears,"['lshift', 'b', 'r', 'i', 't', 'n', 'e', 'y', 'space', 'lshift', 's', 'p', 'e', 'a', 'r', 's', 'return']","[0.7167125597297854, 0.8334665643578774, 1.06676349974623, 1.1833535853038484, 2.14941111031294, 2.299228329320613, 2.449296078260886, 2.9824061266590434, 3.1321303191889456, 3.3156773354130564, 3.3822554237649456, 3.59902412016163, 3.9318651616486022, 4.232070910555194, 4.481856949654684, 5.081720232808948, 5.448310959929586]",2017_Feb_02_1304,60.0372465299,famFaceFilter,001,9,
43,./img/gray_LisaEdelstein(DrLisaCuddy)6_3.png,0,15,15,42,,,1.ja,1.287,None,dummy,0.539,None,None,None,None,None,Chefin von Dr House,"['lshift', 'c', 'h', 'e', 'f', 'i', 'n', 'space', 'v', 'o', 'n', 'space', 'lshift', 'd', 'r', 'space', 'lshift', 'h', 'o', 'u', 's', 'e', 'return']","[0.8999461729545146, 0.9833527512728324, 1.199916147856129, 1.2998079805165617, 1.516503538854522, 1.66630792662545, 1.8161716588729178, 1.9329542130089976, 2.0829770526124776, 2.249413933184769, 2.4160984566588013, 2.5659900968494185, 2.715935949023333, 2.782639141949403, 2.9823923330786783, 3.0491314534701814, 3.1658517760988616, 3.2823363247225643, 3.432300782191305, 3.5656414079458045, 3.648922560909341, 3.8320464670468937, 3.965538501413903]",2017_Feb_02_1304,60.0372465299,famFaceFilter,001,9,
3,./img/gray_KatjaBurkard1_1.png,0,16,16,2,,,1.ja,1.364,None,None,None,host,1.505,None,None,None,Zitlow,"['lshift', 'z', 'i', 't', 'l', 'o', 'w', 'return']","[0.8499531018223934, 1.1332447122458689, 1.3663373101608158, 1.4997167504116078, 1.599660228805078, 1.7328693343661143, 1.8994005245403969, 2.0825404697243357]",2017_Feb_02_1304,60.0372465299,famFaceFilter,001,9,
63,./img/gray_JoshRadnor(Ted)3_1.png,0,17,17,62,,,1.ja,1.482,None,act,0.456,None,None,None,None,None,Ted,"['lshift', 't', 'e', 'd', 'return']","[0.6334830525011057, 0.7500843653924676, 0.99990986055127, 1.2164228945221112, 1.3665403645100014]",2017_Feb_02_1304,60.0372465299,famFaceFilter,001,9,
10,./img/gray_HughLaurie(DrHouse)2_1.png,0,18,18,9,,,1.ja,1.688,None,act,0.406,None,None,None,None,None,Dr House,"['lshift', 'd', 'r', 'space', 'lshift', 'h', 'o', 'u', 's', 'e', 'return']","[0.7331262799161777, 0.8499591966610751, 1.0331485421138495, 1.0998629623736633, 1.216351681148808, 1.2997265021531348, 1.4496598438690853, 1.6163347439141944, 1.6495391019161616, 1.8995535370577272, 2.04937364309626]",2017_Feb_02_1304,60.0372465299,famFaceFilter,001,9,
19,./img/gray_JasonSegel(Marshall)9_1.png,0,19,19,18,,,1.ja,1.445,None,dummy,0.406,None,None,None,None,None,Marshall,"['lshift', 'm', 'a', 'r', 's', 'h', 'a', 'l', 'l', 'return']","[0.9333715490374743, 1.050165651287898, 1.1333277945141162, 1.3665637815192895, 1.4831930023556197, 1.7498591771582142, 1.8496980809595698, 2.182937532397773, 2.332873761142764, 2.5992951800726587]",2017_Feb_02_1304,60.0372465299,famFaceFilter,001,9,
51,./img/gray_AlysonHannigan(Lily)1_1.png,0,20,20,50,,,1.ja,1.702,None,act,0.772,None,None,None,None,None,Lilly,"['lshift', 'l', 'i', 'l', 'l', 'y', 'return']","[0.7169380687446392, 0.8502142175257177, 1.0001584657948115, 1.200060178509375, 1.3165707103889872, 1.416579307318898, 1.58317144587636]",2017_Feb_02_1304,60.0372465299,famFaceFilter,001,9,
62,./img/gray_LisaEdelstein(DrLisaCuddy)1_1.png,0,21,21,61,,,1.ja,1.285,None,dummy,0.423,None,None,None,None,None,Chefin dR House,"['lshift', 'c', 'h', 'e', 'f', 'i', 'n', 'space', 'd', 'lshift', 'r', 'space', 'lshift', 'h', 'o', 'u', 's', 'e', 'return']","[0.8333995211378351, 0.9664645960456255, 1.1330252980696969, 1.2497818689462292, 1.4662961860412906, 1.949443316720135, 2.099223325138155, 2.2160129364547174, 2.3992032442492928, 2.4254841867805226, 2.6159215780371596, 2.6825875603699387, 2.7824306343245553, 2.882478687311959, 3.032467203354827, 3.149075252646071, 3.2323323470391188, 3.43231650045891, 3.6156004762942757]",2017_Feb_02_1304,60.0372465299,famFaceFilter,001,9,
6,./img/gray_NicoleKidman3_1.png,0,22,22,5,,,1.ja,1.622,None,act,2.505,None,None,None,None,None,Nicole Kidmann,"['lshift', 'n', 'i', 'c', 'o', 'l', 'e', 'space', 'lshift', 'k', 'i', 'd', 'm', 'a', 'n', 'n', 'return']","[0.8333180427744082, 0.950045422583571, 1.1165233631181763, 1.3332663970395515, 1.6830334459064034, 1.8662978541033226, 1.9662557676419965, 2.099433115885404, 2.2827020150180033, 2.5826886705290235, 2.7325844808729016, 2.8825203888372926, 3.0489829318867123, 3.148936354491525, 3.2823238142646005, 3.3988109291349247, 3.598705263886586]",2017_Feb_02_1304,60.0372465299,famFaceFilter,001,9,
59,./img/gray_AlysonHannigan(Lily)5_4.png,0,23,23,58,,,1.ja,1.405,None,dummy,0.822,None,None,None,None,None,Lilly,"['lshift', 'l', 'i', 'l', 'l', 'y', 'return']","[0.8002137684325135, 0.9501612245112483, 1.16680096696291, 1.3666276169315097, 1.5165359377333516, 1.6498233138481737, 1.7830061153690622]",2017_Feb_02_1304,60.0372465299,famFaceFilter,001,9,
31,./img/gray_AngelaMerkel3_1.png,0,24,24,30,,,1.ja,1.321,None,None,None,None,None,polit,0.638,None,Angela Merkel,"['lshift', 'a', 'n', 'g', 'e', 'l', 'a', 'space', 'lshift', 'm', 'e', 'r', 'k', 'e', 'l', 'return']","[0.7335048014501808, 0.9165744956044364, 1.0664982138914638, 1.2998695704609418, 1.3997575537505327, 1.5997955983730208, 1.7664204565862747, 1.8513568393063906, 1.999593891303448, 2.066317293429165, 2.5993914143618895, 2.8160083813654637, 3.6157676031762094, 3.6987815455995587, 3.815648465128106, 4.015774082950884]",2017_Feb_02_1304,60.0372465299,famFaceFilter,001,9,
71,./img/gray_BritneySpears7_1.png,0,25,25,70,,,1.ja,1.227,None,None,None,music,0.472,None,None,None,Britney Spears,"['lshift', 'b', 'r', 'i', 't', 'n', 'e', 'y', 'space', 'lshift', 's', 'p', 'e', 'a', 'r', 's', 'return']","[0.8999737601188826, 0.9667542612551188, 1.21669844536882, 1.366651354723217, 1.8995496876887046, 2.499527168865825, 2.749444407376359, 3.132395925826131, 3.249151855141463, 3.4156323619245086, 3.466029617065942, 3.7490168063577585, 4.1654065321272356, 4.598691470306221, 4.781931499152051, 5.081817750222399, 5.281517370931397]",2017_Feb_02_1304,60.0372465299,famFaceFilter,001,9,
26,./img/gray_BarackObama1_3.png,0,26,26,25,,,1.ja,1.231,None,None,None,None,None,polit,0.557,None,Barack Obama,"['lshift', 'b', 'a', 'r', 'a', 'c', 'k', 'space', 'lshift', 'o', 'b', 'a', 'm', 'a', 'return']","[0.7333957359242049, 0.8999201896967861, 1.0831887680469663, 1.1831117164601892, 1.2997303515257954, 1.5829398420228245, 1.716139644935538, 1.8330017527478049, 1.9496518243468017, 2.032926240910456, 2.29928382442813, 2.4159961275327078, 2.5326089885402325, 2.632580054098071, 2.8824988965134253]",2017_Feb_02_1304,60.0372465299,famFaceFilter,001,9,
12,./img/gray_BarackObama2_1.png,0,27,27,11,,,1.ja,1.421,None,None,None,None,None,polit,0.538,None,Barack Obama,"['lshift', 'b', 'a', 'r', 'a', 'c', 'k', 'space', 'lshift', 'o', 'b', 'a', 'm', 'a', 'return']","[0.7001512803017249, 0.8666561664358596, 1.0665581999310234, 1.150005838213474, 1.2831164640192583, 1.5164223812716955, 1.6497251548735221, 1.7662799545250891, 1.882796581245202, 1.9661515138286632, 2.23257966915844, 2.3494802706882183, 2.466008124740256, 2.5659772656108544, 3.2325132674995984]",2017_Feb_02_1304,60.0372465299,famFaceFilter,001,9,
22,./img/gray_GuentherJauch4_1.png,0,28,28,21,,,1.ja,1.475,None,None,None,host,0.823,None,None,None,Günther Jauch,"['lshift', 'g', u'\xfc', 'n', 't', 'h', 'e', 'r', 'space', 'lshift', 'j', 'a', 'c', 'backspace', 'u', 'c', 'h', 'return']","[1.0165757145714451, 1.1833336968848016, 1.3831221739201283, 1.6497838577888615, 1.8997180976912205, 2.082880176763865, 2.182950363636337, 2.3496236597766256, 2.6994160503400053, 2.815974699364233, 2.932568634294512, 3.049315260961521, 3.432483948121444, 3.9989192889443075, 4.231953183943915, 4.348793799432315, 4.465347957522681, 4.8485698943222815]",2017_Feb_02_1304,60.0372465299,famFaceFilter,001,9,
50,./img/gray_BastianSchweinsteiger3_1.png,0,29,29,49,,,1.ja,1.699,None,None,None,None,None,sport,0.772,None,Schweinsteiger,"['lshift', 's', 'c', 'h', 'w', 'e', 'i', 'n', 's', 't', 'e', 'i', 'g', 'e', 'r', 'return']","[0.9000180278908374, 1.0165186155609263, 1.249620516124196, 1.3499117210794793, 1.4831513008321053, 1.6664545235253172, 1.7829025031187484, 1.8995791995366744, 2.0328104389827786, 2.199378839748533, 2.316172941997138, 2.4825989160181052, 2.6660573966964876, 2.7491694980926695, 2.9158411903281376, 3.0989705497413524]",2017_Feb_02_1304,60.0372465299,famFaceFilter,001,9,
30,./img/gray_BarackObama4_1.png,0,30,30,29,,,1.ja,1.622,None,None,None,None,None,polit,0.639,None,Barack Obama,"['lshift', 'b', 'a', 'r', 'a', 'c', 'k', 'space', 'lshift', 'o', 'b', 'a', 'm', 'a', 'return']","[1.449753832692295, 1.5829959786897234, 1.799609096322456, 1.9163480242459627, 2.016080428769783, 2.2661586993235687, 2.566076707709726, 2.699201768658895, 2.8491081647734973, 2.915966936465338, 3.1658344539282552, 3.2824614292985643, 3.4320775186442916, 3.499037336338006, 4.082074695772462]",2017_Feb_02_1304,60.0372465299,famFaceFilter,001,9,
25,./img/gray_MariskaHargitay(Liv)8_8.png,0,31,31,24,,,2.nein,2.322,None,None,None,host,1.355,None,None,None,,['return'],[0.4335046731375769],2017_Feb_02_1304,60.0372465299,famFaceFilter,001,9,
2,./img/gray_BastianSchweinsteiger1_1.png,0,32,32,1,,,1.ja,1.521,None,None,None,None,None,sport,0.673,None,Schweinsteiger,"['lshift', 's', 'c', 'h', 'w', 'e', 'i', 'n', 's', 't', 'e', 'i', 'g', 'e', 'r', 'return']","[0.7333681487598369, 0.8834676550141012, 1.1000474114262033, 1.200039969307909, 1.316545047911859, 1.533198904724486, 1.5998600753446226, 1.6995575147429918, 1.8163272376386885, 1.9660985849714052, 2.0995344826696964, 2.2660999964064104, 2.4828311614328413, 2.549381021059162, 2.766026537567086, 3.165998693779329]",2017_Feb_02_1304,60.0372465299,famFaceFilter,001,9,
65,./img/gray_KatjaBurkard5_3.png,0,33,33,64,,,1.ja,1.198,None,None,None,host,0.456,None,None,None,Zitlow,"['lshift', 'z', 'i', 't', 'l', 'o', 'w', 'return']","[0.7335057637919817, 0.9000677489384543, 1.083386689899271, 1.2498412134245882, 1.3833184918676125, 1.5497261813707155, 1.6996675426125876, 2.016091976882308]",2017_Feb_02_1304,60.0372465299,famFaceFilter,001,9,
21,./img/gray_HughLaurie(DrHouse)4_1.png,0,34,34,20,,,1.ja,1.498,None,dummy,0.705,None,None,None,None,None,Dr House,"['lshift', 'd', 'r', 'space', 'lshift', 'h', 'o', 'u', 's', 'e', 'return']","[0.8000620390375843, 0.918666629027939, 1.1333438335641404, 1.156493312359089, 1.283391694083548, 1.3666199181880074, 1.5000513249542564, 1.649911528611483, 1.675880030486951, 1.883050960546825, 2.0161330368464405]",2017_Feb_02_1304,60.0372465299,famFaceFilter,001,9,
8,./img/gray_BastianSchweinsteiger6_2.png,0,35,35,7,,,1.ja,1.539,None,None,None,None,None,sport,0.889,None,Schweinsteiger,"['lshift', 's', 'c', 'h', 'w', 'e', 'i', 'n', 's', 't', 'e', 'i', 'g', 'e', 'r', 'return']","[0.8497551799700886, 0.9832109660892456, 1.1828525254441047, 1.233116977267855, 1.4163829893695947, 1.5998273556870117, 1.8662426797782246, 2.0660792739563476, 2.3990903293506562, 2.649120803542246, 2.782471694286869, 2.932419471146204, 3.1489315427752445, 3.232498832356214, 3.4323222745151725, 3.6153788166502636]",2017_Feb_02_1304,60.0372465299,famFaceFilter,001,9,
41,./img/gray_RobertSeanLeonard(Wilson)1_1.png,0,36,36,40,,,1.ja,1.647,None,act,0.822,None,None,None,None,None,Freund von Dr House,"['lshift', 'f', 'r', 'e', 'u', 'n', 'd', 'space', 'v', 'o', 'n', 'space', 'lshift', 'd', 'r', 'space', 'lshift', 'h', 'o', 'u', 's', 'e', 'return']","[1.3992475120230665, 1.4991938774455775, 1.6992168453634804, 1.9156833660963457, 2.032345627370887, 2.215457023050476, 2.315449901712782, 2.4653460328372603, 3.3652187469524506, 3.4652761025881773, 3.648314360209042, 3.7816572314295627, 3.93121397629875, 4.081610525721771, 4.281533730760202, 4.365639290792387, 4.464761890709269, 4.564703765197919, 4.697570276692204, 4.831117485384311, 4.897646494249784, 5.097695766204197, 5.247614031215562]",2017_Feb_02_1304,60.0372465299,famFaceFilter,001,9,
48,./img/gray_LeonardoDiCaprio2_1.png,0,37,37,47,,,1.ja,1.687,None,dummy,2.588,None,None,None,None,None,Bra dPitt,"['lshift', 'b', 'r', 'a', 'space', 'd', 'lshift', 'p', 'i', 't', 't', 'return']","[1.3831539312341192, 1.5496892915616627, 1.799595302740272, 1.8994492832462129, 2.116242038215205, 2.166193407821993, 2.399296591509483, 2.532702977359804, 2.7160418067396677, 2.915904384177338, 3.0824647654189903, 3.1989919779098273]",2017_Feb_02_1304,60.0372465299,famFaceFilter,001,9,
29,./img/gray_UrsulavonderLeyen4_1.png,0,38,38,28,,,1.ja,1.298,None,None,None,None,None,polit,0.556,None,Verteidigungsministerin,"['lshift', 'v', 'e', 'r', 't', 'e', 'i', 'd', 'i', 'g', 'u', 'n', 'g', 's', 'm', 'i', 'n', 'i', 's', 't', 'e', 'r', 'i', 'n', 'return']","[0.7499666387793695, 0.9167547745037155, 1.050117854923883, 1.2667608051851857, 1.4666038149825908, 1.682964157218521, 1.8332112227144535, 1.9996234031514177, 2.083118517017283, 2.383002201841009, 2.5662066239983687, 2.7828104389827786, 2.999212161959804, 3.349098220563974, 3.5656369170119433, 3.749117210796612, 3.89901141723567, 3.9823490276485245, 4.115626138771404, 4.265629089957656, 4.365302791564318, 4.548825749216121, 4.698702633482753, 4.831952799006103, 5.131737362513377]",2017_Feb_02_1304,60.0372465299,famFaceFilter,001,9,
60,./img/gray_EmilyDeschanel3_1.png,0,39,39,59,,,1.ja,3.981,None,None,None,music,5.52,None,None,None,Adele,"['lshift', 'a', 'd', 'e', 'l', 'e', 'return']","[3.515716021596745, 3.6488561592504993, 3.882117167169781, 4.098740870573238, 4.1821654126270005, 4.281915139321427, 4.398585740900671]",2017_Feb_02_1304,60.0372465299,famFaceFilter,001,9,
16,./img/gray_JoshRadnor(Ted)1_2.png,0,40,40,15,,,1.ja,1.183,None,act,0.523,None,None,None,None,None,Ted,"['lshift', 't', 'e', 'd', 'return']","[0.7167520157872787, 0.9332753147500625, 1.050081927456631, 1.2337245364069531, 1.3332092980272137]",2017_Feb_02_1304,60.0372465299,famFaceFilter,001,9,
7,./img/gray_OmarEpps(DrEricForeman)1_5.png,0,41,41,6,,,1.ja,1.36,None,act,1.006,None,None,None,None,None,Arzt bei Dr House,"['lshift', 'a', 'r', 'z', 't', 'space', 'b', 'e', 'i', 'space', 'lshift', 'd', 'r', 'space', 'lshift', 'h', 'o', 'u', 's', 'e', 'return']","[0.7334512310280843, 0.9333840594954381, 1.199851350102108, 1.4165927801186626, 1.566435982385883, 1.6831989688816975, 1.882961783439896, 2.0164268722055567, 2.132990332944246, 2.2328122353555955, 2.4326911726202525, 2.482721454343846, 2.6826866816882102, 2.7677581131920306, 2.882355507423199, 2.982832765337662, 3.1323760374052654, 3.2823802717139188, 3.310590711722398, 3.499154100607484, 3.6822789690868376]",2017_Feb_02_1304,60.0372465299,famFaceFilter,001,9,
58,./img/gray_GeorgeClooney3_1.png,0,42,42,57,,,1.ja,1.409,None,act,0.939,None,None,None,None,None,Clooney,"['lshift', 'c', 'l', 'o', 'o', 'n', 'e', 'y', 'return']","[0.7500083403065219, 0.9500011548116163, 1.1499294923451089, 1.2833336327294091, 1.4665335639547266, 1.6832028182543581, 1.8163766379075241, 2.1494053362566774, 2.349310256779063]",2017_Feb_02_1304,60.0372465299,famFaceFilter,001,9,
9,./img/gray_RobertSeanLeonard(Wilson)8_1.png,0,43,43,8,,,1.ja,1.329,None,act,0.407,None,None,None,None,None,Freund von dr House,"['lshift', 'f', 'r', 'e', 'u', 'n', 'd', 'space', 'v', 'o', 'n', 'space', 'd', 'r', 'space', 'lshift', 'h', 'o', 'u', 's', 'e', 'return']","[0.833219242238556, 0.9166036866718059, 1.0830469828615605, 1.316559803835844, 1.5329897555384377, 1.766325505423083, 1.8830227318212565, 1.9662974691655108, 2.166191483136572, 2.382793052653142, 2.5159890061950136, 2.6831376997179177, 2.7991779667099763, 3.1990497184815467, 3.365592456771992, 3.582268447471506, 4.215276102588177, 4.365350267145914, 4.515377918465674, 4.632034084901534, 4.815185257419216, 4.931867727895224]",2017_Feb_02_1304,60.0372465299,famFaceFilter,001,9,
39,./img/gray_UrsulavonderLeyen1_1.png,0,44,44,38,,,1.ja,1.253,None,None,None,None,None,polit,0.806,None,Verteidigungsministerin,"['lshift', 'v', 'e', 'r', 't', 'e', 'i', 'd', 'i', 'g', 'u', 'n', 'g', 's', 'm', 'i', 'n', 'i', 's', 't', 'e', 'r', 'i', 'n', 'return']","[0.749951241294184, 0.8998383905527589, 0.9497429261391517, 1.149715531444599, 1.3662734747504146, 1.5996079415108397, 1.6995607225526328, 1.8829813510783424, 1.9830255546949047, 2.2661115445225732, 2.4324720792264998, 2.632782787664837, 2.8323216971111833, 2.949103930464844, 3.149045420017501, 3.282177858929572, 3.4155377315400983, 3.548773782700664, 3.648694485647866, 3.8154951318283565, 3.932067574434768, 4.132012913358267, 4.265313762272854, 4.398695447989667, 4.715213871082597]",2017_Feb_02_1304,60.0372465299,famFaceFilter,001,9,
40,./img/gray_BritneySpears1_1.png,0,45,45,39,,,1.ja,1.736,None,None,None,music,0.805,None,None,None,Britney Spears,"['lshift', 'b', 'r', 'i', 't', 'n', 'e', 'y', 'space', 'lshift', 's', 'p', 'e', 'a', 'r', 's', 'return']","[0.6999081283320265, 0.8500583179775276, 1.099552125622722, 1.2499242956928356, 1.3998679024007288, 1.5162770674978674, 1.6997217545940657, 2.0829587680982513, 2.182909945235224, 2.3494234924582997, 2.416054830448047, 2.6493777490923094, 2.8993068564996065, 3.151270356758687, 3.2654452824663167, 3.3990492693883425, 3.7321838254538307]",2017_Feb_02_1304,60.0372465299,famFaceFilter,001,9,
38,./img/gray_MariskaHargitay(Liv)4_4.png,0,46,46,37,,,2.nein,4.797,None,None,None,host,1.399,None,None,None,,['return'],[0.7333909242079244],2017_Feb_02_1304,60.0372465299,famFaceFilter,001,9,
72,./img/gray_WillSmith4_1.png,0,47,47,71,,,1.ja,1.05,None,act,0.639,None,None,None,None,None,Will Smith,"['lshift', 'w', 'i', 'l', 'l', 'space', 'lshift', 's', 'm', 'i', 't', 'h', 'return']","[0.9498061199883523, 1.1164871148703241, 1.382845339951018, 1.5829392004598049, 1.73298032457933, 1.8168475443580974, 1.9662121414312423, 2.016247876430498, 2.1828797918260534, 2.299382304183382, 2.51603808568143, 2.632791127967721, 2.9158687774906866]",2017_Feb_02_1304,60.0372465299,famFaceFilter,001,9,
36,./img/gray_TomCruise5_1.png,0,48,48,35,,,1.ja,3.016,None,act,0.406,None,None,None,None,None,,['return'],[0.5667641413074307],2017_Feb_02_1304,60.0372465299,famFaceFilter,001,9,
14,./img/gray_JoshRadnor(Ted)6_2.png,0,49,49,13,,,1.ja,1.199,None,act,0.59,None,None,None,None,None,Ted,"['lshift', 't', 'e', 'd', 'return']","[0.7832210386113729, 1.016445156719783, 1.2163677201970131, 1.4330732227444969, 1.632525200551754]",2017_Feb_02_1304,60.0372465299,famFaceFilter,001,9,
13,./img/gray_NeilPatrickHarris(Barney)2_2.png,0,50,50,12,,,1.ja,1.165,None,act,0.406,None,None,None,None,None,Neil Patrick Harris,"['lshift', 'n', 'e', 'i', 'l', 'space', 'lshift', 'p', 'a', 't', 'r', 'i', 'c', 'k', 'space', 'lshift', 'h', 'a', 'r', 'r', 'i', 's', 'return']","[0.6666915806545148, 0.8166608498395362, 0.9001562844841828, 1.0998940781282727, 1.2998384547099704, 1.4497015453944186, 1.5663015751633793, 1.6163007411323633, 1.799699235773005, 1.9662073297167808, 2.13294253658205, 2.2994262511747365, 2.4828077444235532, 2.5493996263558074, 2.6990853251700173, 2.849089880259271, 2.9491469151143974, 3.065833555741847, 3.2490315622817434, 3.3989783767974586, 3.582260107166803, 3.731800492207185, 3.932129805940349]",2017_Feb_02_1304,60.0372465299,famFaceFilter,001,9,
18,./img/gray_JasonSegel(Marshall)7_1.png,0,51,51,17,,,1.ja,1.349,None,act,0.621,None,None,None,None,None,Marshall,"['lshift', 'm', 'a', 'r', 's', 'h', 'a', 'l', 'l', 'return']","[0.6507009705546807, 0.784045766460622, 0.9006040947042493, 1.1339533173868404, 1.2339259868494992, 1.4504008478870674, 1.5337968404346611, 1.8335640817695094, 1.9836048851084342, 2.1501970236658963]",2017_Feb_02_1304,60.0372465299,famFaceFilter,001,9,
42,./img/gray_NicoleKidman5_1.png,0,52,52,41,,,1.ja,1.67,None,act,0.406,None,None,None,None,None,Nicole Kidmann,"['lshift', 'n', 'i', 'c', 'o', 'l', 'e', 'space', 'lshift', 'k', 'i', 'd', 'm', 'a', 'n', 'n', 'return']","[0.8500435620553617, 0.933218536520144, 1.099900814528155, 1.3829807095171418, 1.4997831520704494, 1.682898397122699, 1.7996831967248, 1.8829393287724088, 2.03287684064162, 2.149570217668952, 2.2826394627300033, 2.399487456181305, 2.549305958315017, 2.6992723404691787, 2.7992546333607606, 2.9658198263168742, 3.232509418128757]",2017_Feb_02_1304,60.0372465299,famFaceFilter,001,9,
