num,pic,trials.thisRepN,trials.thisTrialN,trials.thisN,trials.thisIndex,key_resp_2.keys,key_resp_2.rt,ratingBekannt.response,ratingBekannt.rt,key_resp_5.keys,ratingK1.response,ratingK1.rt,ratingK2.response,ratingK2.rt,ratingK3.response,ratingK3.rt,key_resp_6.keys,inputText,key_resp_4.keys,key_resp_4.rt,date,frameRate,expName,session,participant
,,,,,,space,40.7640789353,,,,,,,,,,,,,,2016_Nov_30_1302,60.0406184635,famFaceFilter,1,jb
1,./img/smoo15_Ice-T(OdafinFinTutuola)6_1.png,0,0,0,0,,,1.ja,10.784,None,act,4.765,None,None,None,None,None,Ice T,"['lshift', 'i', 'c', 'e', 'space', 'lshift', 't', 'period', 'period', 'return']","[7.213715351790597, 7.314223428767946, 8.01313513230889, 8.213087914095013, 8.812924767462391, 11.61213893061722, 11.64536490025057, 13.761735987947759, 15.14403801066328, 17.459704289512956]",2016_Nov_30_1302,60.0406184635,famFaceFilter,1,jb
2,./img/smoo15_WillSmith5_1.png,0,1,1,1,,,1.ja,5.119,None,act,5.782,None,None,None,None,None,Will Smith,"['lshift', 'w', 'i', 'l', 'l', 'space', 'lshift', 's', 'm', 'i', 't', 'h', 'return']","[2.7996347003845585, 2.949575629498213, 3.1494963336917863, 3.3492720471695065, 3.4989736774496123, 3.849258414193173, 4.632079324035658, 4.715515706631777, 4.998785863148441, 5.215300305602796, 5.598496010028612, 5.798428582929773, 7.830725264728244]",2016_Nov_30_1302,60.0406184635,famFaceFilter,1,jb
3,./img/smoo15_JoshRadnor(Ted)3_1.png,0,2,2,2,,,2.nein,21.184,None,dummy,1.552,None,None,None,None,None,,['return'],[0.9832696111971018],2016_Nov_30_1302,60.0406184635,famFaceFilter,1,jb
4,./img/smoo15_UrsulavonderLeyen1_1.png,0,3,3,3,,,2.nein,15.75,None,dummy,1.207,None,None,None,None,None,,['return'],[0.9504885577625828],2016_Nov_30_1302,60.0406184635,famFaceFilter,1,jb
5,./img/smoo15_BarackObama1_3.png,0,4,4,4,,,1.ja,16.382,None,None,None,None,None,polit,1.091,None,Obama,"['lshift', 'o', 'b', 'a', 'm', 'a', 'return']","[1.3997875180320989, 1.5830814440432732, 2.033146096429846, 2.2664156274331617, 2.682731766215511, 2.866136359918528, 4.115656078174652]",2016_Nov_30_1302,60.0406184635,famFaceFilter,1,jb
6,./img/smoo15_AlysonHannigan(Lily)1_1.png,0,5,5,5,,,2.nein,12.742,None,dummy,1.32,None,None,None,None,None,,['return'],[0.8833957082097186],2016_Nov_30_1302,60.0406184635,famFaceFilter,1,jb
7,./img/smoo15_LisaEdelstein(DrLisaCuddy)2_2.png,0,6,6,6,,,1.ja,7.535,None,dummy,1.674,None,None,None,None,None,Cuddy,"['lshift', 'c', 'u', 'd', 'd', 'y', 'return']","[2.898859673689003, 3.0153491276996647, 3.3485461312666303, 3.498931014251866, 3.7150207493905327, 4.748506226742393, 5.747491291736878]",2016_Nov_30_1302,60.0406184635,famFaceFilter,1,jb
8,./img/smoo15_AngelaMerkel4_1.png,0,7,7,7,,,1.ja,2.008,None,None,None,None,None,polit,1.676,None,Merkel,"['lshift', 'm', 'e', 'r', 'k', 'e', 'l', 'return']","[1.4164332219916105, 1.54978329982805, 1.799279601442322, 1.866334599435504, 2.2661634975611378, 2.4327626408958167, 2.565825624285935, 3.23240888921282]",2016_Nov_30_1302,60.0406184635,famFaceFilter,1,jb
9,./img/smoo15_EmilyDeschanel6_12.png,0,8,8,8,,,2.nein,20.683,None,dummy,1.55,None,None,None,None,None,,['return'],[0.5836472927639988],2016_Nov_30_1302,60.0406184635,famFaceFilter,1,jb
10,./img/smoo15_KatjaBurkard5_3.png,0,9,9,9,,,1.ja,2.543,None,None,None,host,2.46,None,None,None,Katja Burkhard,"['lshift', 'k', 'a', 't', 'j', 'a', 'space', 'lshift', 'b', 'u', 'r', 'k', 'h', 'a', 'r', 'd', 'return']","[1.9495047380205506, 2.066416333140296, 2.4327806043493183, 2.6662095609826792, 2.8495795108883613, 3.015826763041332, 3.2826189814022655, 3.5818785343490163, 3.665586293373053, 4.015449851336598, 4.198540726192732, 4.848105866318292, 5.315097863922347, 5.464426111031571, 5.781118231267101, 6.347546272729232, 7.213941178037203]",2016_Nov_30_1302,60.0406184635,famFaceFilter,1,jb
11,./img/smoo15_LeonardoDiCaprio3_1.png,0,10,10,10,,,1.ja,3.292,None,act,0.975,None,None,None,None,None,DiCaprio,"['lshift', 'd', 'i', 'lshift', 'c', 'a', 'p', 'r', 'o', 'backspace', 'i', 'o', 'return']","[1.6162823931554158, 1.7329736152187252, 1.9163025058041967, 2.79952114570915, 2.899337950580957, 3.099358736861177, 3.5159067966324073, 3.815633720092592, 4.015509836432102, 4.632077078604198, 5.431343849009863, 5.664580981645486, 6.531186315954983]",2016_Nov_30_1302,60.0406184635,famFaceFilter,1,jb
12,./img/smoo15_MariskaHargitay(Liv)8_8.png,0,11,11,11,,,2.nein,20.828,None,act,2.019,None,None,None,None,None,,['return'],[0.6162663543600502],2016_Nov_30_1302,60.0406184635,famFaceFilter,1,jb
13,./img/smoo15_GeorgeClooney3_1.png,0,12,12,12,,,2.nein,11.607,None,dummy,1.671,None,None,None,None,None,,['return'],[0.6672097402952204],2016_Nov_30_1302,60.0406184635,famFaceFilter,1,jb
14,./img/smoo15_BritneySpears7_1.png,0,13,13,13,,,1.ja,8.169,None,None,None,music,3.569,None,None,None,Britney Spears,"['lshift', 'b', 'r', 'i', 't', 'n', 'e', 'y', 'space', 'lshift', 's', 'p', 'e', 'a', 'r', 's', 'return']","[1.3680631004717725, 1.4830773060330102, 1.7496315086627874, 1.8995945713159017, 2.0827524883388833, 2.565787772728072, 2.7322772106999764, 3.581959369879769, 3.9648086363140465, 4.3479308830537775, 4.481389703927562, 4.731401813218326, 4.947943842400491, 5.2313743868762685, 5.797784144109755, 6.264218312391677, 7.746747733155644]",2016_Nov_30_1302,60.0406184635,famFaceFilter,1,jb
15,./img/smoo15_LisaEdelstein(DrLisaCuddy)1_1.png,0,14,14,14,,,2.nein,10.356,None,dummy,1.254,None,None,None,None,None,,['return'],[0.600230766194727],2016_Nov_30_1302,60.0406184635,famFaceFilter,1,jb
16,./img/smoo15_WillSmith4_1.png,0,15,15,15,,,1.ja,2.488,None,act,2.293,None,None,None,None,None,Will Smith,"['lshift', 'w', 'i', 'l', 'l', 'space', 'lshift', 's', 'm', 'i', 't', 'z', 'backspace', 'h', 'return']","[2.666256715043346, 2.749604884262226, 2.9991512269207306, 3.216116359539228, 3.3824957713713957, 3.6826326464561134, 4.0820724433924624, 4.198497742219843, 4.515423708098751, 4.782124184548593, 5.181481862848159, 5.415286127308718, 6.281325933674452, 6.681371997095994, 7.8642287055317865]",2016_Nov_30_1302,60.0406184635,famFaceFilter,1,jb
17,./img/smoo15_GeorgeClooney11_1.png,0,16,16,16,,,2.nein,20.296,None,dummy,1.385,None,None,None,None,None,,['return'],[0.6168735831724916],2016_Nov_30_1302,60.0406184635,famFaceFilter,1,jb
18,./img/smoo15_HughLaurie(DrHouse)4_1.png,0,17,17,17,,,1.ja,2.14,None,act,1.139,None,None,None,None,None,House,"['lshift', 'h', 'o', 'u', 's', 'e', 'return']","[1.2498420980537048, 1.3665993999566126, 1.599817286036341, 1.7996914777213533, 1.9830296708096284, 2.2160801118607196, 2.4997284631845105]",2016_Nov_30_1302,60.0406184635,famFaceFilter,1,jb
19,./img/smoo15_NicoleKidman7_1.png,0,18,18,18,,,1.ja,3.859,None,act,0.726,None,None,None,None,None,Kidman,"['lshift', 'k', 'i', 'd', 'm', 'a', 'n', 'return']","[1.7998040700676938, 1.8664308322113357, 2.2165401045276667, 2.3163238694814936, 2.566455628189942, 2.6831022623991885, 2.81635771134097, 3.5160752039882937]",2016_Nov_30_1302,60.0406184635,famFaceFilter,1,jb
20,./img/smoo15_NicoleKidman5_1.png,0,19,19,19,,,1.ja,2.855,None,act,1.523,None,None,None,None,None,Kidman,"['lshift', 'k', 'i', 'd', 'm', 'a', 'n', 'n', 'backspace', 'return']","[1.2329436226700636, 1.3499687724652176, 1.6000328474547132, 1.749551956236246, 2.182605540891018, 2.299288743557554, 2.6322422782031936, 2.7826804099913716, 3.8489026737006498, 6.0648012263918645]",2016_Nov_30_1302,60.0406184635,famFaceFilter,1,jb
21,./img/smoo15_NeilPatrickHarris(Barney)3_7.png,0,20,20,20,,,1.ja,3.3,None,act,1.29,None,None,None,None,None,Barney,"['lshift', 'b', 'a', 'r', 'n', 'e', 'y', 'return']","[2.432664162690344, 2.7497668761006935, 3.1824749850911758, 3.3654166991454986, 3.7154377580845903, 3.849669969695242, 4.8487381156537595, 6.597946841655357]",2016_Nov_30_1302,60.0406184635,famFaceFilter,1,jb
22,./img/smoo15_WillSmith1_1.png,0,21,21,21,,,1.ja,3.367,None,act,1.173,None,None,None,None,None,Smith,"['lshift', 's', 'm', 'i', 't', 'h', 'return']","[1.1666405234300328, 1.2333195720475487, 1.5165733689918852, 1.6832084392299294, 1.8665658788740984, 2.016414103747593, 2.583015684980637]",2016_Nov_30_1302,60.0406184635,famFaceFilter,1,jb
23,./img/smoo15_JoachimLoew4_1.png,0,22,22,22,,,1.ja,2.323,None,None,None,None,None,sport,2.278,None,Löw,"['lshift', 'l', u'\xf6', 'w', 'return']","[1.799135573053718, 1.932612678154328, 2.649242439551017, 2.971979581971027, 3.4488829139027075]",2016_Nov_30_1302,60.0406184635,famFaceFilter,1,jb
24,./img/smoo15_BastianSchweinsteiger1_1.png,0,23,23,23,,,2.nein,13.617,None,dummy,1.204,None,None,None,None,None,,['return'],[0.6833826205529476],2016_Nov_30_1302,60.0406184635,famFaceFilter,1,jb
25,./img/smoo15_JasonSegel(Marshall)6_1.png,0,24,24,24,,,2.nein,12.536,None,dummy,1.402,None,None,None,None,None,,['return'],[1.715593013628677],2016_Nov_30_1302,60.0406184635,famFaceFilter,1,jb
26,./img/smoo15_TomCruise4_1.png,0,25,25,25,,,2.nein,21.57,None,dummy,1.36,None,None,None,None,None,,['return'],[0.6997091524754069],2016_Nov_30_1302,60.0406184635,famFaceFilter,1,jb
27,./img/smoo15_JasonSegel(Marshall)9_1.png,0,26,26,26,,,2.nein,7.608,None,dummy,1.006,None,None,None,None,None,,['return'],[0.7163984819599136],2016_Nov_30_1302,60.0406184635,famFaceFilter,1,jb
28,./img/smoo15_HughLaurie(DrHouse)5_3.png,0,27,27,27,,,1.ja,1.523,None,act,1.056,None,None,None,None,None,House,"['lshift', 'h', 'o', 'u', 'u', 'backspace', 's', 'e', 'return']","[1.1999274404879543, 1.3002526751915866, 1.500009142113413, 1.833193956195828, 1.9330130065009143, 2.4163899172435777, 2.5997566593887314, 2.8497662024710735, 3.149422555230558]",2016_Nov_30_1302,60.0406184635,famFaceFilter,1,jb
29,./img/smoo15_GuentherJauch3_1.png,0,28,28,28,,,1.ja,3.405,None,None,None,host,1.389,None,None,None,Jauch,"['lshift', 'j', 'a', 'u', 'c', 'h', 'return']","[1.1000028549042327, 1.2332650401403953, 1.5162423282417876, 1.5999093487243954, 1.8997472606533847, 1.9832077014434617, 2.7159054493731674]",2016_Nov_30_1302,60.0406184635,famFaceFilter,1,jb
30,./img/smoo15_KatjaBurkard4_1.png,0,29,29,29,,,1.ja,2.373,None,None,None,host,1.192,None,None,None,Burkhard,"['lshift', 'b', 'u', 'r', 'k', 'h', 'a', 'r', 'd', 'return']","[1.4170022784710454, 1.683356958479635, 2.233549889155256, 2.3834648354204546, 2.666712858399478, 3.033280501538684, 3.1831383496901253, 3.4993422489787918, 3.916263371142122, 4.432370973499928]",2016_Nov_30_1302,60.0406184635,famFaceFilter,1,jb
31,./img/smoo15_BritneySpears1_1.png,0,30,30,30,,,1.ja,2.949,None,None,None,music,1.738,None,None,None,Spears,"['lshift', 's', 'p', 'a', 'e', 'backspace', 'backspace', 'e', 'a', 'r', 'd', 's', 'backspace', 'backspace', 's', 'return']","[2.132893292928202, 2.266363661734431, 2.699478514588918, 3.0324984498511185, 3.249237435447867, 4.115339793119347, 4.348423274090237, 5.415019241743721, 5.697993001311261, 5.9479432008502044, 6.397336469239235, 7.264020393649844, 7.76379921865373, 8.046955499719843, 8.230597788378873, 10.529159012152377]",2016_Nov_30_1302,60.0406184635,famFaceFilter,1,jb
32,./img/smoo15_TomCruise1_1.png,0,31,31,31,,,1.ja,17.835,None,act,1.919,None,None,None,None,None,der Scientologie Typ,"['d', 'e', 'r', 'backspace', 'backspace', 'backspace', 'd', 'e', 'r', 'space', 'lshift', 's', 'c', 'i', 'e', 'n', 't', 'o', 'l', 'o', 'g', 'i', 'e', 'space', 'lshift', 't', 'y', 'p', 'return']","[17.01025199835385, 17.309927276892267, 17.426703183797144, 18.343288613963523, 18.59272043961755, 18.809376344252087, 20.358598927774437, 20.591772867554027, 20.741673699680177, 20.99195493996558, 21.292092456602404, 21.392023136926582, 21.69139720687599, 22.091850976490605, 22.558140154056673, 22.808191398009512, 23.27463839732809, 23.574557144787832, 23.991002877039136, 24.207515715614136, 24.440605612104264, 24.60743090246251, 24.790570535256848, 26.223352422708558, 27.339404338366876, 27.472918974248387, 28.55587130598542, 29.1221014287039, 51.495847716123535]",2016_Nov_30_1302,60.0406184635,famFaceFilter,1,jb
33,./img/smoo15_Ice-T(OdafinFinTutuola)7_1.png,0,32,32,32,,,1.ja,3.407,None,act,1.524,None,None,None,None,None,Ice T,"['lshift', 'i', 'c', 'e', 'space', 'lshift', 't', 'return']","[1.1497875982258847, 1.2331482777062774, 1.6827038587089191, 1.8492051653902308, 2.2989772701384936, 2.615390956876581, 2.6488709810382716, 3.448329575443495]",2016_Nov_30_1302,60.0406184635,famFaceFilter,1,jb
34,./img/smoo15_EmilyDeschanel5_1.png,0,33,33,33,,,2.nein,18.372,None,dummy,1.174,None,None,None,None,None,,['return'],[0.7499760219998279],2016_Nov_30_1302,60.0406184635,famFaceFilter,1,jb
35,./img/smoo15_KatjaBurkard1_1.png,0,34,34,34,,,2.nein,3.872,None,dummy,1.242,None,None,None,None,None,,['return'],[0.8336026247179689],2016_Nov_30_1302,60.0406184635,famFaceFilter,1,jb
36,./img/smoo15_BastianSchweinsteiger6_2.png,0,35,35,35,,,2.nein,3.042,None,dummy,1.207,None,None,None,None,None,,['return'],[0.8836292330797733],2016_Nov_30_1302,60.0406184635,famFaceFilter,1,jb
37,./img/smoo15_Ice-T(OdafinFinTutuola)5_1.png,0,36,36,36,,,1.ja,1.745,None,act,0.989,None,None,None,None,None,IceT,"['lshift', 'i', 'c', 'e', 'minus', 'lshift', 't', 'return']","[1.2829285301631899, 1.3665378109799349, 1.6662592812499497, 1.7833713613181317, 3.132625765811099, 3.8819528581279883, 3.9652278904395644, 5.298503163330679]",2016_Nov_30_1302,60.0406184635,famFaceFilter,1,jb
38,./img/smoo15_AlysonHannigan(Lily)5_4.png,0,37,37,37,,,1.ja,3.084,None,act,1.306,None,None,None,None,None,Lily,"['lshift', 'l', 'i', 'l', 'y', 'return']","[1.1330767767522048, 1.3162115979084774, 1.7499182823339652, 2.149575244566222, 3.0659569820236356, 3.615612933812372]",2016_Nov_30_1302,60.0406184635,famFaceFilter,1,jb
39,./img/smoo15_BarackObama2_1.png,0,38,38,38,,,1.ja,2.505,None,None,None,None,None,polit,1.709,None,Obama,"['lshift', 'o', 'b', 'a', 'n', 'a', 'backspace', 'backspace', 'm', 'a', 'return']","[1.016807375024655, 1.1999553479927272, 1.549624836525254, 1.7330615078208211, 1.9666341720676428, 2.0664381459027936, 2.466629841592294, 2.6661264800204663, 3.3659546403614513, 3.4494609521079838, 3.699253009119275]",2016_Nov_30_1302,60.0406184635,famFaceFilter,1,jb
40,./img/smoo15_NeilPatrickHarris(Barney)2_2.png,0,39,39,39,,,1.ja,2.539,None,act,0.99,None,None,None,None,None,Barney,"['lshift', 'b', 'a', 'r', 'n', 'e', 'y', 'return']","[1.333000367931163, 1.5499193088180618, 1.9660413781693933, 2.149452708166791, 2.532663809837686, 2.6994855716602615, 3.4319892501589493, 4.464793078683215]",2016_Nov_30_1302,60.0406184635,famFaceFilter,1,jb
41,./img/smoo15_AngelaMerkel3_1.png,0,40,40,40,,,1.ja,2.156,None,None,None,None,None,polit,2.705,None,Merkel,"['lshift', 'm', 'e', 'r', 'k', 'e', 'l', 'return']","[0.7332831639796495, 0.9500019406950742, 1.182719737118532, 1.2664521958886326, 1.5997431867999694, 1.7330457898005989, 1.9663422659814387, 2.6326499843944475]",2016_Nov_30_1302,60.0406184635,famFaceFilter,1,jb
42,./img/smoo15_OmarEpps(DrEricForeman)1_5.png,0,41,41,41,,,1.ja,2.389,None,act,2.045,None,None,None,None,None,aus Dr House,"['a', 'u', 's', 'space', 'lshift', 'd', 'r', 'period', 'space', 'lshift', 'h', 'o', 'u', 's', 'e', 'return']","[2.565990503107969, 2.7822601935367857, 2.9657334332860046, 3.2489994197148917, 4.714784658313874, 4.814574518009977, 5.048584079057036, 5.931177205919084, 6.147802636842243, 6.380912742213695, 6.514568198723282, 6.981094108918114, 7.1808813703282794, 7.363932148193271, 7.61375820745161, 7.83027104602661]",2016_Nov_30_1302,60.0406184635,famFaceFilter,1,jb
43,./img/smoo15_JoachimLoew1_1.png,0,42,42,42,,,1.ja,2.035,None,None,None,None,None,sport,1.787,None,Löw,"['lshift', 'l', u'\xf6', 'w', 'return']","[1.0499752842151793, 1.1833686667996517, 1.5829868151467963, 1.9661148358536593, 2.5159119290456147]",2016_Nov_30_1302,60.0406184635,famFaceFilter,1,jb
44,./img/smoo15_GuentherJauch2_1.png,0,43,43,43,,,1.ja,3.009,None,None,None,host,2.56,None,None,None,Jauch,"['lshift', 'j', 'a', 'u', 'c', 'h', 'return']","[1.500153170500198, 1.6333826365917048, 1.9333215929345897, 2.083229482128445, 2.5657662807407178, 2.682454295043499, 3.8319413262343005]",2016_Nov_30_1302,60.0406184635,famFaceFilter,1,jb
45,./img/smoo15_RobertSeanLeonard(Wilson)2_6.png,0,44,44,44,,,1.ja,2.776,None,act,8.074,None,None,None,None,None,Wilson,"['lshift', 'w', 'i', 'l', 's', 'o', 'n', 'return']","[1.7664517147240986, 1.9166017897368874, 2.06606347962952, 2.249982277131494, 2.3496207305925054, 2.799538467608727, 3.01617865422304, 3.3158398186205886]",2016_Nov_30_1302,60.0406184635,famFaceFilter,1,jb
46,./img/smoo15_NeilPatrickHarris(Barney)1_1.png,0,45,45,45,,,2.nein,25.464,None,dummy,1.151,None,None,None,None,None,,['return'],[0.7835128234983131],2016_Nov_30_1302,60.0406184635,famFaceFilter,1,jb
47,./img/smoo15_BarackObama4_1.png,0,46,46,46,,,1.ja,1.828,None,None,None,None,None,polit,3.109,None,Obama,"['lshift', 'o', 'b', 'a', 'm', 'a', 'return']","[1.3497573811346228, 1.5329223552271287, 1.8994928853517195, 2.0823874453435565, 2.282642718819261, 2.4325634390515916, 2.7987493588498182]",2016_Nov_30_1302,60.0406184635,famFaceFilter,1,jb
48,./img/smoo15_JoshRadnor(Ted)6_2.png,0,47,47,47,,,2.nein,9.119,None,dummy,1.308,None,None,None,None,None,,['return'],[0.5504508345147769],2016_Nov_30_1302,60.0406184635,famFaceFilter,1,jb
49,./img/smoo15_TomCruise5_1.png,0,48,48,48,,,1.ja,3.074,None,act,1.373,None,None,None,None,None,Tom Cruise,"['lshift', 't', 'o', 'm', 'space', 'lshift', 'c', 'r', 'u', 'i', 's', 'e', 'return']","[8.946683513819153, 9.096798303480682, 9.36327872764923, 10.746356386536718, 10.913048554888519, 11.346198372319122, 11.479571866797414, 11.762807700290068, 12.545530131925261, 12.8788522381019, 13.112200359204508, 14.411178270896926, 16.161022133217557]",2016_Nov_30_1302,60.0406184635,famFaceFilter,1,jb
50,./img/smoo15_OmarEpps(DrEricForeman)2_2.png,0,49,49,49,,,1.ja,2.385,None,act,0.857,None,None,None,None,None,aus Dr House,"['a', 'u', 'c', 'backspace', 's', 'space', 'd', 'o', 'backspace', 'backspace', 'lshift', 'd', 'r', 'period', 'space', 'lshift', 'h', 'o', 'u', 's', 'e', 'return']","[1.149875811603124, 1.3331187342428166, 1.4497711424210138, 1.982508409941147, 2.2658151349132822, 2.515556509328235, 2.8487506259134534, 4.264799558355662, 4.764764112616831, 5.031658337718909, 5.864005766266928, 5.997932599204432, 6.230689851066927, 6.813769370453883, 6.963687203702648, 7.230612223294884, 7.397300221558908, 7.813838658052191, 8.06374298663468, 8.213591211508174, 8.463244051770744, 8.796673617880515]",2016_Nov_30_1302,60.0406184635,famFaceFilter,1,jb
51,./img/smoo15_LeonardoDiCaprio1_1.png,0,50,50,50,,,1.ja,3.452,None,act,1.208,None,None,None,None,None,DiCaprio,"['lshift', 'd', 'i', 'lshift', 'c', 'a', 'p', 'r', 'o', 'backspace', 'i', 'o', 'return']","[1.5164197173271532, 1.6327561612233694, 1.8163076702985563, 2.4157926324842265, 2.5994246563132037, 2.798690336081563, 3.3151989083362423, 3.498529723578031, 3.7318156141536747, 4.364817810506793, 5.197823471238735, 5.447880489158706, 6.164385789499647]",2016_Nov_30_1302,60.0406184635,famFaceFilter,1,jb
52,./img/smoo15_BastianSchweinsteiger3_1.png,0,51,51,51,,,2.nein,10.88,None,dummy,2.11,None,None,None,None,None,,['return'],[0.7173357891933847],2016_Nov_30_1302,60.0406184635,famFaceFilter,1,jb
53,./img/smoo15_GuentherJauch4_1.png,0,52,52,52,,,1.ja,1.458,None,None,None,host,1.361,None,None,None,Jauch,"['lshift', 'j', 'a', 'u', 'c', 'h', 'return']","[1.0667069561222888, 1.1832272046194703, 1.48327714943116, 1.59992538752158, 1.9331486947139638, 2.066148806023193, 2.899306835317475]",2016_Nov_30_1302,60.0406184635,famFaceFilter,1,jb
54,./img/smoo15_LisaEdelstein(DrLisaCuddy)6_3.png,0,53,53,53,,,1.ja,2.211,None,act,1.444,None,None,None,None,None,Cuddy,"['lshift', 'c', 'u', 'd', 'd', 'y', 'return']","[1.1663842234702315, 1.3003315860660223, 1.5499869925370149, 1.700056232019051, 1.8499208164648735, 2.9161709876789246, 3.382684387610425]",2016_Nov_30_1302,60.0406184635,famFaceFilter,1,jb
55,./img/smoo15_MariskaHargitay(Liv)4_4.png,0,54,54,54,,,1.ja,3.337,None,act,0.796,None,None,None,None,None,Mariska,"['lshift', 'm', 'a', 'r', 'i', 's', 'k', 'a', 'return']","[1.0001959940855158, 1.099937416618559, 1.4161461275452893, 1.6661983338253776, 1.8326855263658217, 2.099207009850943, 2.5991353164336033, 2.765837428840314, 5.36480754567674]",2016_Nov_30_1302,60.0406184635,famFaceFilter,1,jb
56,./img/smoo15_MariskaHargitay(Liv)6_5.png,0,55,55,55,,,2.nein,12.166,None,dummy,1.454,None,None,None,None,None,,['return'],[0.6831827771566168],2016_Nov_30_1302,60.0406184635,famFaceFilter,1,jb
57,./img/smoo15_UrsulavonderLeyen5_1.png,0,56,56,56,,,2.nein,7.139,None,dummy,1.568,None,None,None,None,None,,['return'],[0.7834775381470536],2016_Nov_30_1302,60.0406184635,famFaceFilter,1,jb
58,./img/smoo15_EmilyDeschanel3_1.png,0,57,57,57,,,1.ja,2.207,None,act,2.343,None,None,None,None,None,Bones,"['lshift', 'b', 'o', 'n', 'e', 's', 'return']","[1.1004759993847983, 1.2337025784927391, 1.4504191097748844, 1.6668687554938515, 1.833571830227811, 2.3994564772838203, 2.8830335521979578]",2016_Nov_30_1302,60.0406184635,famFaceFilter,1,jb
59,./img/smoo15_JoshRadnor(Ted)1_2.png,0,58,58,58,,,2.nein,2.639,None,dummy,0.893,None,None,None,None,None,,['return'],[0.4838009765062452],2016_Nov_30_1302,60.0406184635,famFaceFilter,1,jb
60,./img/smoo15_LeonardoDiCaprio2_1.png,0,59,59,59,,,1.ja,1.377,None,act,0.827,None,None,None,None,None,DiCaprio,"['lshift', 'd', 'i', 'lshift', 'c', 'a', 'p', 'r', 'o', 'backspace', 'i', 'o', 'return']","[1.5336081741388625, 1.6668042795354268, 1.9501376289081236, 2.3500245874729444, 2.4831536507026613, 2.6998807675900025, 3.3160252271009085, 3.599173809543572, 3.81588296298105, 4.415591826757009, 5.165344909493797, 5.415356698009418, 6.081077396493129]",2016_Nov_30_1302,60.0406184635,famFaceFilter,1,jb
61,./img/smoo15_OmarEpps(DrEricForeman)3_1.png,0,60,60,60,,,1.ja,1.956,None,act,2.521,None,None,None,None,None,aus Dr House,"['a', 'u', 's', 'space', 'lshift', 'd', 'r', 'period', 'space', 'lshift', 'h', 'o', 'u', 's', 'e', 'return']","[1.483373702983954, 1.7334653647012601, 1.8994925645747571, 2.166106431524895, 2.516165342023669, 4.032366290171922, 4.432275061501059, 4.898791348417944, 5.13164130451878, 5.364931685957345, 6.331564895695919, 6.697961244495673, 6.897753317545721, 7.047910770404997, 7.214405661567071, 7.397713060167007]",2016_Nov_30_1302,60.0406184635,famFaceFilter,1,jb
62,./img/smoo15_RobertSeanLeonard(Wilson)1_1.png,0,61,61,61,,,1.ja,5.164,None,act,1.136,None,None,None,None,None,Wilson,"['lshift', 'w', 'i', 'l', 's', 'o', 'n', 'return']","[1.3168454511251184, 1.4504463757293706, 1.800093089172151, 2.166534667376254, 2.5828158415843063, 2.849538772346932, 3.1996695366487984, 3.998947854988728]",2016_Nov_30_1302,60.0406184635,famFaceFilter,1,jb
63,./img/smoo15_RobertSeanLeonard(Wilson)8_1.png,0,62,62,62,,,2.nein,3.82,None,dummy,3.771,None,None,None,None,None,,['return'],[0.5670384780351014],2016_Nov_30_1302,60.0406184635,famFaceFilter,1,jb
64,./img/smoo15_JoachimLoew8_1.png,0,63,63,63,,,1.ja,1.159,None,None,None,None,None,sport,2.839,None,Löw,"['lshift', 'l', u'\xf6', 'w', 'return']","[1.2833699178281677, 1.449985741510318, 1.8160173680917069, 2.366236602392746, 2.8325289877175237]",2016_Nov_30_1302,60.0406184635,famFaceFilter,1,jb
65,./img/smoo15_UrsulavonderLeyen4_1.png,0,64,64,64,,,2.nein,5.655,None,dummy,1.875,None,None,None,None,None,,['return'],[0.5501999877451453],2016_Nov_30_1302,60.0406184635,famFaceFilter,1,jb
66,./img/smoo15_NicoleKidman3_1.png,0,65,65,65,,,1.ja,3.823,None,act,0.974,None,None,None,None,None,Kidman,"['lshift', 'k', 'i', 'd', 'm', 'a', 'n', 'return']","[1.316862452247733, 1.4501929627531354, 1.766762225812272, 1.949741791424458, 2.4997255762009445, 2.7663561235003726, 2.849629551930775, 3.249155316812903]",2016_Nov_30_1302,60.0406184635,famFaceFilter,1,jb
67,./img/smoo15_GeorgeClooney4_2.png,0,66,66,66,,,1.ja,12.518,None,act,1.282,None,None,None,None,None,Cloney,"['lshift', 'c', 'l', 'o', 'o', 'n', 'backspace', 'n', 'e', 'y', 'left', 'left', 'backspace', 'backspace', 'backspace', 'backspace', 'n', 'e', 'backspace', 'y', 'backspace', 'e', 'y', 'return']","[1.266503840810401, 1.349477343756007, 1.71621916822005, 2.099478707054004, 2.3158484795694676, 2.6325941693830828, 4.231722107972018, 5.5315510381751665, 6.214748891798081, 6.63181789166083, 8.346515619701677, 8.546685566783708, 9.763258390454212, 9.979727282729073, 10.146246232085105, 10.329772720637266, 11.51212613165626, 11.695307786096237, 13.044980803164435, 13.311788418770448, 14.061087603582564, 14.844051579484585, 15.344352948459345, 17.610043943092023]",2016_Nov_30_1302,60.0406184635,famFaceFilter,1,jb
68,./img/smoo15_AlysonHannigan(Lily)8_3.png,0,67,67,67,,,2.nein,7.349,None,dummy,1.339,None,None,None,None,None,,['return'],[0.6337095072522061],2016_Nov_30_1302,60.0406184635,famFaceFilter,1,jb
69,./img/smoo15_BritneySpears5_1.png,0,68,68,68,,,1.ja,1.457,None,None,None,music,2.621,None,None,None,Spears,"['lshift', 's', 'p', 'a', 'e', 'r', 's', 'backspace', 'backspace', 'backspace', 'backspace', 'e', 'a', 'r', 'd', 'backspace', 's', 'return']","[1.3835694083700218, 1.5000104252158053, 1.866724021399932, 2.0827207315214764, 2.5663651693794236, 2.7995894709783897, 3.1826658467616653, 4.39875878966086, 4.648697762042502, 4.865432898328436, 5.064891685198745, 5.265247040761096, 5.931689485059906, 6.314855678101594, 6.881310023187325, 7.464016480182181, 7.7474556856086565, 8.047216290540746]",2016_Nov_30_1302,60.0406184635,famFaceFilter,1,jb
70,./img/smoo15_JasonSegel(Marshall)7_1.png,0,69,69,69,,,1.ja,6.255,None,act,1.968,None,None,None,None,None,Marshall,"['lshift', 'm', 'a', 'r', 's', 'h', 'a', 'l', 'l', 'return']","[1.4492357674134837, 1.7990111119997891, 2.182917655860365, 2.39931629820785, 2.865995218515309, 3.1820419376017526, 3.465336152312375, 3.9149873245405615, 4.181662780467377, 4.548300994309102]",2016_Nov_30_1302,60.0406184635,famFaceFilter,1,jb
71,./img/smoo15_AngelaMerkel1_1.png,0,70,70,70,,,1.ja,2.102,None,None,None,None,None,polit,1.356,None,Merkel,"['lshift', 'm', 'e', 'r', 'k', 'e', 'l', 'return']","[0.916311487530038, 1.1003399903947866, 1.3494988357433613, 1.4332107648533565, 1.6831022623991885, 1.7997411979886238, 2.066273267078941, 2.4494991244409903]",2016_Nov_30_1302,60.0406184635,famFaceFilter,1,jb
72,./img/smoo15_HughLaurie(DrHouse)2_1.png,0,71,71,71,,,1.ja,2.504,None,act,1.022,None,None,None,None,None,House,"['lshift', 'h', 'o', 'u', 's', 'e', 'return']","[1.4165737218445429, 1.5993608219050657, 1.782558194365265, 1.9658117026119726, 2.082516397262225, 2.3156890539394226, 2.5323395053819695]",2016_Nov_30_1302,60.0406184635,famFaceFilter,1,jb
73,./img/edges5_BastianSchweinsteiger6_2.png,0,72,72,72,,,2.nein,5.493,None,dummy,1.534,None,None,None,None,None,,['return'],[0.5834958865307271],2016_Nov_30_1302,60.0406184635,famFaceFilter,1,jb
74,./img/edges5_OmarEpps(DrEricForeman)1_5.png,0,73,73,73,,,1.ja,2.624,None,act,0.944,None,None,None,None,None,aus Dr House,"['a', 'u', 's', 'space', 'lshift', 'd', 'r', 'space', 'lshift', 'h', 'o', 'u', 's', 'e', 'return']","[0.9502980168672366, 1.133738858250581, 1.23325894539812, 1.4502420414701191, 1.8332792825913202, 1.9999201267964963, 2.2332005641819705, 2.46613039348631, 2.7164077844627172, 2.866272689683683, 3.082466997771917, 3.3156114261673792, 3.499418914425405, 3.715224762874641, 4.19878996908119]",2016_Nov_30_1302,60.0406184635,famFaceFilter,1,jb
75,./img/edges5_NicoleKidman5_1.png,0,74,74,74,,,2.nein,3.703,None,dummy,3.976,None,None,None,None,None,,['return'],[0.6168562612729147],2016_Nov_30_1302,60.0406184635,famFaceFilter,1,jb
76,./img/edges5_LeonardoDiCaprio1_1.png,0,75,75,75,,,1.ja,4.681,None,act,2.089,None,None,None,None,None,DiCaprio,"['lshift', 'd', 'i', 'lshift', 'c', 'a', 'p', 'r', 'o', 'backspace', 'i', 'o', 'return']","[1.3998115762260568, 1.5000530884153704, 1.7332754653580196, 2.099840863067584, 2.2329301500813017, 2.44989111261566, 2.999168228043345, 3.249428617895319, 3.4493778711457708, 4.049619222945694, 4.798823778863152, 4.9988573961782095, 5.898302806694119]",2016_Nov_30_1302,60.0406184635,famFaceFilter,1,jb
77,./img/edges5_AlysonHannigan(Lily)1_1.png,0,76,76,76,,,1.ja,2.1,None,act,1.308,None,None,None,None,None,Lily,"['lshift', 'l', 'i', 'l', 'y', 'return']","[0.7508305690462294, 0.9328539016460127, 1.249268229936206, 1.5500809798795672, 2.5156691016763943, 2.965914350905223]",2016_Nov_30_1302,60.0406184635,famFaceFilter,1,jb
78,./img/edges5_GuentherJauch3_1.png,0,77,77,77,,,1.ja,1.903,None,None,None,host,3.736,None,None,None,Jauch,"['lshift', 'j', 'a', 'u', 's', 'backspace', 'c', 'h', 'return']","[0.7997553121294914, 0.9166823044924968, 1.2166680941190862, 1.3331110356211866, 1.466334406970418, 2.349228100867549, 2.5658846470541903, 3.1660432386688626, 3.948989251119201]",2016_Nov_30_1302,60.0406184635,famFaceFilter,1,jb
79,./img/edges5_AngelaMerkel3_1.png,0,78,78,78,,,1.ja,1.92,None,None,None,None,None,polit,1.672,None,Merkel,"['lshift', 'm', 'e', 'r', 'k', 'e', 'l', 'return']","[0.9995810666514444, 1.1663784495049185, 1.4496338503286097, 1.5662888247134106, 1.7496424150449457, 1.8660064456726104, 2.0664339758168353, 2.7322290943120606]",2016_Nov_30_1302,60.0406184635,famFaceFilter,1,jb
80,./img/edges5_LeonardoDiCaprio3_1.png,0,79,79,79,,,1.ja,6.374,None,dummy,1.004,None,None,None,None,None,DiCaprio,"['lshift', 'd', 'i', 'lshift', 'c', 'a', 'p', 'r', 'o', 'backspace', 'i', 'o', 'return']","[1.066567097821462, 1.1509148048025963, 1.416699466004502, 1.74998179596696, 1.8829889643457136, 2.116476302198862, 2.532462683335325, 2.799001488721842, 3.0157391912143794, 3.6653915823917487, 4.398629196190086, 4.698223959972893, 5.431705042694375]",2016_Nov_30_1302,60.0406184635,famFaceFilter,1,jb
81,./img/edges5_RobertSeanLeonard(Wilson)8_1.png,0,80,80,80,,,1.ja,3.451,None,act,1.539,None,None,None,None,None,Wilson,"['lshift', 'w', 'i', 'l', 's', 'o', 'n', 'return']","[1.033256443344726, 1.1670142273742385, 1.3660912909017497, 1.5328902776345785, 1.6828610389093228, 2.016220034316575, 2.2494687148846424, 3.0319428659586265]",2016_Nov_30_1302,60.0406184635,famFaceFilter,1,jb
82,./img/edges5_GuentherJauch4_1.png,0,81,81,81,,,1.ja,2.194,None,None,None,host,2.487,None,None,None,Jauch,"['lshift', 'j', 'a', 'u', 'c', 'h', 'return']","[0.7835782617858058, 0.8999685960370698, 1.2830671053598053, 1.416613498056904, 1.6165062947457045, 1.6998031398179592, 2.449299922596765]",2016_Nov_30_1302,60.0406184635,famFaceFilter,1,jb
83,./img/edges5_RobertSeanLeonard(Wilson)1_1.png,0,82,82,82,,,1.ja,2.291,None,act,2.71,None,None,None,None,None,Wilson,"['lshift', 'w', 'i', 'l', 's', 'o', 'n', 'return']","[1.1000516128460731, 1.233702578494558, 1.4169204806130438, 1.583149769314332, 1.8500568254548853, 2.0665010179836827, 2.366527225374739, 3.0496429603645083]",2016_Nov_30_1302,60.0406184635,famFaceFilter,1,jb
84,./img/edges5_UrsulavonderLeyen4_1.png,0,83,83,83,,,1.ja,20.463,None,None,None,None,None,polit,4.79,None,vllt Von der Layen,"['v', 'l', 'l', 't', 'space', 'lshift', 'f', 'r', 'a', 'u', 'backspace', 'backspace', 'backspace', 'backspace', 'lshift', 'v', 'o', 'n', 'space', 'd', 'e', 'r', 'space', 'lshift', 'l', 'a', 'y', 'e', 'n', 'lshift', u'?', 'return']","[1.3665705301227717, 1.5663847367104609, 1.716489582320719, 1.8665033275683527, 2.366072365120999, 2.8328244223375805, 2.949363275840369, 3.2159765012384014, 3.365446210529626, 3.532448248417495, 4.216327430092861, 4.415466403372193, 4.582077736193241, 4.781997798834709, 5.548067148663904, 5.664895021267512, 5.831417178384072, 6.031483835618928, 7.747576297353589, 7.897205432274859, 8.113483142102268, 8.230272200820764, 8.446735960680599, 8.763738271229158, 8.879683689281592, 9.379641828023523, 10.412963068105455, 10.779191009547503, 11.162213815754512, 11.979015480965245, 12.962347643466273, 14.394581004098654]",2016_Nov_30_1302,60.0406184635,famFaceFilter,1,jb
85,./img/edges5_MariskaHargitay(Liv)6_5.png,0,84,84,84,,,1.ja,2.764,None,act,1.621,None,None,None,None,None,Mariska,"['lshift', 'm', 'a', 'r', 'i', 's', 'k', 'a', 'return']","[0.5837454501961474, 0.883602929454355, 1.3332210617627425, 1.5499128933006432, 1.6831353023208067, 1.8164138471274782, 2.1832156566888443, 2.3333631654950295, 3.3496489588742406]",2016_Nov_30_1302,60.0406184635,famFaceFilter,1,jb
86,./img/edges5_AngelaMerkel4_1.png,0,85,85,85,,,1.ja,2.02,None,None,None,None,None,polit,2.022,None,Merkel,"['lshift', 'm', 'e', 'r', 'k', 'e', 'l', 'return']","[0.7167587133171764, 1.0332240449788515, 1.3164970884790819, 1.399585749979451, 1.616143497183657, 1.7337781212227128, 1.9159961648038006, 2.965603198264944]",2016_Nov_30_1302,60.0406184635,famFaceFilter,1,jb
87,./img/edges5_LisaEdelstein(DrLisaCuddy)6_3.png,0,86,86,86,,,1.ja,2.459,None,act,10.367,None,None,None,None,None,Cuddy,"['lshift', 'c', 'u', 'd', 'd', 'y', 'return']","[1.449864167438136, 1.516886125511519, 1.766262777708107, 1.9162848631294764, 2.0826713320311683, 3.1821452274489275, 3.7154630993827595]",2016_Nov_30_1302,60.0406184635,famFaceFilter,1,jb
88,./img/edges5_BritneySpears7_1.png,0,87,87,87,,,1.ja,8.735,None,None,None,music,4.332,None,None,None,Spears,"['lshift', 's', 'p', 'a', 'backspace', 'e', 'a', 'r', 's', 'return']","[1.3156354843613371, 1.4489566923639359, 1.7820507268625079, 1.9649808929825667, 2.6327738038999087, 2.7818290707036795, 3.048611665786666, 3.6310868433447467, 4.147564300335944, 4.864379149437809]",2016_Nov_30_1302,60.0406184635,famFaceFilter,1,jb
89,./img/edges5_NeilPatrickHarris(Barney)3_7.png,0,88,88,88,,,1.ja,2.34,None,act,0.977,None,None,None,None,None,Barney,"['lshift', 'b', 'a', 'r', 'n', 'e', 'y', 'return']","[0.8334390289983276, 1.0001058560537786, 1.3166946864439524, 1.5329031086712348, 1.8664699668734102, 2.0329446491541603, 3.0161468974074523, 3.632518145492213]",2016_Nov_30_1302,60.0406184635,famFaceFilter,1,jb
90,./img/edges5_JoshRadnor(Ted)6_2.png,0,89,89,89,,,2.nein,9.585,None,dummy,4.948,None,None,None,None,None,,['return'],[0.8663968299642875],2016_Nov_30_1302,60.0406184635,famFaceFilter,1,jb
91,./img/edges5_HughLaurie(DrHouse)2_1.png,0,90,90,90,,,1.ja,1.776,None,act,2.673,None,None,None,None,None,House,"['lshift', 'h', 'o', 'u', 's', 'e', 'return']","[1.1997202192451368, 1.2998151368392428, 1.5165797845093039, 1.7164844499075116, 1.8495990782193985, 2.0330242015807016, 2.2493420083974343]",2016_Nov_30_1302,60.0406184635,famFaceFilter,1,jb
92,./img/edges5_JoshRadnor(Ted)1_2.png,0,91,91,91,,,1.ja,2.787,None,act,1.103,None,None,None,None,None,Ted,"['lshift', 't', 'e', 'd', 'return']","[1.1831402743464423, 1.3166241157414333, 1.6334705291938008, 2.1997452397645247, 2.8162826497755304]",2016_Nov_30_1302,60.0406184635,famFaceFilter,1,jb
93,./img/edges5_JoshRadnor(Ted)3_1.png,0,92,92,92,,,2.nein,19.213,None,dummy,1.356,None,None,None,None,None,,['return'],[0.6671157529526681],2016_Nov_30_1302,60.0406184635,famFaceFilter,1,jb
94,./img/edges5_JasonSegel(Marshall)6_1.png,0,93,93,93,,,2.nein,7.887,None,dummy,0.974,None,None,None,None,None,,['return'],[0.7670900588018412],2016_Nov_30_1302,60.0406184635,famFaceFilter,1,jb
95,./img/edges5_UrsulavonderLeyen1_1.png,0,94,94,94,,,1.ja,15.847,None,None,None,None,None,polit,1.917,None,von der layen,"['v', 'o', 'n', 'space', 'd', 'e', 'r', 'space', 'l', 'lshift', 'a', 'backspace', 'capslock', 'a', 'y', 'e', 'n', 'return']","[2.2331832422805746, 2.433116456733842, 2.649681261007572, 2.91635703771135, 2.999253233661875, 3.2828053522098344, 3.3661801458310947, 3.615923124125402, 4.032515771748876, 4.2320884340715565, 4.915322214597836, 5.581747657774031, 6.481070531886871, 6.981360673706149, 8.080684766768172, 8.4639391731871, 8.697085205461917, 10.046266473045762]",2016_Nov_30_1302,60.0406184635,famFaceFilter,1,jb
96,./img/edges5_JasonSegel(Marshall)7_1.png,0,95,95,95,,,1.ja,2.986,None,act,1.109,None,None,None,None,None,Marshall,"['lshift', 'm', 'a', 'r', 's', 'h', 'a', 'l', 'l', 'return']","[0.9499079533488839, 1.0834148906105838, 1.4497807656971418, 1.6330692385181464, 2.2162238194723614, 2.466171132027739, 2.7155362362900632, 2.949028706556419, 3.515482089314901, 4.481597566720666]",2016_Nov_30_1302,60.0406184635,famFaceFilter,1,jb
97,./img/edges5_JoachimLoew8_1.png,0,96,96,96,,,1.ja,2.473,None,None,None,None,None,sport,1.344,None,Löw,"['lshift', 'l', u'\xd6', 'w', 'backspace', 'backspace', 'w', 'backspace', u'\xd6', 'w', 'backspace', 'backspace', 'capslock', u'\xf6', 'w', 'return']","[0.700328570772399, 0.8503403913655347, 1.4501400347271556, 1.8666531299222697, 2.83294471330737, 3.1661029029892234, 3.4658843583565613, 4.049082244058809, 4.71543005946296, 5.1318542997287295, 5.964622586281621, 6.348176597408383, 7.413839748691316, 8.446940615716812, 8.84698411293175, 9.396375745362093]",2016_Nov_30_1302,60.0406184635,famFaceFilter,1,jb
98,./img/edges5_NicoleKidman7_1.png,0,97,97,97,,,1.ja,4.373,None,dummy,1.587,None,None,None,None,None,Kidman,"['lshift', 'k', 'i', 'd', 'm', 'a', 'n', 'return']","[1.166809893114987, 1.3000393592064938, 1.6170310841498576, 1.7835112196189584, 2.150146225703793, 2.3501978064705327, 2.5166811497001618, 3.1330966648620233]",2016_Nov_30_1302,60.0406184635,famFaceFilter,1,jb
99,./img/edges5_OmarEpps(DrEricForeman)2_2.png,0,98,98,98,,,1.ja,2.554,None,act,1.104,None,None,None,None,None,aus House,"['a', 'u', 's', 'space', 'lshift', 'h', 'o', 'u', 's', 'e', 'return']","[0.7334602322862338, 0.9998947854983271, 1.099911433768284, 1.349313106487898, 1.6325069183349115, 1.7660998235405714, 1.99934208859122, 2.2326103364903247, 2.3657076429026347, 3.5987866330106044, 4.032226752648057]",2016_Nov_30_1302,60.0406184635,famFaceFilter,1,jb
100,./img/edges5_Ice-T(OdafinFinTutuola)5_1.png,0,99,99,99,,,1.ja,2.05,None,act,1.456,None,None,None,None,None,Ice T,"['lshift', 'i', 'c', 'e', 'space', 'lshift', 't', 'return']","[0.7839644759915245, 1.0337655147286569, 1.3503427971863857, 1.5167546073862468, 2.000105535278635, 2.4164832630358433, 2.5665050276820693, 3.1496714773438725]",2016_Nov_30_1302,60.0406184635,famFaceFilter,1,jb
101,./img/edges5_TomCruise4_1.png,0,100,100,100,,,2.nein,5.469,None,dummy,1.474,None,None,None,None,None,,['return'],[0.6663558348009246],2016_Nov_30_1302,60.0406184635,famFaceFilter,1,jb
102,./img/edges5_MariskaHargitay(Liv)8_8.png,0,101,101,101,,,1.ja,1.625,None,act,0.755,None,None,None,None,None,Mariska,"['lshift', 'm', 'a', 'r', 'i', 's', 'k', 'a', 'return']","[0.9167137405329413, 1.0329209117353457, 1.332853452558993, 1.5160023878561333, 1.6824456340964389, 1.8160375769748498, 2.265795567582245, 2.5324456822127104, 2.7656488125994656]",2016_Nov_30_1302,60.0406184635,famFaceFilter,1,jb
103,./img/edges5_GeorgeClooney4_2.png,0,102,102,102,,,1.ja,4.637,None,act,1.335,None,None,None,None,None,Cloney,"['lshift', 'c', 'l', 'o', 'o', 'backspace', 'n', 'e', 'y', 'return']","[1.5494358995092625, 1.6664068381724064, 1.899576607866038, 2.1495633758586337, 2.3161554621237883, 3.1656586283424986, 3.948955569649115, 4.065323128810633, 5.231505584228216, 6.364381555256841]",2016_Nov_30_1302,60.0406184635,famFaceFilter,1,jb
104,./img/edges5_Ice-T(OdafinFinTutuola)7_1.png,0,103,103,103,,,1.ja,2.133,None,act,1.177,None,None,None,None,None,IceT,"['lshift', 'i', 'c', 'e', 'minus', 'lshift', 't', 'return']","[0.6170763135542074, 0.8498573028336978, 1.2503412253845454, 1.416794094900979, 2.3829002698057593, 3.0493051833218487, 3.1829616021605034, 3.982116100994972]",2016_Nov_30_1302,60.0406184635,famFaceFilter,1,jb
105,./img/edges5_BarackObama2_1.png,0,104,104,104,,,1.ja,2.454,None,None,None,None,None,polit,1.404,None,Obama,"['lshift', 'o', 'b', 'a', 'm', 'a', 'return']","[0.716697445115642, 1.0667159378481301, 1.4499825337516086, 1.5995289084858086, 1.833025869615085, 1.9498736303266924, 2.2496900502683275]",2016_Nov_30_1302,60.0406184635,famFaceFilter,1,jb
106,./img/edges5_KatjaBurkard1_1.png,0,105,105,105,,,2.nein,7.97,None,dummy,1.25,None,None,None,None,None,,['return'],[0.6834201513356675],2016_Nov_30_1302,60.0406184635,famFaceFilter,1,jb
107,./img/edges5_WillSmith1_1.png,0,106,106,106,,,1.ja,1.807,None,act,1.273,None,None,None,None,None,Smith,"['lshift', 's', 'm', 'i', 't', 'h', 'return']","[2.0162052786254208, 2.0992807883139903, 2.315672052814989, 2.5489820015845908, 2.748959483114959, 2.8987076259018068, 3.7485328511429543]",2016_Nov_30_1302,60.0406184635,famFaceFilter,1,jb
108,./img/edges5_AngelaMerkel1_1.png,0,107,107,107,,,1.ja,2.027,None,None,None,None,None,polit,1.405,None,Merkel,"['lshift', 'm', 'e', 'r', 'k', 'e', 'l', 'return']","[0.5664697423308098, 0.8164914748977026, 1.0332089685089159, 1.1162466266396223, 1.2997336597545655, 1.4328514958251617, 1.6660767597531958, 2.0497128895131027]",2016_Nov_30_1302,60.0406184635,famFaceFilter,1,jb
109,./img/edges5_JasonSegel(Marshall)9_1.png,0,108,108,108,,,1.ja,2.269,None,act,1.209,None,None,None,None,None,Marshall,"['lshift', 'm', 'a', 'r', 's', 'h', 'a', 'l', 'l', 'return']","[0.6999750757113361, 0.9665552611895691, 1.3499514505656407, 1.5667552328977763, 1.8666223354357498, 2.083289467227587, 2.399757685871009, 2.5661265120979806, 3.9489029623982788, 4.232197497884044]",2016_Nov_30_1302,60.0406184635,famFaceFilter,1,jb
110,./img/edges5_GeorgeClooney11_1.png,0,109,109,109,,,2.nein,5.48,None,act,10.468,None,None,None,None,None,,['return'],[0.9498922353304806],2016_Nov_30_1302,60.0406184635,famFaceFilter,1,jb
111,./img/edges5_AlysonHannigan(Lily)8_3.png,0,110,110,110,,,1.ja,1.787,None,dummy,1.272,None,None,None,None,None,Lily,"['lshift', 'l', 'i', 'l', 'y', 'return']","[1.1165221731534984, 1.3331873802908376, 1.682990632381916, 1.9966398722535814, 2.5658034907482943, 2.9826453812602267]",2016_Nov_30_1302,60.0406184635,famFaceFilter,1,jb
112,./img/edges5_NicoleKidman3_1.png,0,111,111,111,,,1.ja,20.263,None,act,1.167,None,None,None,None,None,Kidman,"['lshift', 'k', 'i', 'd', 'm', 'a', 'n', 'return']","[0.7671051352681388, 0.9333453303515853, 1.200009238345956, 1.3169362307089614, 1.6663170209139935, 1.7163741029889934, 2.0500432887092757, 2.466091900374522]",2016_Nov_30_1302,60.0406184635,famFaceFilter,1,jb
113,./img/edges5_OmarEpps(DrEricForeman)3_1.png,0,112,112,112,,,1.ja,2.161,None,act,0.687,None,None,None,None,None,aus Hous,"['a', 'u', 's', 'space', 'lshift', 'h', 'o', 'u', 's', 'return']","[0.7335542196306051, 0.9331243157448625, 1.066743845352903, 1.7998015038610902, 1.999671525460144, 2.14943827325078, 2.332811751690315, 2.566097000713853, 2.7329457077139523, 3.0324442387209274]",2016_Nov_30_1302,60.0406184635,famFaceFilter,1,jb
114,./img/edges5_JoachimLoew4_1.png,0,113,113,113,,,1.ja,3.069,None,None,None,None,None,sport,4.059,None,Löw,"['lshift', 'l', u'\xf6', 'w', 'return']","[0.7164725811981043, 0.8995605690706725, 1.266007279689802, 1.5995991584131843, 2.4160146094181982]",2016_Nov_30_1302,60.0406184635,famFaceFilter,1,jb
115,./img/edges5_BarackObama1_3.png,0,114,114,114,,,1.ja,3.037,None,None,None,None,None,polit,1.358,None,Obama,"['lshift', 'o', 'b', 'a', 'm', 'a', 'return']","[0.5672983065269364, 0.8010746634827228, 1.2337182965129614, 1.3502391865640675, 1.600315771815076, 1.7003718755222508, 2.2332448312572524]",2016_Nov_30_1302,60.0406184635,famFaceFilter,1,jb
116,./img/edges5_EmilyDeschanel5_1.png,0,115,115,115,,,1.ja,9.588,None,act,1.257,None,None,None,None,None,Bones,"['lshift', 'b', 'o', 'm', 'e', 'backspace', 'backspace', 'n', 'e', 's', 'return']","[1.3494949864325463, 1.5163632607636828, 1.7835715254914248, 2.332656496146228, 2.549431729421485, 2.9489414555082476, 3.149086382067253, 3.832105884281191, 3.96554642092633, 4.198563180505516, 4.39854130358799]",2016_Nov_30_1302,60.0406184635,famFaceFilter,1,jb
117,./img/edges5_WillSmith4_1.png,0,116,116,116,,,1.ja,2.916,None,dummy,3.604,None,None,None,None,None,Smith,"['lshift', 's', 'm', 'i', 't', 'h', 'return']","[1.5497602039631602, 1.666611172433477, 1.8825588038398564, 2.132880782668508, 2.3160492852948664, 2.4161143707297015, 2.7328321530385438]",2016_Nov_30_1302,60.0406184635,famFaceFilter,1,jb
118,./img/edges5_TomCruise5_1.png,0,117,117,117,,,1.ja,3.903,None,act,1.304,None,None,None,None,None,Cruise,"['lshift', 'c', 'r', 'u', 'i', 's', 'e', 'return']","[1.299916822805244, 1.4496239062737004, 2.499197579039901, 3.2491604492279293, 3.7487853017901216, 3.915348197448111, 4.648138649616158, 5.148229589589391]",2016_Nov_30_1302,60.0406184635,famFaceFilter,1,jb
119,./img/edges5_UrsulavonderLeyen5_1.png,0,118,118,118,,,2.nein,4.457,None,dummy,1.05,None,None,None,None,None,,['return'],[0.6169913079356775],2016_Nov_30_1302,60.0406184635,famFaceFilter,1,jb
120,./img/edges5_GeorgeClooney3_1.png,0,119,119,119,,,1.ja,7.121,None,act,1.035,None,None,None,None,None,Cloney,"['lshift', 'c', 'l', 'o', 'n', 'e', 'y', 'return']","[1.416701390660819, 1.5498464926840825, 1.8833549696701084, 2.299710884664819, 2.9994216410195804, 3.232747628584548, 4.0323467228408845, 5.398505055909482]",2016_Nov_30_1302,60.0406184635,famFaceFilter,1,jb
121,./img/edges5_RobertSeanLeonard(Wilson)2_6.png,0,120,120,120,,,1.ja,2.084,None,act,1.086,None,None,None,None,None,Wilson,"['lshift', 'w', 'i', 'l', 's', 'o', 'n', 'return']","[1.033651639276286, 1.1334071759501967, 1.3168890766501136, 1.5001303954104515, 1.5664963667313714, 1.9832202117049746, 2.2497413744149526, 2.549452579856734]",2016_Nov_30_1302,60.0406184635,famFaceFilter,1,jb
122,./img/edges5_WillSmith5_1.png,0,121,121,121,,,1.ja,2.109,None,act,3.054,None,None,None,None,None,Smith,"['lshift', 's', 'm', 'i', 't', 'h', 'return']","[1.049881296870808, 1.1994318416927854, 1.6823891775347874, 2.1995761908565328, 2.3993685846817243, 2.5488822402730875, 3.981782814815233]",2016_Nov_30_1302,60.0406184635,famFaceFilter,1,jb
123,./img/edges5_Ice-T(OdafinFinTutuola)6_1.png,0,122,122,122,,,1.ja,2.304,None,act,1.286,None,None,None,None,None,Ice T,"['lshift', 'i', 'c', 'e', 'space', 'lshift', 't', 'return']","[0.39996971875189047, 0.8668895417740714, 1.233090858815558, 1.383116472772599, 1.7160177209443646, 2.0161574830126483, 2.0831111158149724, 2.4990830620372435]",2016_Nov_30_1302,60.0406184635,famFaceFilter,1,jb
124,./img/edges5_BarackObama4_1.png,0,123,123,123,,,1.ja,2.411,None,None,None,None,None,polit,2.389,None,Obama,"['lshift', 'o', 'b', 'a', 'm', 'a', 'return']","[0.7497049663488724, 0.9498489305806288, 1.4330786051759787, 1.7662871566772083, 2.1657785985353257, 2.465394212753381, 2.7488440037832333]",2016_Nov_30_1302,60.0406184635,famFaceFilter,1,jb
125,./img/edges5_KatjaBurkard4_1.png,0,124,124,124,,,1.ja,3.091,None,None,None,host,2.305,None,None,None,Burkhard,"['lshift', 'b', 'u', 'r', 'k', 'h', 'a', 'r', 'd', 'return']","[1.666367703510332, 1.883039646942052, 2.365803554903323, 2.5325249138641084, 2.715966076022596, 3.0657087014642457, 3.198872087716154, 3.49884312164977, 3.982120912633036, 4.315099788576845]",2016_Nov_30_1302,60.0406184635,famFaceFilter,1,jb
126,./img/edges5_KatjaBurkard5_3.png,0,125,125,125,,,1.ja,2.715,None,None,None,host,1.718,None,None,None,Burkhard,"['lshift', 'b', 'u', 'r', 'k', 'h', 'a', 'r', 'd', 'return']","[0.9502444472873322, 1.1345083996766334, 1.583204942771772, 1.7500815572766442, 1.9499474087879207, 2.433042036720508, 2.582914961341885, 2.816321784437605, 3.099555051723655, 3.299507191955854]",2016_Nov_30_1302,60.0406184635,famFaceFilter,1,jb
127,./img/edges5_JoachimLoew1_1.png,0,126,126,126,,,1.ja,2.504,None,None,None,None,None,sport,3.403,None,Löw,"['lshift', 'l', u'\xf6', 'w', 'return']","[1.2831033530401328, 1.4998224505288817, 1.9160259969648905, 2.0993478304808377, 2.7327362410396745]",2016_Nov_30_1302,60.0406184635,famFaceFilter,1,jb
128,./img/edges5_NeilPatrickHarris(Barney)1_1.png,0,127,127,127,,,1.ja,2.023,None,act,0.74,None,None,None,None,None,Barney,"['lshift', 'b', 'a', 'r', 'n', 'e', 'y', 'return']","[1.0999980432679877, 1.2834055239545705, 1.5496726321380265, 1.750102728488855, 1.9993655052348913, 2.1329898464809958, 3.099549919310448, 3.665404413428405]",2016_Nov_30_1302,60.0406184635,famFaceFilter,1,jb
129,./img/edges5_BritneySpears5_1.png,0,128,128,128,,,2.nein,3.744,None,dummy,0.89,None,None,None,None,None,,['return'],[0.533425011090003],2016_Nov_30_1302,60.0406184635,famFaceFilter,1,jb
130,./img/edges5_HughLaurie(DrHouse)5_3.png,0,129,129,129,,,1.ja,2.322,None,act,2.857,None,None,None,None,None,House,"['lshift', 'h', 'o', 'u', 's', 'e', 'return']","[1.0329218740625947, 1.1996127593120036, 1.3994526279730053, 1.5662740690204373, 1.6827939967442944, 1.9322681648191065, 2.1491582358739834]",2016_Nov_30_1302,60.0406184635,famFaceFilter,1,jb
131,./img/edges5_BastianSchweinsteiger3_1.png,0,130,130,130,,,2.nein,12.534,None,dummy,3.054,None,None,None,None,None,,['return'],[1.0669000632260577],2016_Nov_30_1302,60.0406184635,famFaceFilter,1,jb
132,./img/edges5_TomCruise1_1.png,0,131,131,131,,,2.nein,8.569,None,dummy,2.667,None,None,None,None,None,,['return'],[0.7000453256368928],2016_Nov_30_1302,60.0406184635,famFaceFilter,1,jb
133,./img/edges5_NeilPatrickHarris(Barney)2_2.png,0,132,132,132,,,1.ja,2.944,None,act,0.911,None,None,None,None,None,Barney,"['lshift', 'b', 'a', 'r', 'n', 'e', 'y', 'return']","[0.833344720876994, 0.9666229449085222, 1.2333436302396876, 2.0662604360422847, 2.4996059267832607, 2.6248592996616935, 3.66575149297023, 4.431932152043373]",2016_Nov_30_1302,60.0406184635,famFaceFilter,1,jb
134,./img/edges5_AlysonHannigan(Lily)5_4.png,0,133,133,133,,,1.ja,2.284,None,act,4.741,None,None,None,None,None,Lily,"['lshift', 'l', 'i', 'l', 'y', 'return']","[0.617349293859661, 0.8503612418007833, 1.1337536139417352, 1.4001275405062188, 2.0828339654217416, 2.932509067533829]",2016_Nov_30_1302,60.0406184635,famFaceFilter,1,jb
135,./img/edges5_LisaEdelstein(DrLisaCuddy)2_2.png,0,134,134,134,,,1.ja,4.459,None,act,1.786,None,None,None,None,None,Cuddy,"['lshift', 'c', 'u', 's', 's', 'y', 'backspace', 'backspace', 'backspace', 'd', 'd', 'y', 'return']","[1.3331630013217364, 1.4664014491372654, 1.6994855716602615, 1.8828160661269067, 2.0493340531556896, 2.59936018035296, 3.332548073885846, 3.565368518602554, 3.8984792334485974, 4.681454757283063, 4.931238153345475, 5.380984916795569, 5.731375188817765]",2016_Nov_30_1302,60.0406184635,famFaceFilter,1,jb
136,./img/edges5_EmilyDeschanel3_1.png,0,135,135,135,,,1.ja,2.784,None,act,1.189,None,None,None,None,None,Bones,"['lshift', 'b', 'o', 'n', 'e', 'r', 'backspace', 's', 'return']","[2.399813821657517, 2.566611846063097, 2.765900300921203, 2.9658957459032536, 3.1494299330770446, 3.2657583575764875, 3.882446532268659, 4.049169174333656, 4.315729792480852]",2016_Nov_30_1302,60.0406184635,famFaceFilter,1,jb
137,./img/edges5_LisaEdelstein(DrLisaCuddy)1_1.png,0,136,136,136,,,1.ja,2.899,None,act,1.79,None,None,None,None,None,Cuddy,"['lshift', 'c', 'u', 's', 's', 'backspace', 'backspace', 'd', 'd', 'y', 'return']","[1.2832634202204645, 1.4833121140054573, 1.7332934288078832, 1.8997453359970677, 2.1495402799919248, 2.5493816883772524, 2.7656257167327567, 3.79890846370472, 4.048482393091035, 4.515020171993456, 5.847871058344026]",2016_Nov_30_1302,60.0406184635,famFaceFilter,1,jb
138,./img/edges5_BritneySpears1_1.png,0,137,137,137,,,1.ja,3.755,None,act,1.088,None,None,None,None,None,Spears,"['lshift', 's', 'p', 'e', 'a', 'r', 's', 'return']","[1.0335252535642212, 1.2512329824367043, 2.782767019487437, 3.0490103902520787, 3.4326385006152123, 4.081858485853445, 4.398438013742634, 5.314693044711021]",2016_Nov_30_1302,60.0406184635,famFaceFilter,1,jb
139,./img/edges5_LeonardoDiCaprio2_1.png,0,138,138,138,,,1.ja,2.658,None,act,1.043,None,None,None,None,None,DiCaprio,"['lshift', 'd', 'i', 'lshift', 'c', 'a', 'p', 'r', 'i', 'o', 'return']","[1.0498508231594315, 1.1667062824926688, 1.416550625977834, 1.9497260734042356, 2.099569165864523, 2.382627289498487, 2.816625238458073, 3.1322010584972304, 3.382302985044589, 4.015622108005118, 4.815095137326352]",2016_Nov_30_1302,60.0406184635,famFaceFilter,1,jb
140,./img/edges5_MariskaHargitay(Liv)4_4.png,0,139,139,139,,,1.ja,6.497,None,act,1.275,None,None,None,None,None,Mariska,"['lshift', 'm', 'a', 'r', 'i', 's', 'k', 'a', 'return']","[0.46694099423257285, 0.6837085288861999, 1.049781856336267, 1.3000284528243355, 1.3998686743398139, 1.5664604398298252, 1.9497190163347113, 2.2492444925192103, 3.0493375816895423]",2016_Nov_30_1302,60.0406184635,famFaceFilter,1,jb
141,./img/edges5_GuentherJauch2_1.png,0,140,140,140,,,1.ja,1.96,None,act,1.66,None,None,None,None,None,Jauch,"['lshift', 'j', 'a', 'u', 's', 'backspace', 'c', 'j', 'backspace', 'h', 'return']","[0.7002278471336467, 0.9501324964930973, 1.2664765748559148, 1.4496547007620393, 1.6330442179969396, 2.3344762579308735, 2.832815119836596, 3.0661385411931406, 4.115832504929131, 4.531847435122472, 5.265277835249435]",2016_Nov_30_1302,60.0406184635,famFaceFilter,1,jb
142,./img/edges5_BastianSchweinsteiger1_1.png,0,141,141,141,,,2.nein,10.788,None,act,2.939,None,None,None,None,None,,['return'],[0.6836366750812886],2016_Nov_30_1302,60.0406184635,famFaceFilter,1,jb
143,./img/edges5_HughLaurie(DrHouse)4_1.png,0,142,142,142,,,1.ja,2.005,None,dummy,0.872,None,None,None,None,None,House,"['lshift', 'h', 'o', 'u', 's', 'e', 'return']","[1.0834103997476632, 1.266724213866837, 1.5668078401486127, 1.733238255350443, 1.8499740652659966, 2.0826350843526598, 2.2997464907912217]",2016_Nov_30_1302,60.0406184635,famFaceFilter,1,jb
144,./img/edges5_EmilyDeschanel6_12.png,0,143,143,143,,,1.ja,5.125,None,act,1.985,None,None,None,None,None,Bones,"['lshift', 'b', 'o', 'n', 'e', 's', 'return']","[0.6335507231742667, 0.8501216221902723, 1.133397873449212, 1.4991706338623771, 1.6665723585465457, 2.0663435170063167, 2.2995116828205937]",2016_Nov_30_1302,60.0406184635,famFaceFilter,1,jb
145,./img/gray_JoachimLoew8_1.png,0,144,144,144,,,1.ja,2.227,None,None,None,None,None,sport,2.775,None,Löw,"['lshift', 'l', u'\xf6', 'w', 'return']","[0.7335121979849646, 0.9497963233297924, 1.3666369307393325, 1.6498737265592354, 2.916067056281463]",2016_Nov_30_1302,60.0406184635,famFaceFilter,1,jb
146,./img/gray_BastianSchweinsteiger1_1.png,0,145,145,145,,,1.ja,11.401,None,None,None,None,None,sport,4.344,None,Schweinsteiger,"['lshift', 's', 'c', 'h', 'w', 'e', 'i', 'n', 's', 't', 'e', 'i', 'g', 'e', 'r', 'return']","[1.4159966459665156, 1.5824825554027484, 1.9494813213786983, 2.1826687337470503, 2.4825817072396603, 2.649403789839198, 2.898707946678769, 3.1483970346198475, 3.848424717580201, 4.13183441162073, 4.365002577435007, 4.515002850093879, 4.964651456113643, 5.1157163840471185, 5.231183204428817, 6.497632834109027]",2016_Nov_30_1302,60.0406184635,famFaceFilter,1,jb
147,./img/gray_KatjaBurkard1_1.png,0,146,146,146,,,1.ja,4.564,None,None,None,host,4.513,None,None,None,Burkhard,"['lshift', 'b', 'u', 'r', 'k', 'h', 'a', 'r', 'd', 'return']","[1.3997904050138459, 1.6496013878040685, 2.0330306170981203, 2.1828990508547577, 2.365997945109484, 2.799283450753137, 3.232182421414109, 3.7817062135254673, 4.098559363272216, 4.881802414221966]",2016_Nov_30_1302,60.0406184635,famFaceFilter,1,jb
148,./img/gray_AngelaMerkel1_1.png,0,147,147,147,,,1.ja,2.033,None,None,None,None,None,polit,2.537,None,Merkel,"['lshift', 'm', 'e', 'r', 'k', 'e', 'l', 'return']","[0.9168914503898122, 1.1499993103316228, 1.3833439028985595, 1.4997759380203206, 1.7498352013717522, 1.8828430113026116, 2.0994296283388394, 2.882606920225953]",2016_Nov_30_1302,60.0406184635,famFaceFilter,1,jb
149,./img/gray_OmarEpps(DrEricForeman)2_2.png,0,148,148,148,,,1.ja,2.374,None,act,1.556,None,None,None,None,None,aus House,"['a', 'u', 's', 'space', 'lshift', 'h', 'o', 'u', 's', 'e', 'return']","[1.3998086892424908, 1.6329749304004508, 1.7328837979621312, 1.9828971903571073, 2.332195541150213, 2.532522668432648, 3.048715917959271, 3.2489500202245836, 3.431946266184241, 3.648873547246694, 3.8984109081775387]",2016_Nov_30_1302,60.0406184635,famFaceFilter,1,jb
150,./img/gray_NicoleKidman3_1.png,0,149,149,149,,,1.ja,1.903,None,act,1.911,None,None,None,None,None,Kidman,"['lshift', 'k', 'i', 'd', 'm', 'a', 'n', 'return']","[0.8503339758462971, 1.0169927835031558, 1.2334671289681864, 1.367681056352012, 1.7167231071889546, 1.8498755870587047, 2.032902948281844, 2.566237179788004]",2016_Nov_30_1302,60.0406184635,famFaceFilter,1,jb
151,./img/gray_OmarEpps(DrEricForeman)1_5.png,0,150,150,150,,,1.ja,4.641,None,act,1.307,None,None,None,None,None,aus House,"['a', 'u', 's', 'space', 'lshift', 'h', 'o', 'u', 's', 'e', 'return']","[1.7499503599265154, 2.032995652523823, 2.166141075324049, 2.4497660100059875, 2.7494230043157586, 2.8827724406019115, 3.1159810241788364, 3.3326289094165986, 3.4990615700498893, 3.8489023529236874, 4.398613478169864]",2016_Nov_30_1302,60.0406184635,famFaceFilter,1,jb
152,./img/gray_BastianSchweinsteiger6_2.png,0,151,151,151,,,2.nein,3.873,None,dummy,3.336,None,None,None,None,None,,['return'],[0.6505114290866914],2016_Nov_30_1302,60.0406184635,famFaceFilter,1,jb
153,./img/gray_RobertSeanLeonard(Wilson)8_1.png,0,152,152,152,,,1.ja,1.738,None,act,1.373,None,None,None,None,None,Wilson,"['lshift', 'w', 'i', 's', 'o', 'backspace', 'backspace', u'\xf6', 'backspace', 'l', 's', 'o', 'n', 'return']","[1.7496873236723332, 1.882822160867363, 2.016218109660258, 2.166332578546644, 2.566144154772701, 2.9653982224517677, 3.1487553413189744, 3.515055136567753, 4.515350891964772, 5.232204234176606, 5.614775067113442, 5.732456845213164, 6.014624494897362, 6.697141341246606]",2016_Nov_30_1302,60.0406184635,famFaceFilter,1,jb
154,./img/gray_HughLaurie(DrHouse)2_1.png,0,153,153,153,,,1.ja,2.206,None,act,0.754,None,None,None,None,None,House,"['lshift', 'h', 'o', 'u', 's', 'e', 'return']","[0.5502089694728056, 0.7998358268851007, 1.0334697593316378, 1.2496262158620084, 1.3994160595193534, 1.5995308331421256, 1.8330874585917627]",2016_Nov_30_1302,60.0406184635,famFaceFilter,1,jb
155,./img/gray_EmilyDeschanel6_12.png,0,154,154,154,,,1.ja,1.671,None,act,0.854,None,None,None,None,None,Bones,"['lshift', 'b', 'o', 'n', 'e', 's', 'return']","[0.6829251940944232, 0.9329142075184791, 1.382511489391618, 1.8493645910220948, 1.9497735482418648, 2.232498706471233, 2.4326195748380997]",2016_Nov_30_1302,60.0406184635,famFaceFilter,1,jb
156,./img/gray_BarackObama2_1.png,0,155,155,155,,,1.ja,1.987,None,None,None,None,None,polit,2.019,None,Obama,"['lshift', 'o', 'b', 'a', 'm', 'a', 'return']","[0.4501775655098754, 1.0002216561606474, 1.6827086703488021, 1.8164359806651191, 2.1665077222005493, 2.6330955421453837, 3.1330049229491124]",2016_Nov_30_1302,60.0406184635,famFaceFilter,1,jb
157,./img/gray_NeilPatrickHarris(Barney)2_2.png,0,156,156,156,,,1.ja,1.77,None,act,1.409,None,None,None,None,None,Barney,"['lshift', 'b', 'a', 'r', 'n', 'e', 'y', 'return']","[0.6833669025327254, 0.9165533525738283, 1.2996621267247974, 1.5000383327223972, 1.799614812276559, 2.0494556272278714, 3.0668121706239617, 3.632334661666391]",2016_Nov_30_1302,60.0406184635,famFaceFilter,1,jb
158,./img/gray_JoshRadnor(Ted)6_2.png,0,157,157,157,,,1.ja,5.317,None,act,4.099,None,None,None,None,None,Ted,"['lshift', 't', 'e', 'd', 'return']","[1.4666846942727716, 1.5999731831325334, 2.0498354259143525, 2.3496091826600605, 3.066151372231616]",2016_Nov_30_1302,60.0406184635,famFaceFilter,1,jb
159,./img/gray_GeorgeClooney11_1.png,0,158,158,158,,,1.ja,3.553,None,act,1.359,None,None,None,None,None,Cloney,"['lshift', 'c', 'l', 'o', 'o', 'backspace', 'n', 'e', 'y', 'return']","[1.0661385411949595, 1.1662806128497323, 1.4162372279060946, 1.6994255865629384, 2.1657734661221184, 2.7658460897891928, 3.448906651321522, 3.5996581811814394, 4.7651830459672055, 5.2648704498333245]",2016_Nov_30_1302,60.0406184635,famFaceFilter,1,jb
160,./img/gray_JoshRadnor(Ted)1_2.png,0,159,159,159,,,1.ja,1.883,None,act,1.159,None,None,None,None,None,Ted,"['lshift', 't', 'e', 'd', 'return']","[1.1500368411143427, 1.2837882096246176, 1.3837650816803944, 1.6666541564063664, 2.216641790493668]",2016_Nov_30_1302,60.0406184635,famFaceFilter,1,jb
161,./img/gray_JasonSegel(Marshall)6_1.png,0,160,160,160,,,1.ja,2.037,None,act,2.604,None,None,None,None,None,Marshall,"['lshift', 'm', 'a', 'r', 's', 'h', 'a', 'l', 'l', 'return']","[0.466988469068383, 0.7663541988440556, 1.116475339869794, 1.3825644174175977, 1.5997672449939273, 1.8326807147277577, 2.1661106016126723, 2.398859192524469, 2.66555614043682, 2.9986556281255616]",2016_Nov_30_1302,60.0406184635,famFaceFilter,1,jb
162,./img/gray_JasonSegel(Marshall)7_1.png,0,161,161,161,,,1.ja,2.359,None,act,0.906,None,None,None,None,None,Marshall,"['lshift', 'm', 'a', 'r', 's', 'h', 'a', 'l', 'l', 'return']","[1.3328816808407282, 1.4998388101012097, 1.8663804703937785, 2.0492913899579435, 2.2495229260166525, 2.516306483426888, 2.8325799910890055, 3.049277275817076, 3.2489798523856734, 3.532185532942094]",2016_Nov_30_1302,60.0406184635,famFaceFilter,1,jb
163,./img/gray_JasonSegel(Marshall)9_1.png,0,162,162,162,,,1.ja,3.492,None,act,2.121,None,None,None,None,None,Marshall,"['lshift', 'm', 'a', 'r', 's', 'h', 'a', 'l', 'l', 'return']","[1.2162728981875262, 1.433477008866248, 1.8166877897601807, 2.016637363785776, 2.283010648798154, 2.649165132555936, 3.099160818119344, 3.348881983652973, 3.5986804561816825, 3.9652548356170882]",2016_Nov_30_1302,60.0406184635,famFaceFilter,1,jb
164,./img/gray_WillSmith1_1.png,0,163,163,163,,,1.ja,2.143,None,act,1.254,None,None,None,None,None,Smith,"['lshift', 's', 'm', 'i', 't', 'h', 'return']","[1.6832626503601205, 1.7997873897220416, 2.14942063057606, 2.3663392506878154, 2.649566102454628, 2.832426980976379, 3.2489019038384868]",2016_Nov_30_1302,60.0406184635,famFaceFilter,1,jb
165,./img/gray_HughLaurie(DrHouse)4_1.png,0,164,164,164,,,1.ja,2.26,None,act,1.62,None,None,None,None,None,House,"['lshift', 'h', 'o', 'u', 's', 'e', 'return']","[0.41697725794983853, 0.7835795448900171, 1.167152802570854, 1.3837596284902247, 1.533581549738301, 1.7663529157398443, 2.2166356957513926]",2016_Nov_30_1302,60.0406184635,famFaceFilter,1,jb
166,./img/gray_GuentherJauch4_1.png,0,165,165,165,,,1.ja,1.537,None,act,0.872,None,None,None,None,None,Jauch,"['lshift', 'j', 'a', 'u', 's', 'backspace', 'c', 'j', 'backspace', 'h', 'return']","[0.6169393422369467, 0.7998695083570055, 1.1168034936345066, 1.2500868500810611, 1.4332822978849435, 2.332340211090923, 2.599310780862652, 2.848910693097423, 3.732953085560439, 4.198563822059441, 5.031348468182841]",2016_Nov_30_1302,60.0406184635,famFaceFilter,1,jb
167,./img/gray_TomCruise4_1.png,0,166,166,166,,,1.ja,3.586,None,act,1.456,None,None,None,None,None,Cruise,"['lshift', 'c', 'r', 'u', 'i', 's', 'e', 'return']","[1.1831300095182087, 1.3331437547658425, 1.9160750756800553, 2.3324181596381095, 2.61570884581306, 2.732702880344732, 2.9988285263461876, 3.4155735425320017]",2016_Nov_30_1302,60.0406184635,famFaceFilter,1,jb
168,./img/gray_JoachimLoew1_1.png,0,167,167,167,,,1.ja,1.72,None,None,None,None,None,sport,2.158,None,Löw,"['lshift', 'l', u'\xf6', 'w', 'return']","[0.4507341117277974, 1.0003573443736968, 1.4835023341256601, 1.7166320068299683, 2.2667341579199274]",2016_Nov_30_1302,60.0406184635,famFaceFilter,1,jb
169,./img/gray_MariskaHargitay(Liv)8_8.png,0,168,168,168,,,1.ja,1.772,None,act,1.088,None,None,None,None,None,Mariska,"['lshift', 'm', 'a', 'r', 'i', 's', 'k', 'a', 'return']","[0.616703892712394, 0.899924328961788, 1.2665272574540722, 1.4661262234003516, 1.599456733905754, 1.7328096987239405, 2.2494225231530436, 2.382735711758869, 2.9659355221156147]",2016_Nov_30_1302,60.0406184635,famFaceFilter,1,jb
170,./img/gray_BarackObama1_3.png,0,169,169,169,,,1.ja,1.653,None,None,None,None,None,polit,1.57,None,Obama,"['lshift', 'o', 'b', 'a', 'm', 'a', 'return']","[0.7505364175303839, 0.985134602387916, 1.4169288207867794, 1.566899902836667, 1.799863092837768, 1.8998832696433965, 2.416392162675038]",2016_Nov_30_1302,60.0406184635,famFaceFilter,1,jb
171,./img/gray_LeonardoDiCaprio1_1.png,0,170,170,170,,,1.ja,2.153,None,act,1.021,None,None,None,None,None,DiCaprio,"['lshift', 'd', 'i', 'lshift', 'c', 'a', 'p', 'r', 'i', 'p', 'backspace', 'o', 'return']","[0.9830280669302738, 1.100132769153788, 1.316632455915169, 2.2160570159958297, 2.3667200117015454, 2.582784405543862, 2.882446211491697, 3.0659682091827563, 3.349035956092848, 4.098729053734132, 5.18177344815922, 6.231329799024024, 8.71340660496935]",2016_Nov_30_1302,60.0406184635,famFaceFilter,1,jb
172,./img/gray_GeorgeClooney4_2.png,0,171,171,171,,,1.ja,2.333,None,act,1.319,None,None,None,None,None,Cloney,"['lshift', 'c', 'l', 'o', 'n', 'e', 's', 'backspace', 'y', 'return']","[1.3335982942426199, 1.4669031426747097, 1.5996305944536289, 1.8834746190877922, 2.382839963933293, 2.549551378839169, 2.882630016094481, 3.6008902814846806, 4.465490445529213, 4.799001488721842]",2016_Nov_30_1302,60.0406184635,famFaceFilter,1,jb
173,./img/gray_UrsulavonderLeyen4_1.png,0,172,172,172,,,1.ja,4.115,None,None,None,None,None,polit,1.807,None,Von der Leyen,"['lshift', 'v', 'o', 'n', 'space', 'd', 'e', 'r', 'space', 'l', 'e', 'backspace', 'backspace', 'lshift', 'l', 'e', 'y', 'e', 'n', 'return']","[1.3827822242656111, 1.4830593425831466, 1.683108677918426, 1.8658627380591497, 2.1323983356851386, 2.282134288989255, 2.46574514160784, 2.5989537572640984, 2.7321659014560282, 3.098769471498599, 3.2657593199037365, 4.5981316085853905, 4.814556233783151, 5.16430206698351, 5.398063989021466, 5.747656170557093, 6.380814905558509, 6.797247806774976, 7.214051524952083, 7.980325529817492]",2016_Nov_30_1302,60.0406184635,famFaceFilter,1,jb
174,./img/gray_BarackObama4_1.png,0,173,173,173,,,1.ja,2.269,None,None,None,None,None,polit,1.905,None,Obama,"['lshift', 'o', 'b', 'a', 'm', 'a', 'return']","[1.416285985846116, 1.749336394819693, 2.199342665988297, 2.399490158755725, 2.5995818365136074, 2.699541065894664, 3.0326373458228773]",2016_Nov_30_1302,60.0406184635,famFaceFilter,1,jb
175,./img/gray_AngelaMerkel3_1.png,0,174,174,174,,,1.ja,2.136,None,None,None,None,None,polit,3.208,None,Merkel,"['lshift', 'm', 'e', 'r', 'k', 'e', u'\xf6', 'backspace', 'l', 'return']","[1.1501170350948087, 1.3169371930380294, 1.6182041616830247, 1.7002111667879944, 2.0167111422488233, 2.116463791937349, 2.366297229042175, 4.665878199459257, 5.115551505225085, 5.815039001541663]",2016_Nov_30_1302,60.0406184635,famFaceFilter,1,jb
176,./img/gray_MariskaHargitay(Liv)6_5.png,0,175,175,175,,,1.ja,3.217,None,act,2.104,None,None,None,None,None,Mariska,"['lshift', 'm', 'a', 'r', 'i', 's', 'k', 'a', 'return']","[1.4998150726823951, 1.8829937759837776, 2.1827896662671264, 2.3830125413751375, 2.5327241157083336, 2.7159285452380573, 3.1656544582547212, 3.265790755942362, 4.048785526332722]",2016_Nov_30_1302,60.0406184635,famFaceFilter,1,jb
177,./img/gray_KatjaBurkard4_1.png,0,176,176,176,,,1.ja,1.735,None,None,None,host,2.104,None,None,None,Burkhard,"['lshift', 'b', 'u', 'r', 'k', 'h', 'a', 'r', 'd', 'return']","[0.816870632033897, 0.9832657618862868, 1.450065935488965, 1.584107285430946, 1.8999718037957791, 2.5163642230909318, 2.632648380515093, 3.198908656169806, 3.515757635830596, 4.015741115870696]",2016_Nov_30_1302,60.0406184635,famFaceFilter,1,jb
178,./img/gray_RobertSeanLeonard(Wilson)2_6.png,0,177,177,177,,,1.ja,2.838,None,act,1.221,None,None,None,None,None,Wilson,"['lshift', 'w', 'i', 'l', 's', 'o', 'n', 'return']","[1.000145953043102, 1.1167056569793203, 1.3001692734524113, 1.5000123498721223, 1.6160523968210327, 2.083880015692557, 2.2992874604533426, 3.016183145085961]",2016_Nov_30_1302,60.0406184635,famFaceFilter,1,jb
179,./img/gray_JoachimLoew4_1.png,0,178,178,178,,,1.ja,2.055,None,None,None,None,None,sport,1.959,None,Löw,"['lshift', 'l', u'\xf6', 'w', 'return']","[0.650265714732086, 0.8167628513256204, 1.416302345418444, 1.666646137007774, 2.2995277216159593]",2016_Nov_30_1302,60.0406184635,famFaceFilter,1,jb
180,./img/gray_TomCruise5_1.png,0,179,179,179,,,1.ja,1.705,None,act,1.422,None,None,None,None,None,Cruise,"['lshift', 'c', 'r', 'u', 'i', 's', 'e', 'return']","[1.132920558880869, 1.249902083151028, 1.632947022893859, 1.866217516224424, 2.132843251883969, 2.266217067139223, 6.831108591950397, 8.014109007996012]",2016_Nov_30_1302,60.0406184635,famFaceFilter,1,jb
181,./img/gray_TomCruise1_1.png,0,180,180,180,,,1.ja,5.516,None,act,0.983,None,None,None,None,None,Cruise,"['lshift', 'c', 'r', 'u', 'i', 's', 'e', 'return']","[1.1500358787870937, 1.2833801826564013, 1.6163407743733842, 2.46626287394065, 2.7164459567957238, 2.8494887313026993, 3.09918583864237, 3.7656398308754433]",2016_Nov_30_1302,60.0406184635,famFaceFilter,1,jb
182,./img/gray_MariskaHargitay(Liv)4_4.png,0,181,181,181,,,1.ja,7.533,None,dummy,1.007,None,None,None,None,None,Mariska,"['lshift', 'm', 'a', 'r', 'i', 's', 'k', 'a', 'return']","[1.7995891502032464, 1.9663230194237258, 2.2158770607020415, 2.3992120460316073, 2.582428985824663, 2.6493085193906154, 3.0324897889004205, 3.1822273460820725, 3.415442345180054]",2016_Nov_30_1343,59.9616276782,famFaceFilter,1,jb_2
183,./img/gray_UrsulavonderLeyen1_1.png,0,182,182,182,,,1.ja,2.34,None,None,None,None,None,polit,3.935,None,Von der Layen,"['lshift', 'v', 'o', 'n', 'space', 'd', 'e', 'r', 'space', 'lshift', 'l', 'a', 'y', 'e', 'n', 'return']","[1.2998748011596035, 1.4163478955961182, 1.5493887454467767, 1.7163256658277533, 1.9331660166135407, 2.082845192580862, 2.299319858819217, 2.4825874812049733, 2.5162192323768977, 3.0490081448224373, 3.748861004907667, 4.03260334357401, 4.647980186313362, 5.031438926991541, 5.397914507444511, 5.730923857099697]",2016_Nov_30_1343,59.9616276782,famFaceFilter,1,jb_2
184,./img/gray_BritneySpears1_1.png,0,183,183,183,,,1.ja,2.257,None,None,None,music,3.081,None,None,None,Spears,"['lshift', 's', 'p', 'e', 'a', 'r', 's', 'return']","[1.6994631173438393, 1.8163910720359127, 2.349435001335223, 2.5492812855154625, 2.766030856717407, 3.065361301145458, 3.2819299547300034, 3.4986339757524547]",2016_Nov_30_1343,59.9616276782,famFaceFilter,1,jb_2
185,./img/gray_RobertSeanLeonard(Wilson)1_1.png,0,184,184,184,,,1.ja,2.092,None,act,0.926,None,None,None,None,None,Wilson,"['lshift', 'w', 'i', 'l', 's', 'o', 'n', 'return']","[1.36675241006742, 1.4665416282114165, 1.7162919843540294, 2.1161289018782554, 2.4828222891774203, 2.7660853886227414, 3.015991000309441, 3.9820179435628233]",2016_Nov_30_1343,59.9616276782,famFaceFilter,1,jb_2
186,./img/gray_NicoleKidman5_1.png,0,185,185,185,,,1.ja,2.22,None,act,1.61,None,None,None,None,None,Kidman,"['lshift', 'k', 'i', 'd', 'm', 'a', 'n', 'return']","[0.7836815516311617, 1.0166726491370355, 1.3169211542408448, 1.4834497268748237, 1.7667923787485051, 1.8997097298706649, 2.066385217876814, 2.4162981753324857]",2016_Nov_30_1343,59.9616276782,famFaceFilter,1,jb_2
187,./img/gray_LisaEdelstein(DrLisaCuddy)6_3.png,0,186,186,186,,,1.ja,1.924,None,act,0.856,None,None,None,None,None,Cuddy,"['lshift', 'c', 'u', 's', 's', 'backspace', 'backspace', 'd', 'd', 'y', 'return']","[1.0336452237606863, 1.2001064334508555, 1.4500242346221057, 1.6508039767250011, 1.8167153764916293, 2.282597168639768, 2.4665984055500303, 2.5995247383980313, 2.8161456784582697, 3.565421767405496, 4.032457711309689]",2016_Nov_30_1343,59.9616276782,famFaceFilter,1,jb_2
188,./img/gray_BritneySpears5_1.png,0,187,187,187,,,1.ja,1.546,None,None,None,music,1.603,None,None,None,Spears,"['lshift', 's', 'p', 'e', 'a', 'r', 's', 'return']","[1.5664411932739313, 1.7664661496382905, 2.216439701664058, 3.0491175294082495, 3.3325041275820695, 3.6158560819567356, 3.8991381071828073, 4.148821421156754]",2016_Nov_30_1343,59.9616276782,famFaceFilter,1,jb_2
189,./img/gray_NicoleKidman7_1.png,0,188,188,188,,,1.ja,1.672,None,act,2.009,None,None,None,None,None,Kidman,"['lshift', 'k', 'i', 'd', 'm', 'a', 'n', 'return']","[0.5335741718954523, 0.7835593360068742, 1.0666947666395572, 1.2495768163717003, 1.5162131376346224, 1.6998150085310044, 1.816459076533647, 2.2661670260968094]",2016_Nov_30_1343,59.9616276782,famFaceFilter,1,jb_2
190,./img/gray_GuentherJauch3_1.png,0,189,189,189,,,1.ja,1.92,None,None,None,host,1.954,None,None,None,Jauch,"['lshift', 'j', 'a', 'u', 'c', 'h', 'return']","[1.1669484683116025, 1.3169278905334068, 1.683295048725995, 1.8497697310049261, 2.033377055089659, 2.1499341928210924, 2.433131212426815]",2016_Nov_30_1343,59.9616276782,famFaceFilter,1,jb_2
191,./img/gray_HughLaurie(DrHouse)5_3.png,0,190,190,190,,,1.ja,2.538,None,dummy,1.353,None,None,None,None,None,House,"['lshift', 'h', 'o', 'u', 's', 'e', 'return']","[0.8332167312873935, 1.682958875564509, 2.16616320886169, 2.3830289009492844, 2.466365201460576, 2.7995958864994464, 3.0661122375713603]",2016_Nov_30_1343,59.9616276782,famFaceFilter,1,jb_2
192,./img/gray_LeonardoDiCaprio2_1.png,0,191,191,191,,,1.ja,1.653,None,act,0.877,None,None,None,None,None,DiCaprio,"['lshift', 'd', 'i', 'lshift', 'c', 'a', 'p', 'r', 'i', 'o', 'return']","[1.166325842252263, 1.266587884099863, 1.4828540459930082, 2.1160054031497566, 2.232555483806209, 2.4492229363750084, 2.782511681856704, 3.2989394185788115, 3.598772518867918, 4.03255041554803, 4.831884228122362]",2016_Nov_30_1343,59.9616276782,famFaceFilter,1,jb_2
193,./img/gray_NeilPatrickHarris(Barney)1_1.png,0,192,192,192,,,1.ja,2.603,None,act,2.002,None,None,None,None,None,Barney,"['lshift', 'b', 'a', 'r', 'n', 'e', 's', 'backspace', 'y', 'return']","[0.9830935052195855, 1.0832349353222526, 1.5163632607655018, 1.7165643231091963, 1.9497642457390612, 2.0835788071053685, 2.3826365919994714, 3.299201813282707, 3.5990089307233575, 3.8815512466790096]",2016_Nov_30_1343,59.9616276782,famFaceFilter,1,jb_2
194,./img/gray_BastianSchweinsteiger3_1.png,0,193,193,193,,,1.ja,5.492,None,None,None,None,None,sport,2.681,None,Schweinsteiger vllt,"['lshift', 's', 'c', 'h', 'w', 'e', 'i', 'n', 's', 't', 'e', 'i', 'g', 'e', 'r', 'lshift', u'?', 'v', 'backspace', 'space', 'v', 'l', 'l', 't', 'return']","[1.766192207007407, 1.9832391374839062, 2.349188324653369, 2.5492424716285313, 2.7825623644530424, 2.982308245769673, 3.1656297585104767, 3.482127488539845, 4.248499009285297, 4.4985961241945915, 4.681768796908727, 4.898242821596796, 5.831248450253042, 9.296589734978625, 9.596723723079776, 11.296029981000174, 11.462575233981624, 15.777470046745293, 16.793256071247015, 17.27683924090161, 17.51007412810577, 18.159973516740138, 18.342910098377615, 18.592657567536662, 23.207605212093767]",2016_Nov_30_1343,59.9616276782,famFaceFilter,1,jb_2
195,./img/gray_AlysonHannigan(Lily)1_1.png,0,194,194,194,,,1.ja,2.464,None,dummy,1.795,None,None,None,None,None,Lily,"['lshift', 'l', 'i', 'l', 'y', 'return']","[0.9832426660177589, 1.1495980196559685, 1.4830266234384908, 1.7661687903637358, 2.448963428658317, 2.9320728122838773]",2016_Nov_30_1343,59.9616276782,famFaceFilter,1,jb_2
196,./img/gray_EmilyDeschanel5_1.png,0,195,195,195,,,1.ja,2.176,None,act,1.97,None,None,None,None,None,Bones,"['lshift', 'b', 'o', 'n', 'e', 's', 'return']","[0.9994245280031464, 2.449059340659005, 2.9152250194965745, 3.2653545006942295, 3.331827290396177, 3.598530333052622, 3.748527718729747]",2016_Nov_30_1343,59.9616276782,famFaceFilter,1,jb_2
197,./img/gray_Ice-T(OdafinFinTutuola)5_1.png,0,196,196,196,,,1.ja,1.687,None,act,1.505,None,None,None,None,None,Ice T,"['lshift', 'i', 'c', 'e', 'space', 'lshift', 't', 'return']","[0.5338635117732338, 0.7836488324901438, 1.1670270584108948, 1.3335758399298356, 1.9332789297404815, 2.3498468776160735, 2.499237034480757, 2.849273811440071]",2016_Nov_30_1343,59.9616276782,famFaceFilter,1,jb_2
198,./img/gray_LeonardoDiCaprio3_1.png,0,197,197,197,,,1.ja,1.87,None,act,1.517,None,None,None,None,None,DiCaprio,"['lshift', 'd', 'i', 'space', 'backspace', 'lshift', 'c', 'a', 'p', 'r', 'o', 'backspace', 'i', 'o', 'return']","[1.266731912488467, 1.3830099751685339, 1.6164524043924757, 2.016092365502118, 3.382844134019251, 4.049417775670008, 4.132137865639379, 4.33244350093446, 4.582180705263454, 4.798319198343961, 4.981926843203837, 5.598050773052819, 6.347698641289753, 6.531301153736422, 6.7976654570193205]",2016_Nov_30_1343,59.9616276782,famFaceFilter,1,jb_2
199,./img/gray_Ice-T(OdafinFinTutuola)6_1.png,0,198,198,198,,,1.ja,1.449,None,act,2.457,None,None,None,None,None,IceT,"['lshift', 'i', 'c', 'e', 'lshift', 't', 'return']","[1.1833353061047092, 1.2993901087465929, 1.5494833743432537, 1.6329835913493298, 2.4992896417279553, 2.582727628207067, 2.899054705445451]",2016_Nov_30_1343,59.9616276782,famFaceFilter,1,jb_2
200,./img/gray_GuentherJauch2_1.png,0,199,199,199,,,1.ja,2.755,None,None,None,host,1.754,None,None,None,Jauch,"['lshift', 'j', 'a', 'u', 'c', 'h', 'return']","[1.3167902776658593, 1.4831125913842698, 1.7499535676870437, 1.8831172747122764, 2.0499300548108295, 2.13267227831966, 2.415953341216664]",2016_Nov_30_1343,59.9616276782,famFaceFilter,1,jb_2
201,./img/gray_UrsulavonderLeyen5_1.png,0,200,200,200,,,2.nein,9.689,None,act,2.256,None,None,None,None,None,,['return'],[0.7669649561939877],2016_Nov_30_1343,59.9616276782,famFaceFilter,1,jb_2
202,./img/gray_GeorgeClooney3_1.png,0,201,201,201,,,1.ja,2.642,None,act,1.005,None,None,None,None,None,Cloney,"['lshift', 'c', 'l', 'o', 'n', 'e', 'y', 'return']","[1.3331662090786267, 1.4497198182725697, 1.6831940043120994, 1.9495714594122546, 2.2662600511102937, 2.5492909087915905, 3.681891974858445, 4.064899383822194]",2016_Nov_30_1343,59.9616276782,famFaceFilter,1,jb_2
203,./img/gray_AlysonHannigan(Lily)5_4.png,0,202,202,202,,,1.ja,2.215,None,act,1.076,None,None,None,None,None,Lily,"['lshift', 'l', 'i', 'l', 'y', 'return']","[0.6671298670917167, 0.8005303067475324, 1.1501340362156043, 1.4498943203725503, 2.000019246555894, 2.499978347623255]",2016_Nov_30_1343,59.9616276782,famFaceFilter,1,jb_2
204,./img/gray_EmilyDeschanel3_1.png,0,203,203,203,,,1.ja,2.271,None,act,0.705,None,None,None,None,None,Bones,"['lshift', 'b', 'i', 'backspace', 'o', 'n', 'e', 's', 'return']","[0.46674435859313235, 0.7996773635786667, 1.1999226288462523, 2.2657731132676417, 2.948985401806567, 3.2486109600795317, 3.315310538353515, 3.5986098854773445, 3.765045433094201]",2016_Nov_30_1343,59.9616276782,famFaceFilter,1,jb_2
205,./img/gray_AlysonHannigan(Lily)8_3.png,0,204,204,204,,,1.ja,1.292,None,dummy,1.46,None,None,None,None,None,Lily,"['lshift', 'l', 'i', 'l', 'y', 'return']","[0.7831545167973673, 1.099994514734135, 1.416156392377161, 1.667466361031984, 2.4827770597767085, 3.0826649165137496]",2016_Nov_30_1343,59.9616276782,famFaceFilter,1,jb_2
206,./img/gray_LisaEdelstein(DrLisaCuddy)1_1.png,0,205,205,205,,,1.ja,1.851,None,act,1.592,None,None,None,None,None,Cuddy,"['lshift', 'c', 'u', 'd', 'd', 'y', 'return']","[1.0999775136078824, 1.1999142886743357, 1.4325583066383842, 1.649320708878804, 1.8158755851363821, 2.5825906568898063, 3.049316089705826]",2016_Nov_30_1343,59.9616276782,famFaceFilter,1,jb_2
207,./img/gray_JoshRadnor(Ted)3_1.png,0,206,206,206,,,1.ja,2.856,None,act,1.238,None,None,None,None,None,Ted,"['lshift', 't', 'e', 'x', 'backspace', 'd', 'return']","[1.0666116856737062, 1.2164445133057598, 1.3827632984866796, 1.6658413102268241, 2.2994420744435047, 2.4661688865962788, 2.832638372306974]",2016_Nov_30_1343,59.9616276782,famFaceFilter,1,jb_2
208,./img/gray_LisaEdelstein(DrLisaCuddy)2_2.png,0,207,207,207,,,1.ja,1.92,None,act,1.642,None,None,None,None,None,Cuddy,"['lshift', 'c', 'u', 'd', 'd', 'y', 'return']","[1.2170725925534498, 1.3336502599413507, 1.6003151302611514, 1.6836636202569935, 1.9000423744982982, 2.7165402649152384, 3.2664948590827407]",2016_Nov_30_1343,59.9616276782,famFaceFilter,1,jb_2
209,./img/gray_KatjaBurkard5_3.png,0,208,208,208,,,1.ja,2.069,None,None,None,host,2.136,None,None,None,Burkhard,"['lshift', 'b', 'u', 'r', 'k', 'h', 'a', 'r', 'd', 'return']","[1.0671079260209808, 1.2169583963259356, 1.6168562612729147, 1.7667878878855845, 2.066185374478664, 2.4498150887229713, 2.5830317237778218, 2.9991281310540217, 3.3323119828091876, 3.79883243981385]",2016_Nov_30_1343,59.9616276782,famFaceFilter,1,jb_2
210,./img/gray_NeilPatrickHarris(Barney)3_7.png,0,209,209,209,,,1.ja,2.077,None,dummy,0.82,None,None,None,None,None,Barney,"['lshift', 'b', 'a', 'r', 'n', 'e', 's', 'backspace', 'y', 'return']","[0.9497485277206579, 1.1666530336915457, 1.5331924485508353, 1.7330467521278479, 2.199415161347133, 2.332651363733021, 2.68269423543461, 3.165602171782666, 3.8321636239488726, 4.131490539839433]",2016_Nov_30_1343,59.9616276782,famFaceFilter,1,jb_2
211,./img/gray_AngelaMerkel4_1.png,0,210,210,210,,,1.ja,1.539,None,None,None,None,None,polit,1.45,None,Merkel,"['lshift', 'm', 'e', 'r', 'k', 'l', 'e', 'backspace', 'backspace', 'e', 'l', 'return']","[0.8499961988054565, 1.0332676705038466, 1.2332034511637175, 1.366348553190619, 1.5664152104254754, 1.8333822516615328, 1.9000279395841062, 2.3662766993838886, 2.5996787108415447, 2.716416124636453, 3.1830507778649917, 6.181321154115722]",2016_Nov_30_1343,59.9616276782,famFaceFilter,1,jb_2
212,./img/gray_Ice-T(OdafinFinTutuola)7_1.png,0,211,211,211,,,1.ja,3.364,None,act,1.937,None,None,None,None,None,IceT,"['lshift', 'i', 'c', 'e', 'lshift', 't', 'return']","[2.550093490142899, 2.733557106614171, 3.1166421433481446, 3.2998526676201436, 4.215778582496569, 4.348857604683872, 5.065933565383602]",2016_Nov_30_1343,59.9616276782,famFaceFilter,1,jb_2
213,./img/gray_OmarEpps(DrEricForeman)3_1.png,0,212,212,212,,,1.ja,1.74,None,dummy,1.06,None,None,None,None,None,aus House,"['a', 'u', 's', 'space', 'lshift', 'h', 'o', 'u', 's', 'e', 'return']","[1.2498071334775886, 1.466530401055934, 1.5996010830676823, 1.7826226703255088, 2.1827511731571576, 2.366140690392058, 2.6325357881687523, 2.8157726160643506, 2.982470879160246, 3.2655562687468773, 3.648628795221157]",2016_Nov_30_1343,59.9616276782,famFaceFilter,1,jb_2
214,./img/gray_WillSmith5_1.png,0,213,213,213,,,1.ja,4.254,None,dummy,1.58,None,None,None,None,None,Smith,"['lshift', 's', 'm', 'i', 't', 'h', 'return']","[1.383274936077214, 1.516044730276917, 2.882459684082278, 3.0991293820807186, 3.3654032265549176, 3.5323045408076723, 3.9488570914400043]",2016_Nov_30_1343,59.9616276782,famFaceFilter,1,jb_2
215,./img/gray_BritneySpears7_1.png,0,214,214,214,,,1.ja,1.922,None,None,None,music,1.994,None,None,None,Spears,"['lshift', 's', 'p', 'e', 'a', 'r', 's', 'return']","[1.116370125368121, 1.2497641495028802, 1.7829293321010482, 2.1330206409656967, 2.383289370991406, 2.682432161505858, 3.0489433480834123, 3.3989794834924396]",2016_Nov_30_1343,59.9616276782,famFaceFilter,1,jb_2
216,./img/gray_WillSmith4_1.png,0,215,215,215,,,1.ja,1.656,None,act,1.726,None,None,None,None,None,Smith,"['lshift', 's', 'm', 'i', 't', 'h', 'return']","[1.2667052880860865, 1.4165810996892105, 1.782908802444581, 2.0663694998547726, 2.3496062956764945, 2.515767259108543, 2.866087281203363]",2016_Nov_30_1343,59.9616276782,famFaceFilter,1,jb_2
